'Start Wavelength	183.907
'End Wavelength	1046.922
'Gate Delay	5.000
'Gate Width (ms)	1.050
'Laser Output Level	0.000
'X Position	0.000
'Y Position	0.000
'Z Position	0.000
'Grid Point Number	1.000
'Shot Number	100.000
183.907	-137.000
183.977	-281.000
184.047	164
184.116	1013
184.186	151
184.256	-406
184.325	-267
184.395	101
184.465	1128
184.534	388
184.604	-286
184.674	-206
184.743	292
184.813	509
184.883	258
184.952	472
185.022	813
185.092	327
185.161	-95
185.231	940
185.301	-779
185.370	1007
185.440	312
185.509	-86
185.579	-283
185.649	956
185.718	-315
185.788	638
185.857	-303
185.927	-520
185.996	293
186.066	439
186.136	-602
186.205	-120
186.275	251
186.344	269
186.414	657
186.483	-710
186.553	1027
186.622	811
186.692	96
186.761	53
186.831	-79
186.900	-454
186.970	327
187.039	-159
187.109	577
187.178	634
187.248	320
187.317	169
187.387	-62
187.456	-159
187.526	408
187.595	198
187.664	121
187.734	783
187.803	-563
187.873	271
187.942	-752
188.012	721
188.081	249
188.150	-128
188.220	107
188.289	928
188.358	411
188.428	-80
188.497	-809
188.567	148
188.636	-1008
188.705	-11
188.775	-100
188.844	142
188.913	557
188.983	95
189.052	308
189.121	558
189.191	-961
189.260	-141
189.329	-196
189.399	324
189.468	66
189.537	206
189.606	685
189.676	-266
189.745	-495
189.814	237
189.883	66
189.953	395
190.022	-96
190.091	-905
190.161	-727
190.230	-640
190.299	225
190.368	-482
190.437	383
190.507	553
190.576	53
190.645	-485
190.714	65
190.783	-149
190.853	75
190.922	457
190.991	-454
191.060	544
191.129	-808
191.198	-44
191.268	452
191.337	-262
191.406	-123
191.475	-168
191.544	-152
191.613	-601
191.682	-329
191.752	-48
191.821	-179
191.890	-161
191.959	-316
192.028	402
192.097	-328
192.166	340
192.235	-243
192.304	382
192.373	-449
192.442	-6
192.511	-510
192.580	287
192.650	-240
192.719	10
192.788	-519
192.857	702
192.926	340
192.995	132
193.064	-261
193.133	178
193.202	-648
193.271	704
193.340	371
193.409	-364
193.478	609
193.547	-55
193.615	-936
193.684	-472
193.753	-346
193.822	532
193.891	766
193.960	521
194.029	-651
194.098	490
194.167	-273
194.236	994
194.305	-709
194.374	190
194.443	-127
194.512	-129
194.580	252
194.649	352
194.718	-149
194.787	795
194.856	-308
194.925	404
194.994	-602
195.062	-474
195.131	-557
195.200	231
195.269	640
195.338	204
195.407	365
195.475	689
195.544	32
195.613	-60
195.682	603
195.751	-187
195.819	-358
195.888	77
195.957	132
196.026	-374
196.094	87
196.163	143
196.232	-131
196.301	-207
196.369	45
196.438	-51
196.507	796
196.576	174
196.644	218
196.713	137
196.782	-511
196.850	-13
196.919	163
196.988	161
197.056	-17
197.125	169
197.194	331
197.262	-83
197.331	-533
197.400	-860
197.468	-824
197.537	118
197.606	467
197.674	161
197.743	198
197.812	-310
197.880	-369
197.949	-40
198.017	-648
198.086	217
198.155	506
198.223	45
198.292	-100
198.360	-613
198.429	-251
198.497	126
198.566	97
198.635	310
198.703	787
198.772	-232
198.840	-525
198.909	-395
198.977	-206
199.046	735
199.114	220
199.183	-235
199.251	-229
199.320	-45
199.388	215
199.457	2
199.525	-351
199.594	454
199.662	503
199.731	571
199.799	-188
199.867	11
199.936	-337
200.004	180
200.073	373
200.141	-351
200.210	362
200.278	-79
200.346	-86
200.415	-324
200.483	-241
200.552	1014
200.620	-398
200.688	409
200.757	253
200.825	-295
200.893	-619
200.962	57
201.030	-269
201.098	115
201.167	434
201.235	-2
201.303	629
201.372	534
201.440	-19
201.508	-432
201.577	249
201.645	-188
201.713	21
201.781	-356
201.850	-166
201.918	-96
201.986	-375
202.055	68
202.123	-281
202.191	120
202.259	778
202.327	123
202.396	645
202.464	300
202.532	255
202.600	-328
202.669	-236
202.737	-511
202.805	-751
202.873	480
202.941	-524
203.009	45
203.078	-84
203.146	211
203.214	-368
203.282	-787
203.350	63
203.418	821
203.487	-372
203.555	286
203.623	480
203.691	233
203.759	-1123
203.827	68
203.895	-516
203.963	-46
204.031	-257
204.099	-487
204.168	-51
204.236	766
204.304	-280
204.372	160
204.440	-134
204.508	448
204.576	-263
204.644	103
204.712	-352
204.780	-19
204.848	-313
204.916	-337
204.984	410
205.052	-115
205.120	-120
205.188	-63
205.256	-360
205.324	-418
205.392	-260
205.460	-537
205.528	-290
205.596	309
205.664	-426
205.732	117
205.799	40
205.867	13
205.935	-419
206.003	-90
206.071	-872
206.139	-643
206.207	-629
206.275	174
206.343	-355
206.411	67
206.478	2
206.546	104
206.614	124
206.682	-471
206.750	-56
206.818	230
206.885	-214
206.953	-1193
207.021	1103
207.089	355
207.157	-838
207.225	405
207.292	160
207.360	71
207.428	-285
207.496	298
207.563	-82
207.631	-160
207.699	-606
207.767	260
207.834	-667
207.902	296
207.970	-325
208.038	-177
208.105	-536
208.173	205
208.241	-855
208.309	80
208.376	-142
208.444	-161
208.512	-862
208.579	-453
208.647	192
208.715	-122
208.782	-1076
208.850	179
208.918	-803
208.985	-60
209.053	-286
209.120	-471
209.188	-1231
209.256	-90
209.323	-924
209.391	-516
209.459	830
209.526	112
209.594	-551
209.661	-210
209.729	-467
209.796	-148
209.864	42
209.932	-1266
209.999	269
210.067	-33
210.134	-512
210.202	-320
210.269	-136
210.337	851
210.404	-532
210.472	-172
210.539	-414
210.607	-730
210.674	382
210.742	54
210.809	-506
210.877	-187
210.944	47
211.012	-908
211.079	366
211.146	-224
211.214	70
211.281	-39
211.349	-707
211.416	-123
211.484	-150
211.551	-145
211.618	-101
211.686	351
211.753	-704
211.821	-335
211.888	-91
211.955	-6
212.023	-196
212.090	730
212.157	-435
212.225	292
212.292	-201
212.359	17
212.427	-524
212.494	-210
212.561	-88
212.629	177
212.696	-537
212.763	-173
212.831	-604
212.898	213
212.965	-324
213.032	468
213.100	-251
213.167	-499
213.234	6
213.301	48
213.369	-323
213.436	-140
213.503	-258
213.570	267
213.638	-252
213.705	-670
213.772	-264
213.839	236
213.906	177
213.973	249
214.041	-582
214.108	507
214.175	-250
214.242	-615
214.309	276
214.376	-680
214.444	-742
214.511	294
214.578	-539
214.645	325
214.712	155
214.779	-393
214.846	-491
214.913	-34
214.980	-457
215.048	-536
215.115	-541
215.182	-334
215.249	-338
215.316	-286
215.383	504
215.450	235
215.517	-561
215.584	362
215.651	-252
215.718	211
215.785	474
215.852	-140
215.919	-602
215.986	-74
216.053	340
216.120	-439
216.187	-270
216.254	76
216.321	-411
216.388	293
216.455	305
216.522	839
216.589	-640
216.656	-299
216.722	-621
216.789	153
216.856	-87
216.923	63
216.990	-826
217.057	522
217.124	-1306
217.191	-648
217.258	71
217.324	-588
217.391	-628
217.458	-134
217.525	-477
217.592	-321
217.659	-1583
217.725	264
217.792	-67
217.859	767
217.926	-8
217.993	406
218.059	-196
218.126	30
218.193	-479
218.260	141
218.327	-121
218.393	-152
218.460	-670
218.527	-837
218.594	-8
218.660	290
218.727	712
218.794	-592
218.860	57
218.927	-687
218.994	-238
219.061	243
219.127	-570
219.194	57
219.261	-235
219.327	-306
219.394	325
219.461	-717
219.527	226
219.594	-866
219.661	-54
219.727	-735
219.794	732
219.860	-1029
219.927	-6
219.994	194
220.060	81
220.127	1026
220.193	634
220.260	-904
220.326	-14
220.393	-373
220.460	-1025
220.526	-764
220.593	-566
220.659	611
220.726	-501
220.792	-526
220.859	-1221
220.925	154
220.992	-185
221.058	-233
221.125	-534
221.191	-79
221.258	-813
221.324	-199
221.391	-370
221.457	-880
221.524	-669
221.590	-24
221.657	-475
221.723	-997
221.789	-595
221.856	-533
221.922	-1090
221.989	232
222.055	-156
222.121	-572
222.188	1216
222.254	308
222.321	-145
222.387	-773
222.453	-280
222.520	-518
222.586	-1161
222.652	-194
222.719	-1023
222.785	-609
222.851	-126
222.918	-143
222.984	-355
223.050	-542
223.116	-1150
223.183	452
223.249	-596
223.315	-416
223.382	20
223.448	149
223.514	-956
223.580	-280
223.647	-631
223.713	-614
223.779	-1046
223.845	-11
223.911	-137
223.978	-1287
224.044	-185
224.110	-322
224.176	-48
224.242	12
224.309	-975
224.375	220
224.441	-579
224.507	-306
224.573	-350
224.639	-397
224.705	-803
224.772	-84
224.838	-649
224.904	695
224.970	-811
225.036	-80
225.102	-995
225.168	44
225.234	141
225.300	-456
225.366	-740
225.432	227
225.499	-49
225.565	-625
225.631	-76
225.697	-1031
225.763	468
225.829	-802
225.895	-682
225.961	-505
226.027	-241
226.093	-980
226.159	-376
226.225	126
226.291	-779
226.357	-340
226.423	-292
226.489	-49
226.554	-403
226.620	781
226.686	-1088
226.752	-641
226.818	-1149
226.884	-538
226.950	-480
227.016	49
227.082	550
227.148	-132
227.214	-78
227.279	-302
227.345	-914
227.411	-683
227.477	-276
227.543	438
227.609	232
227.674	567
227.740	98
227.806	-116
227.872	-743
227.938	-284
228.003	-240
228.069	-707
228.135	-742
228.201	-160
228.267	-49
228.332	-496
228.398	-1478
228.464	-354
228.530	-27
228.595	-178
228.661	-1010
228.727	-634
228.792	41
228.858	-469
228.924	-2719
228.990	364
229.055	-1176
229.121	251
229.187	-555
229.252	-952
229.318	-251
229.384	86
229.449	-467
229.515	-1124
229.581	-1931
229.646	1292
229.712	-377
229.777	-312
229.843	-1099
229.909	-21
229.974	-170
230.040	428
230.105	-575
230.171	-973
230.236	-34
230.302	-105
230.368	-904
230.433	-1661
230.499	-262
230.564	482
230.630	-2008
230.695	258
230.761	991
230.826	-1183
230.892	414
230.957	-1765
231.023	-436
231.088	-479
231.154	-620
231.219	259
231.284	-694
231.350	386
231.415	-1509
231.481	263
231.546	-287
231.612	-205
231.677	-899
231.742	-1524
231.808	702
231.873	-403
231.939	-2284
232.004	452
232.069	-324
232.135	-462
232.200	-526
232.265	67
232.331	-585
232.396	-264
232.461	-616
232.527	-669
232.592	-824
232.657	-165
232.723	-190
232.788	-426
232.853	-285
232.918	-397
232.984	-1014
233.049	-894
233.114	-717
233.179	295
233.245	-538
233.310	-438
233.375	-1057
233.440	-42
233.506	146
233.571	-776
233.636	-583
233.701	-169
233.766	-518
233.832	-54
233.897	-418
233.962	-1456
234.027	517
234.092	-407
234.157	-752
234.222	-1278
234.288	-143
234.353	-903
234.418	-881
234.483	-11
234.548	-709
234.613	-779
234.678	-505
234.743	-1405
234.808	517
234.873	-1500
234.938	-223
235.004	-457
235.069	-816
235.134	-1411
235.199	-63
235.264	-89
235.329	-1456
235.394	14
235.459	-274
235.524	-1057
235.589	-953
235.654	-21
235.719	-1769
235.784	869
235.849	-808
235.913	-140
235.978	-263
236.043	-250
236.108	-577
236.173	-604
236.238	-491
236.303	-899
236.368	-785
236.433	-244
236.498	-1001
236.563	-516
236.627	-1021
236.692	-23
236.757	-1132
236.822	-285
236.887	-460
236.952	-379
237.017	-1402
237.081	917
237.146	-1425
237.211	-374
237.276	-956
237.341	-471
237.405	-2015
237.470	-242
237.535	-364
237.600	-23
237.664	-908
237.729	-1224
237.794	-1542
237.859	171
237.923	-217
237.988	-441
238.053	224
238.118	-860
238.182	-939
238.247	734
238.312	-1596
238.376	473
238.441	-2572
238.506	303
238.570	-1611
238.635	1120
238.700	-690
238.764	-700
238.829	-710
238.893	-1186
238.958	-46
239.023	-396
239.087	-71
239.152	-208
239.216	-1154
239.281	887
239.346	-914
239.410	89
239.475	-746
239.539	261
239.604	-1601
239.668	254
239.733	-575
239.797	640
239.862	1407
239.926	999
239.991	945
240.055	-132
240.120	412
240.184	311
240.249	-223
240.313	-788
240.378	-121
240.442	-1302
240.507	-522
240.571	-580
240.635	-481
240.700	-714
240.764	-705
240.829	-49
240.893	-1264
240.957	747
241.022	239
241.086	36
241.151	-1751
241.215	-1451
241.279	254
241.344	-730
241.408	-330
241.472	-1605
241.537	156
241.601	-834
241.665	-1520
241.730	-650
241.794	261
241.858	-929
241.922	491
241.987	-1101
242.051	-1106
242.115	-1168
242.179	-426
242.244	-432
242.308	-265
242.372	86
242.436	-1079
242.501	-366
242.565	-1155
242.629	-50
242.693	-279
242.757	-1157
242.822	-822
242.886	-111
242.950	-135
243.014	-1214
243.078	312
243.142	-684
243.206	-740
243.271	-137
243.335	-1454
243.399	-696
243.463	-1428
243.527	-371
243.591	-1040
243.655	-314
243.719	-956
243.783	510
243.847	-674
243.911	163
243.975	-1568
244.040	-1565
244.104	1040
244.168	-344
244.232	-641
244.296	-548
244.360	-383
244.424	-1208
244.488	-170
244.552	327
244.615	-1995
244.679	-889
244.743	-1257
244.807	-1610
244.871	94
244.935	-467
244.999	-1759
245.063	-694
245.127	8
245.191	-960
245.255	-777
245.319	-521
245.383	-1983
245.446	733
245.510	-1212
245.574	-804
245.638	-133
245.702	-1868
245.766	-104
245.829	59
245.893	-1861
245.957	-1100
246.021	-390
246.085	-959
246.149	-1291
246.212	563
246.276	-864
246.340	-1146
246.404	-582
246.467	786
246.531	-2220
246.595	159
246.659	-254
246.722	-2169
246.786	-204
246.850	-652
246.913	-1450
246.977	-1339
247.041	-489
247.104	-1400
247.168	-321
247.232	-808
247.295	-430
247.359	-1022
247.423	-484
247.486	-16
247.550	102
247.614	-787
247.677	-676
247.741	-119
247.804	-788
247.868	-182
247.932	-1205
247.995	23
248.059	-823
248.122	-1337
248.186	178
248.249	26
248.313	-194
248.376	-237
248.440	-890
248.503	-940
248.567	323
248.630	-769
248.694	-725
248.757	-441
248.821	-247
248.884	886
248.948	-1673
249.011	161
249.075	-1113
249.138	-167
249.202	-764
249.265	-1260
249.328	-315
249.392	-1737
249.455	-466
249.519	-590
249.582	-1028
249.645	-265
249.709	-674
249.772	-1103
249.835	-887
249.899	-660
249.962	-25
250.025	-415
250.089	-374
250.152	194
250.215	-413
250.279	-979
250.342	-51
250.405	-896
250.468	-778
250.532	-438
250.595	160
250.658	-1615
250.721	243
250.785	-1589
250.848	539
250.911	-791
250.974	-768
251.038	-715
251.101	-217
251.164	-773
251.227	-145
251.290	-752
251.354	-1041
251.417	-366
251.480	-373
251.543	-699
251.606	-2003
251.669	97
251.732	78
251.795	-579
251.859	-540
251.922	-347
251.985	-173
252.048	-75
252.111	456
252.174	-859
252.237	-1271
252.300	-20
252.363	-1178
252.426	-180
252.489	-1703
252.552	-97
252.615	-1157
252.678	151
252.741	-621
252.804	-1177
252.867	-450
252.930	-222
252.993	-1288
253.056	-96
253.119	-1010
253.182	-124
253.245	-1210
253.308	-249
253.371	-663
253.434	-537
253.497	-332
253.559	-130
253.622	-569
253.685	-458
253.748	-786
253.811	-769
253.874	76
253.937	-1341
254.000	-694
254.062	-188
254.125	-1681
254.188	-364
254.251	-402
254.314	-945
254.376	-1392
254.439	-2
254.502	-161
254.565	-1494
254.628	-421
254.690	-1333
254.753	-638
254.816	-985
254.878	-950
254.941	-5
255.004	-897
255.067	-772
255.129	-1103
255.192	88
255.255	-1371
255.317	-233
255.380	-526
255.443	-576
255.505	-685
255.568	-1764
255.631	-677
255.693	354
255.756	-767
255.819	426
255.881	-1011
255.944	470
256.006	-472
256.069	-1006
256.132	-365
256.194	-502
256.257	-582
256.319	-163
256.382	-1179
256.444	104
256.507	261
256.569	-729
256.632	-1222
256.694	-2134
256.757	-159
256.819	-825
256.882	-1487
256.944	-646
257.007	322
257.069	-543
257.132	-1030
257.194	481
257.257	-462
257.319	-1343
257.381	-1221
257.444	387
257.506	-384
257.569	-504
257.631	-991
257.693	-764
257.756	-870
257.818	-1432
257.880	-1363
257.943	-1014
258.005	-1377
258.067	-1093
258.130	-25
258.192	-603
258.254	-678
258.317	-735
258.379	-466
258.441	-1212
258.503	-379
258.566	-1727
258.628	28
258.690	-1317
258.753	-113
258.815	-763
258.877	-840
258.939	-287
259.001	-543
259.064	-630
259.126	-1257
259.188	-661
259.250	-324
259.312	-548
259.375	-1328
259.437	-1722
259.499	-762
259.561	-420
259.623	50
259.685	-1290
259.747	-638
259.809	-638
259.872	-565
259.934	265
259.996	-271
260.058	-528
260.120	-1505
260.182	-939
260.244	-286
260.306	-1222
260.368	-135
260.430	-216
260.492	-1011
260.554	-390
260.616	-1491
260.678	-409
260.740	-442
260.802	-1144
260.864	-289
260.926	-1870
260.988	773
261.050	-422
261.112	-1709
261.174	368
261.236	-798
261.298	-769
261.359	-1642
261.421	-85
261.483	-1565
261.545	810
261.607	-1645
261.669	109
261.731	-63
261.793	-602
261.854	-1816
261.916	53
261.978	-976
262.040	-222
262.102	-1171
262.164	-1511
262.225	-299
262.287	-966
262.349	-1108
262.411	-451
262.472	-140
262.534	-1733
262.596	-1103
262.658	-366
262.719	-1499
262.781	103
262.843	-1527
262.904	-394
262.966	69
263.028	-776
263.090	-66
263.151	-829
263.213	-602
263.275	-438
263.336	-1055
263.398	116
263.459	-665
263.521	-681
263.583	-752
263.644	-425
263.706	-1174
263.767	-1342
263.829	-245
263.891	-323
263.952	-1327
264.014	-1060
264.075	-1261
264.137	-890
264.198	-836
264.260	-1611
264.321	-221
264.383	-391
264.444	-725
264.506	-950
264.567	-189
264.629	-642
264.690	-1991
264.752	-268
264.813	-742
264.875	-1462
264.936	-7
264.998	-994
265.059	-666
265.120	-770
265.182	-155
265.243	-1129
265.305	-1866
265.366	-223
265.427	-443
265.489	647
265.550	-1691
265.611	-210
265.673	-1314
265.734	-649
265.795	-515
265.857	-1503
265.918	-1641
265.979	49
266.040	-1354
266.102	-1083
266.163	-537
266.224	-421
266.286	16
266.347	-1482
266.408	-445
266.469	-477
266.530	-1260
266.592	-473
266.653	-1289
266.714	-896
266.775	-1085
266.836	-555
266.898	-779
266.959	-977
267.020	-1272
267.081	256
267.142	-474
267.203	-1387
267.264	-1223
267.326	634
267.387	-1138
267.448	-1524
267.509	-671
267.570	-379
267.631	-804
267.692	-433
267.753	59
267.814	-1627
267.875	-427
267.936	-946
267.997	-1229
268.058	-76
268.119	-1077
268.180	-312
268.241	-1156
268.302	-842
268.363	-960
268.424	-827
268.485	-722
268.546	-857
268.607	-514
268.668	-660
268.729	-1044
268.790	-1315
268.851	-1228
268.912	-655
268.972	-1155
269.033	-266
269.094	-1523
269.155	-185
269.216	-323
269.277	-561
269.338	-973
269.398	-439
269.459	-1748
269.520	-913
269.581	-935
269.642	-831
269.702	-1295
269.763	-843
269.824	-1581
269.885	-1427
269.945	82
270.006	100
270.067	-638
270.128	-863
270.188	-749
270.249	103
270.310	-1181
270.370	-452
270.431	-689
270.492	-1008
270.553	-326
270.613	-1034
270.674	-609
270.734	-986
270.795	-572
270.856	-340
270.916	-1101
270.977	-967
271.038	-301
271.098	-834
271.159	-991
271.219	-1220
271.280	-888
271.340	-563
271.401	-1266
271.462	-537
271.522	-152
271.583	-1475
271.643	-427
271.704	-879
271.764	-1217
271.825	-883
271.885	-295
271.946	123
272.006	-1228
272.066	-134
272.127	-27
272.187	889
272.248	524
272.308	-719
272.369	198
272.429	-991
272.489	-431
272.550	-1383
272.610	517
272.671	-694
272.731	-621
272.791	-1279
272.852	-1310
272.912	-315
272.972	-561
273.033	-725
273.093	-1045
273.153	-520
273.214	-1631
273.274	-1098
273.334	-1308
273.394	-541
273.455	-541
273.515	-109
273.575	-1103
273.635	-54
273.696	-1108
273.756	-569
273.816	-1407
273.876	57
273.936	-1097
273.997	167
274.057	-1249
274.117	-966
274.177	-1027
274.237	-484
274.297	-259
274.358	-747
274.418	-331
274.478	-351
274.538	-475
274.598	-1675
274.658	-17
274.718	-704
274.778	-550
274.838	-233
274.898	-1325
274.958	-183
275.018	-344
275.078	-54
275.138	-446
275.198	-911
275.258	-693
275.318	-410
275.378	-841
275.438	-127
275.498	-625
275.558	-339
275.618	-704
275.678	-902
275.738	-278
275.798	-702
275.858	-1401
275.918	-804
275.978	-367
276.038	-425
276.098	-362
276.157	-740
276.217	-832
276.277	-585
276.337	-1046
276.397	-625
276.457	-142
276.517	61
276.576	-832
276.636	-740
276.696	147
276.756	-184
276.815	-1400
276.875	-822
276.935	-844
276.995	63
277.055	-766
277.114	-122
277.174	-754
277.234	-302
277.293	-1380
277.353	-850
277.413	-505
277.472	-905
277.532	-1620
277.592	-789
277.651	-891
277.711	-369
277.771	-1206
277.830	-109
277.890	-140
277.950	-940
278.009	919
278.069	428
278.128	-265
278.188	-119
278.248	-985
278.307	-189
278.367	155
278.426	-628
278.486	-1314
278.545	-1010
278.605	-737
278.664	-558
278.724	-1256
278.783	-779
278.843	505
278.902	-984
278.962	-515
279.021	-925
279.081	-602
279.140	-170
279.199	-1068
279.259	-748
279.318	-849
279.378	24
279.437	-342
279.496	776
279.556	4210
279.615	3160
279.675	-341
279.734	-253
279.793	-154
279.853	753
279.912	-462
279.971	-496
280.031	-809
280.090	-56
280.149	1214
280.208	10
280.268	1389
280.327	2440
280.386	-209
280.445	-1105
280.505	-314
280.564	-270
280.623	-968
280.682	-480
280.742	-991
280.801	-849
280.860	-625
280.919	-274
280.978	-230
281.037	-461
281.097	-1071
281.156	-24
281.215	-696
281.274	-384
281.333	-625
281.392	-872
281.451	51
281.510	-883
281.569	-1372
281.628	-496
281.688	-876
281.747	-366
281.806	-777
281.865	-403
281.924	-644
281.983	-556
282.042	-1384
282.101	-519
282.160	-134
282.219	-283
282.278	-1018
282.337	-648
282.396	-508
282.454	-742
282.513	-1384
282.572	-895
282.631	-1130
282.690	-656
282.749	-1306
282.808	-424
282.867	-1299
282.926	-431
282.985	-442
283.043	-300
283.102	-272
283.161	-827
283.220	-877
283.279	51
283.338	-1044
283.396	-1177
283.455	-451
283.514	-357
283.573	458
283.631	-572
283.690	-780
283.749	-272
283.808	-1039
283.866	-343
283.925	-655
283.984	-622
284.043	-858
284.101	-160
284.160	-1132
284.219	-149
284.277	-775
284.336	-637
284.395	-420
284.453	-445
284.512	-128
284.570	-53
284.629	-852
284.688	-1204
284.746	-557
284.805	-567
284.863	-306
284.922	-783
284.981	-930
285.039	-252
285.098	338
285.156	2625
285.215	8244
285.273	10157
285.332	3084
285.390	1121
285.449	-325
285.507	401
285.566	-246
285.624	169
285.683	-466
285.741	82
285.799	-1120
285.858	-115
285.916	-1024
285.975	-234
286.033	-425
286.091	-197
286.150	-899
286.208	-580
286.267	-574
286.325	-442
286.383	48
286.442	-391
286.500	-119
286.558	-479
286.616	-1052
286.675	145
286.733	-343
286.791	-1121
286.850	-352
286.908	-378
286.966	-894
287.024	-162
287.083	-68
287.141	141
287.199	-87
287.257	206
287.315	-333
287.374	-279
287.432	-398
287.490	-79
287.548	-1010
287.606	-363
287.664	-1039
287.723	-861
287.781	270
287.839	-215
287.897	-584
287.955	-520
288.013	-1387
288.071	-69
288.129	-354
288.187	13
288.245	108
288.303	-650
288.361	-627
288.419	-539
288.477	-834
288.535	474
288.593	205
288.651	-92
288.709	-869
288.767	-100
288.825	-1300
288.883	-473
288.941	-719
288.999	-43
289.057	-948
289.115	-458
289.173	-610
289.231	90
289.289	-831
289.346	-1049
289.404	-489
289.462	-416
289.520	-482
289.578	-404
289.636	-135
289.694	-111
289.751	-943
289.809	-801
289.867	-631
289.925	122
289.983	-604
290.040	685
290.098	-525
290.156	-882
290.214	-1200
290.271	31
290.329	126
290.387	-901
290.444	-450
290.502	-1086
290.560	-192
290.617	-547
290.675	-168
290.733	-241
290.790	-118
290.848	-257
290.906	-248
290.963	-145
291.021	-540
291.078	-1398
291.136	-725
291.194	-555
291.251	146
291.309	-156
291.366	-468
291.424	-54
291.481	-462
291.539	-1060
291.596	-157
291.654	-185
291.711	-138
291.769	-152
291.826	-544
291.884	109
291.941	-919
291.999	73
292.056	38
292.114	115
292.171	-60
292.228	47
292.286	-810
292.343	-348
292.401	-877
292.458	-143
292.515	-1061
292.573	-989
292.630	-462
292.687	118
292.745	-285
292.802	-1278
292.859	-394
292.917	-395
292.974	-1105
293.031	-307
293.089	-578
293.146	27
293.203	-540
293.260	-775
293.318	-964
293.375	-480
293.432	-1108
293.489	179
293.546	-182
293.604	-74
293.661	-339
293.718	-39
293.775	-876
293.832	-68
293.889	-952
293.947	-647
294.004	-1427
294.061	-838
294.118	-1385
294.175	-338
294.232	-778
294.289	-449
294.346	-724
294.403	186
294.460	-1218
294.517	-519
294.574	-1074
294.631	-54
294.688	-622
294.745	-99
294.802	-145
294.859	-68
294.916	-25
294.973	-529
295.030	-775
295.087	53
295.144	-1366
295.201	-411
295.258	-1054
295.315	-372
295.372	117
295.429	-587
295.486	-425
295.542	-466
295.599	-275
295.656	-930
295.713	-576
295.770	-387
295.827	-1405
295.883	-396
295.940	-884
295.997	-803
296.054	-832
296.111	-790
296.167	-361
296.224	-708
296.281	-1500
296.338	-962
296.394	-1382
296.451	-266
296.508	-776
296.564	-1036
296.621	-241
296.678	333
296.734	20
296.791	-209
296.848	-993
296.904	161
296.961	-717
297.018	-548
297.074	-828
297.131	-702
297.187	-1026
297.244	-328
297.301	-99
297.357	1166
297.414	-815
297.470	-614
297.527	-893
297.583	-891
297.640	-759
297.696	-218
297.753	-1189
297.809	-612
297.866	-836
297.922	-491
297.979	-505
298.035	-886
298.092	-1187
298.148	-511
298.204	-837
298.261	-513
298.317	178
298.374	171
298.430	143
298.486	-358
298.543	-980
298.599	-1056
298.656	-1306
298.712	-421
298.768	-1336
298.824	-662
298.881	-518
298.937	501
298.993	-811
299.050	-477
299.106	-591
299.162	-622
299.218	20
299.275	-824
299.331	-185
299.387	140
299.443	48
299.500	2990
299.556	3866
299.612	880
299.668	143
299.724	2776
299.780	4052
299.837	1353
299.893	439
299.949	1425
300.005	3767
300.061	2620
300.117	4376
300.173	2101
300.229	986
300.285	-505
300.341	575
300.397	-275
300.453	-1172
300.510	151
300.566	-156
300.622	1052
300.678	4647
300.734	7589
300.790	3365
300.845	844
300.901	2408
300.957	4820
301.013	2287
301.069	126
301.125	200
301.181	-333
301.237	-1153
301.293	-631
301.349	118
301.405	-322
301.461	-273
301.516	-575
301.572	-785
301.628	-451
301.684	-334
301.740	-528
301.796	-694
301.851	-132
301.907	-459
301.963	-589
302.019	430
302.074	2205
302.130	1496
302.186	421
302.242	-452
302.297	-800
302.353	-635
302.409	-98
302.464	-514
302.520	-763
302.576	-702
302.631	153
302.687	-657
302.743	-625
302.798	-1106
302.854	-130
302.910	-390
302.965	-693
303.021	-244
303.076	-640
303.132	-300
303.187	-999
303.243	-977
303.299	-82
303.354	-802
303.410	151
303.465	-298
303.521	-626
303.576	-1063
303.632	-928
303.687	163
303.743	32
303.798	-441
303.853	-461
303.909	-509
303.964	-251
304.020	-372
304.075	133
304.130	-1116
304.186	-839
304.241	-257
304.297	-4
304.352	-896
304.358	-786
304.407	102
304.449	-348
304.463	-501
304.518	-714
304.539	-856
304.573	-1093
304.629	-339
304.630	-332
304.684	-67
304.720	-216
304.739	-296
304.794	451
304.811	472
304.850	505
304.902	-233
304.905	-279
304.960	-363
304.992	-416
305.015	-477
305.071	-381
305.083	-369
305.126	-330
305.173	-437
305.181	-442
305.236	-1114
305.264	-860
305.292	-637
305.347	-376
305.354	-332
305.402	-19
305.445	-768
305.457	-1002
305.512	-475
305.535	-409
305.567	-264
305.622	-578
305.626	-589
305.678	-782
305.716	-414
305.733	-253
305.788	-399
305.807	-329
305.843	-214
305.897	191
305.898	198
305.953	606
305.988	464
306.008	369
306.063	92
306.078	-61
306.118	-402
306.168	-546
306.173	-564
306.228	-536
306.259	-214
306.283	44
306.338	-338
306.349	-411
306.393	-770
306.440	-823
306.448	-783
306.503	254
306.530	233
306.558	90
306.613	-148
306.620	-120
306.668	217
306.711	127
306.723	63
306.778	-224
306.801	21
306.833	347
306.888	32
306.892	34
306.943	141
306.982	65
306.997	12
307.052	-381
307.072	-498
307.107	-507
307.162	-213
307.163	-212
307.217	-120
307.253	121
307.272	274
307.327	50
307.343	-30
307.381	-142
307.434	-299
307.436	-299
307.491	740
307.524	490
307.546	145
307.600	210
307.614	39
307.655	-272
307.704	65
307.710	133
307.765	-300
307.795	-18
307.819	-53
307.874	-489
307.885	-547
307.929	-225
307.975	-23
307.984	-22
308.038	547
308.065	478
308.093	388
308.148	190
308.156	186
308.202	-128
308.246	-305
308.257	-247
308.312	27
308.336	128
308.366	195
308.421	161
308.426	149
308.475	47
308.517	-115
308.530	-189
308.585	4
308.607	-48
308.639	24
308.694	-106
308.697	-89
308.748	160
308.787	82
308.803	6
308.857	51
308.877	-141
308.912	-405
308.967	-310
308.967	-307
309.021	388
309.058	459
309.076	408
309.130	274
309.148	316
309.185	608
309.238	863
309.239	866
309.293	573
309.328	766
309.348	836
309.402	464
309.418	428
309.457	602
309.508	436
309.511	427
309.566	705
309.598	580
309.620	475
309.674	807
309.688	775
309.729	749
309.778	829
309.783	836
309.837	636
309.868	616
309.892	506
309.946	210
309.959	162
310.001	419
310.049	596
310.055	593
310.109	755
310.139	732
310.163	617
310.218	479
310.229	424
310.272	775
310.319	1280
310.326	1238
310.381	423
310.409	307
310.435	469
310.489	328
310.499	386
310.543	774
310.589	775
310.598	704
310.652	617
310.679	411
310.706	464
310.760	706
310.769	751
310.814	887
310.859	936
310.868	886
310.923	436
310.948	262
310.977	491
311.031	1149
311.038	1205
311.085	973
311.128	803
311.139	806
311.193	706
311.218	679
311.247	821
311.301	1210
311.308	1229
311.356	1014
311.398	898
311.410	866
311.464	676
311.488	594
311.518	330
311.572	-239
311.578	-295
311.626	497
311.668	1136
311.680	1066
311.734	761
311.758	615
311.788	690
311.842	837
311.847	848
311.896	768
311.937	692
311.950	684
312.004	638
312.027	625
312.058	809
312.112	1132
312.117	1162
312.165	1001
312.207	860
312.297	891
312.386	526
312.476	802
312.566	1290
312.656	1077
312.745	1068
312.835	1024
312.925	1814
313.015	1136
313.104	587
313.194	822
313.284	1152
313.374	857
313.463	1825
313.553	1909
313.643	888
313.732	1930
313.822	875
313.912	1511
314.001	2479
314.091	2362
314.180	1817
314.270	1974
314.360	1479
314.449	1975
314.539	1706
314.628	1762
314.718	3399
314.808	1839
314.897	2572
314.987	1875
315.076	3076
315.166	2959
315.255	2279
315.345	2327
315.434	2014
315.524	2350
315.613	2216
315.703	2424
315.792	4343
315.881	9516
315.971	3274
316.060	2714
316.150	2301
316.239	1688
316.328	2210
316.418	2425
316.507	2917
316.597	2944
316.686	1779
316.775	3022
316.865	2703
316.954	1447
317.043	2200
317.133	2044
317.222	1565
317.311	2132
317.400	514
317.490	2904
317.579	1888
317.668	1947
317.757	2144
317.847	5839
317.936	13601
318.025	5064
318.114	5230
318.203	2769
318.293	1815
318.382	2995
318.471	3892
318.560	3561
318.649	2583
318.738	1692
318.828	1608
318.917	1151
319.006	1895
319.095	1174
319.184	1301
319.273	1859
319.362	1301
319.451	1962
319.540	1445
319.629	2202
319.718	1155
319.807	1350
319.896	943
319.985	2009
320.074	1912
320.163	1443
320.252	1732
320.341	1304
320.430	2064
320.519	2341
320.608	2659
320.697	3151
320.786	3040
320.875	3429
320.964	3816
321.053	3793
321.142	3725
321.230	4393
321.319	3956
321.408	5222
321.497	6123
321.586	4668
321.675	3172
321.764	4042
321.852	4120
321.941	3435
322.030	3533
322.119	3599
322.207	4842
322.296	5737
322.385	6014
322.474	6984
322.562	8036
322.651	6770
322.740	4922
322.829	3901
322.917	3240
323.006	3516
323.095	3359
323.183	2818
323.272	1990
323.361	3640
323.449	2775
323.538	2749
323.626	2957
323.715	2374
323.804	991
323.892	2122
323.981	1462
324.069	2596
324.158	2184
324.246	1907
324.335	2154
324.424	1753
324.512	2438
324.601	1563
324.689	2091
324.778	2220
324.866	1689
324.954	1565
325.043	1949
325.131	271
325.220	2061
325.308	1766
325.397	1178
325.485	2042
325.574	1442
325.662	1020
325.750	1367
325.839	2112
325.927	2027
326.015	2290
326.104	1651
326.192	1866
326.280	857
326.369	1334
326.457	1684
326.545	2142
326.634	1559
326.722	1657
326.810	1795
326.898	2573
326.987	2074
327.075	1961
327.163	2387
327.251	1878
327.340	2104
327.428	3314
327.516	3129
327.604	2681
327.692	1162
327.781	1289
327.869	1168
327.957	998
328.045	1354
328.133	1134
328.221	816
328.309	1770
328.397	1919
328.485	1404
328.574	2894
328.662	3430
328.750	2754
328.838	1543
328.926	2630
329.014	1783
329.102	1433
329.190	2147
329.278	1506
329.366	2564
329.454	1268
329.542	2110
329.630	757
329.718	2141
329.806	1512
329.893	1747
329.981	1414
330.069	1477
330.157	2253
330.245	2605
330.333	2170
330.421	2357
330.509	1343
330.597	2136
330.684	1587
330.772	1932
330.860	941
330.948	1016
331.036	983
331.123	1460
331.211	1316
331.299	732
331.387	1684
331.475	1697
331.562	1944
331.650	1376
331.738	1675
331.825	1649
331.913	2034
332.001	1840
332.089	1337
332.176	1922
332.264	1748
332.352	1675
332.439	1463
332.527	987
332.614	1883
332.702	1528
332.790	1834
332.877	1564
332.965	1880
333.052	1728
333.140	1479
333.228	2002
333.315	2053
333.403	1910
333.490	2525
333.578	821
333.665	2275
333.753	2328
333.840	2111
333.928	3042
334.015	3283
334.103	3927
334.190	4291
334.278	5331
334.365	7936
334.452	9160
334.540	5935
334.627	6096
334.715	6638
334.802	9406
334.889	15133
334.977	20957
335.064	14778
335.151	6647
335.239	5838
335.326	4014
335.413	4962
335.501	3825
335.588	4486
335.675	5312
335.762	5841
335.850	7962
335.937	11254
336.024	17353
336.111	26720
336.199	27907
336.286	13660
336.373	7442
336.460	5237
336.547	4531
336.635	3157
336.722	2964
336.809	2160
336.896	2290
336.983	2333
337.070	2489
337.157	1928
337.245	2753
337.332	3124
337.419	2246
337.506	2431
337.593	2757
337.680	2409
337.767	2485
337.854	2269
337.941	2217
338.028	1847
338.115	1394
338.202	2556
338.289	1963
338.376	1467
338.463	2182
338.550	2232
338.637	2614
338.724	2012
338.811	1222
338.898	2250
338.984	2320
339.071	1851
339.158	1753
339.245	1772
339.332	2075
339.419	2323
339.506	1764
339.593	238
339.679	1861
339.766	1145
339.853	801
339.940	2009
340.027	1670
340.113	2300
340.200	1773
340.287	1182
340.374	1415
340.460	1748
340.547	-186
340.634	2019
340.720	1515
340.807	1273
340.894	1751
340.980	2034
341.067	1380
341.154	2739
341.240	2289
341.327	1725
341.414	1999
341.500	1794
341.587	1765
341.674	2134
341.760	2100
341.847	1639
341.933	1740
342.020	914
342.106	1683
342.193	1263
342.279	2514
342.366	1124
342.452	2259
342.539	1757
342.625	1948
342.712	1380
342.798	1211
342.885	1342
342.971	1052
343.058	1563
343.144	1228
343.230	2130
343.317	2215
343.403	1894
343.490	2279
343.576	1390
343.662	999
343.749	1475
343.835	1627
343.921	1523
344.008	3729
344.094	4142
344.180	1961
344.267	1870
344.353	1817
344.439	1864
344.525	1417
344.612	2302
344.698	2183
344.784	1351
344.870	1703
344.957	1893
345.043	1689
345.129	805
345.215	1745
345.301	1269
345.387	1622
345.474	2010
345.560	1670
345.646	611
345.732	1086
345.818	1129
345.904	1381
345.990	1550
346.076	1457
346.162	1934
346.249	2816
346.335	1472
346.421	2022
346.507	1374
346.593	2688
346.679	93
346.765	2606
346.851	2525
346.937	2181
347.023	2265
347.108	2335
347.194	1415
347.280	2010
347.366	1768
347.452	5854
347.538	6326
347.624	5187
347.710	3200
347.796	2401
347.882	2291
347.967	2775
348.053	530
348.139	1625
348.225	1644
348.311	1827
348.397	1397
348.482	2823
348.568	2654
348.654	2597
348.740	8518
348.825	8165
348.911	4740
348.997	2381
349.083	3653
349.168	1456
349.254	2046
349.340	2054
349.425	2101
349.511	2184
349.597	2097
349.682	1710
349.768	2973
349.854	2074
349.939	2654
350.025	2403
350.110	2580
350.196	1338
350.282	1217
350.367	2400
350.453	1758
350.538	1391
350.624	1240
350.709	2010
350.795	938
350.880	986
350.966	2843
351.051	2759
351.137	2088
351.222	1742
351.308	2248
351.393	1633
351.479	2136
351.564	956
351.649	2254
351.735	2382
351.820	2241
351.906	1837
351.991	1183
352.076	1761
352.162	2351
352.247	2021
352.332	1693
352.418	1421
352.503	933
352.588	2675
352.673	1636
352.759	1989
352.844	1760
352.929	1708
353.014	1189
353.100	2330
353.185	1684
353.270	962
353.355	2401
353.441	2267
353.526	1734
353.611	1677
353.696	1552
353.781	2344
353.866	1402
353.952	2319
354.037	1401
354.122	3025
354.207	1617
354.292	1489
354.377	2259
354.462	2673
354.547	1340
354.632	2027
354.717	1096
354.802	1607
354.887	1663
354.972	1903
355.057	1919
355.142	1586
355.227	2366
355.312	1714
355.397	957
355.482	1603
355.567	2268
355.652	2003
355.737	1740
355.822	1962
355.907	1786
355.991	2582
356.076	881
356.161	1935
356.246	1651
356.331	2117
356.416	1168
356.501	3527
356.585	1912
356.670	994
356.755	4329
356.840	3070
356.924	3311
357.009	4286
357.094	3484
357.179	2118
357.263	1638
357.348	2412
357.433	2203
357.517	2715
357.602	1778
357.687	1765
357.771	2688
357.856	2409
357.941	2068
358.025	2894
358.110	5712
358.195	3285
358.279	1544
358.364	2043
358.448	2880
358.533	3351
358.617	2149
358.702	2737
358.787	1372
358.871	2830
358.956	1723
359.040	2008
359.125	1667
359.209	1717
359.294	2432
359.378	3022
359.462	2741
359.547	2331
359.631	1590
359.716	1508
359.800	1288
359.885	2475
359.969	1458
360.053	2712
360.138	1593
360.222	1662
360.306	1702
360.391	1814
360.475	2845
360.559	1802
360.644	2644
360.728	1614
360.812	3253
360.896	4243
360.981	2324
361.065	2199
361.149	3167
361.233	2514
361.318	1795
361.402	2374
361.486	2637
361.570	2334
361.654	2658
361.739	2202
361.823	3269
361.907	4751
361.991	3713
362.075	4337
362.159	5197
362.243	10406
362.327	20182
362.411	33547
362.495	13731
362.580	6432
362.664	6404
362.748	7074
362.832	10549
362.916	19061
363.000	48665
363.084	67117
363.168	28571
363.252	10240
363.336	6872
363.420	4840
363.503	4339
363.587	4250
363.671	3968
363.755	3348
363.839	5492
363.923	4059
364.007	6395
364.091	7996
364.175	11266
364.258	24667
364.342	49368
364.426	90759
364.510	53510
364.594	19634
364.677	9902
364.761	5698
364.845	5374
364.929	3735
365.013	2807
365.096	3600
365.180	2858
365.264	3480
365.347	2134
365.431	2243
365.515	1537
365.598	1408
365.682	4461
365.766	1846
365.849	3004
365.933	3073
366.017	4072
366.100	1803
366.184	2531
366.267	3122
366.351	2750
366.435	1503
366.518	2852
366.602	2925
366.685	2421
366.769	2212
366.852	2622
366.936	2343
367.019	2008
367.103	1084
367.186	3713
367.270	2442
367.353	2406
367.436	3399
367.520	2379
367.603	3910
367.687	2183
367.770	2103
367.853	4033
367.937	3080
368.020	3693
368.104	1737
368.187	3328
368.270	2357
368.353	2663
368.437	2506
368.520	2161
368.603	2239
368.687	1360
368.770	2211
368.853	1427
368.936	2561
369.020	3091
369.103	2125
369.186	2357
369.269	1677
369.352	2946
369.436	1185
369.519	2411
369.602	995
369.685	2820
369.768	1208
369.851	2573
369.934	2027
370.018	1609
370.101	499
370.184	3501
370.267	2783
370.350	1371
370.433	1903
370.516	3541
370.599	6599
370.682	1629
370.765	2880
370.848	3125
370.931	1609
371.014	3531
371.097	1119
371.180	3108
371.263	2373
371.346	1265
371.429	2680
371.511	1168
371.594	1064
371.677	2591
371.760	2984
371.843	1860
371.926	3867
372.009	5989
372.091	5525
372.174	1989
372.257	3267
372.340	1359
372.423	1873
372.505	3189
372.588	1758
372.671	2797
372.754	2109
372.836	2674
372.919	2697
373.002	2822
373.085	1557
373.167	2553
373.250	1525
373.332	3158
373.415	4592
373.498	5216
373.580	4839
373.663	9047
373.746	9281
373.828	3692
373.911	3702
373.993	1489
374.076	2257
374.159	2013
374.241	2983
374.324	3091
374.406	3906
374.489	2849
374.571	6107
374.654	3469
374.736	2945
374.819	3394
374.901	6234
374.983	5757
375.066	3726
375.148	2896
375.231	3198
375.313	3682
375.395	3258
375.478	3266
375.560	3678
375.643	3682
375.725	3754
375.807	3293
375.890	5694
375.972	1488
376.054	3201
376.136	2571
376.219	2228
376.301	2573
376.383	2931
376.465	3040
376.548	2541
376.630	2592
376.712	3780
376.794	2527
376.877	2445
376.959	1577
377.041	3040
377.123	1645
377.205	3129
377.287	1735
377.369	2249
377.452	2077
377.534	3315
377.616	2798
377.698	2427
377.780	1121
377.862	3169
377.944	3326
378.026	1409
378.108	3091
378.190	3029
378.272	3649
378.354	2859
378.436	2536
378.518	1665
378.600	1985
378.682	2840
378.764	1656
378.846	2510
378.928	2827
379.010	1481
379.091	2846
379.173	2537
379.255	1891
379.337	2317
379.419	2024
379.501	2675
379.583	1999
379.664	2036
379.746	1786
379.828	3195
379.910	1325
379.991	2598
380.073	1299
380.155	2351
380.237	2022
380.318	1513
380.400	1591
380.482	1769
380.564	1882
380.645	1856
380.727	1950
380.809	3116
380.890	1159
380.972	1031
381.053	1521
381.135	2278
381.217	1376
381.298	2485
381.380	1181
381.461	1929
381.543	2100
381.624	3037
381.706	1464
381.787	2563
381.869	1909
381.951	2657
382.032	3669
382.113	5353
382.195	1307
382.276	3274
382.358	1666
382.439	2742
382.521	2968
382.602	4259
382.684	3538
382.765	2766
382.846	3570
382.928	5358
383.009	3094
383.090	3347
383.172	6066
383.253	9546
383.334	3712
383.416	3429
383.497	3296
383.578	3008
383.659	2821
383.741	6270
383.822	15117
383.903	6993
383.984	2417
384.066	5434
384.147	2742
384.228	3698
384.309	3551
384.390	3278
384.471	2687
384.553	2057
384.634	2374
384.715	3033
384.796	2539
384.877	2386
384.958	3159
385.039	1211
385.120	2334
385.201	2992
385.282	2387
385.363	3101
385.444	3085
385.525	3243
385.606	2572
385.687	3975
385.768	3498
385.849	3842
385.930	5162
386.011	7042
386.092	3848
386.173	4137
386.254	3238
386.335	4623
386.416	2971
386.496	3577
386.577	3949
386.658	3485
386.739	2977
386.820	4471
386.901	3129
386.981	4172
387.062	4733
387.143	3550
387.224	5542
387.304	7513
387.385	7638
387.466	5641
387.547	7372
387.627	6315
387.708	6884
387.789	6787
387.869	6187
387.950	5868
388.031	4065
388.111	2548
388.192	4349
388.273	4840
388.353	4383
388.434	3443
388.514	3229
388.595	4647
388.676	4099
388.756	3880
388.837	3251
388.917	3812
388.998	1859
389.078	4169
389.159	3949
389.239	2108
389.320	4734
389.400	1898
389.480	3998
389.561	2342
389.641	3571
389.722	3141
389.802	2095
389.883	3734
389.963	4292
390.043	2668
390.124	1770
390.204	3771
390.284	3490
390.365	2531
390.445	3763
390.525	3048
390.605	3209
390.686	2006
390.766	3602
390.846	4183
390.927	2314
391.007	1370
391.087	3514
391.167	2584
391.247	2843
391.328	3263
391.408	3850
391.488	3834
391.568	1068
391.648	3234
391.728	4588
391.808	4832
391.888	4005
391.969	3660
392.049	2721
392.129	4792
392.209	3857
392.289	6467
392.369	5041
392.449	5428
392.529	4761
392.609	6911
392.689	7059
392.769	6879
392.849	8008
392.929	11717
393.009	13870
393.089	20466
393.169	33765
393.248	68144
393.328	138990
393.408	144407
393.488	74741
393.568	35113
393.648	19546
393.728	12683
393.807	8630
393.887	8974
393.967	6816
394.047	5375
394.127	4014
394.206	4716
394.286	4041
394.366	2935
394.446	4590
394.525	3369
394.605	3450
394.685	3869
394.764	4978
394.844	7581
394.924	11129
395.003	5579
395.083	3657
395.163	2985
395.242	2468
395.322	3366
395.402	1938
395.481	4899
395.561	3024
395.640	12085
395.720	26074
395.799	12938
395.879	4013
395.958	4083
396.038	3941
396.117	3912
396.197	4641
396.276	5231
396.356	5440
396.435	7028
396.515	9202
396.594	13352
396.673	25785
396.753	62674
396.832	128143
396.912	100571
396.991	38434
397.070	18738
397.150	11156
397.229	10902
397.308	19877
397.388	38214
397.467	20090
397.546	8265
397.625	3491
397.705	6344
397.784	4880
397.863	4192
397.942	4107
398.022	3609
398.101	3121
398.180	4556
398.259	3008
398.338	3989
398.417	2460
398.497	2541
398.576	4308
398.655	2055
398.734	2583
398.813	2516
398.892	2808
398.971	2355
399.050	1774
399.129	1509
399.208	3025
399.287	3615
399.366	1690
399.445	2845
399.524	2714
399.603	878
399.682	2870
399.761	2160
399.840	3060
399.919	2064
399.998	2232
400.077	1489
400.156	1905
400.235	4580
400.313	1770
400.392	778
400.471	3623
400.550	2843
400.629	1670
400.708	2111
400.786	1591
400.865	1660
400.944	911
401.023	3906
401.102	1710
401.180	1865
401.259	1412
401.338	1505
401.416	2050
401.495	1413
401.574	2205
401.652	1355
401.731	2429
401.810	1436
401.888	1148
401.967	1945
402.046	1378
402.124	2388
402.203	1180
402.281	1456
402.360	799
402.438	2309
402.517	5
402.596	1855
402.674	1125
402.753	1514
402.831	2323
402.910	2821
402.988	1811
403.066	5916
403.145	4744
403.223	2916
403.302	4139
403.380	4906
403.459	3981
403.537	2894
403.615	1594
403.694	493
403.772	2197
403.850	2129
403.929	1280
404.007	399
404.085	2922
404.164	1124
404.242	1104
404.320	2629
404.398	1855
404.477	554
404.555	2861
404.633	2553
404.711	1488
404.789	2096
404.868	1072
404.946	1712
405.024	1238
405.102	985
405.180	916
405.258	952
405.336	1249
405.415	927
405.493	2072
405.571	1770
405.649	382
405.727	549
405.805	2404
405.883	1427
405.961	2618
406.039	444
406.117	-70
406.195	1837
406.273	-79
406.351	2603
406.429	2325
406.507	260
406.585	2
406.663	1299
406.740	1151
406.818	952
406.896	989
406.974	2525
407.052	155
407.130	1846
407.208	2369
407.285	2440
407.363	906
407.441	1610
407.519	1513
407.596	1316
407.674	4932
407.752	20173
407.830	15702
407.907	3452
407.985	536
408.063	1888
408.141	599
408.218	2532
408.296	304
408.373	1413
408.451	2354
408.529	2761
408.606	1823
408.684	2855
408.762	2032
408.839	2716
408.917	2903
408.994	2432
409.072	2799
409.149	4414
409.227	6372
409.304	8139
409.382	8667
409.459	10535
409.537	14557
409.614	12037
409.692	8828
409.769	8387
409.846	13170
409.924	16229
410.001	9907
410.079	8081
410.156	6169
410.233	5366
410.311	3945
410.388	3886
410.465	3654
410.543	2452
410.620	3755
410.697	3631
410.775	3852
410.852	2476
410.929	4049
411.006	4341
411.083	3234
411.161	3308
411.238	2867
411.315	2249
411.392	2796
411.469	3211
411.547	2780
411.624	1214
411.701	2275
411.778	2132
411.855	1957
411.932	1384
412.009	1799
412.086	1762
412.163	2125
412.240	1724
412.317	2284
412.394	2244
412.471	2451
412.548	1522
412.625	1797
412.702	2086
412.779	1245
412.856	1976
412.933	1687
413.010	2028
413.087	1821
413.164	1575
413.241	1488
413.318	1185
413.395	1817
413.471	1021
413.548	1942
413.625	1978
413.702	798
413.779	940
413.855	2008
413.932	1002
414.009	337
414.086	1222
414.162	2276
414.239	1451
414.316	1410
414.393	2606
414.469	1172
414.546	1194
414.623	1332
414.699	1670
414.776	866
414.853	1289
414.929	1991
415.006	489
415.082	1657
415.159	1254
415.236	996
415.312	1706
415.389	1008
415.465	-163
415.542	1593
415.618	-79
415.695	1516
415.771	1133
415.848	1479
415.924	1625
416.000	465
416.077	1405
416.153	852
416.230	311
416.306	993
416.383	1685
416.459	939
416.535	876
416.612	1146
416.688	662
416.764	395
416.841	912
416.917	1336
416.993	1638
417.069	1101
417.146	-290
417.222	852
417.298	622
417.374	984
417.451	1241
417.527	997
417.603	1166
417.679	1303
417.755	2145
417.831	172
417.908	1485
417.984	1257
418.060	330
418.136	1305
418.212	296
418.288	988
418.364	1934
418.440	-56
418.516	1473
418.592	175
418.668	1080
418.744	596
418.820	833
418.896	809
418.972	596
419.048	749
419.124	2068
419.200	794
419.276	977
419.352	915
419.428	1545
419.504	1331
419.579	1717
419.655	1403
419.731	2105
419.807	1681
419.883	1762
419.959	2615
420.034	2500
420.110	1995
420.186	1964
420.262	3298
420.337	2325
420.413	3358
420.489	3721
420.565	4198
420.640	3507
420.716	4641
420.792	3174
420.867	5117
420.943	4153
421.019	4610
421.094	4830
421.170	5965
421.245	5781
421.321	7669
421.397	7985
421.472	12297
421.548	21574
421.623	17833
421.699	12144
421.774	13738
421.850	13878
421.925	17805
422.001	20751
422.076	24705
422.152	30130
422.227	38040
422.302	49950
422.378	63387
422.453	82869
422.529	103413
422.604	99533
422.679	73223
422.755	95198
422.830	110589
422.905	91196
422.981	70452
423.056	55079
423.131	45381
423.207	34784
423.282	28407
423.357	23406
423.432	18887
423.508	17348
423.583	13458
423.658	12588
423.733	11286
423.808	10810
423.883	10016
423.959	10294
424.034	10488
424.109	10526
424.184	7764
424.259	6285
424.334	6361
424.409	5258
424.484	5113
424.559	3926
424.634	4067
424.709	4205
424.784	4454
424.859	3515
424.934	3209
425.009	3928
425.084	3644
425.159	3220
425.234	3607
425.309	2758
425.384	3125
425.459	2445
425.534	3257
425.609	1781
425.683	2547
425.758	2995
425.833	2411
425.908	3078
425.983	1772
426.058	2839
426.132	1829
426.207	1928
426.282	2838
426.357	967
426.431	1687
426.506	2545
426.581	2037
426.655	1777
426.730	2084
426.805	1182
426.879	2686
426.954	957
427.029	1552
427.103	1995
427.178	2320
427.253	1913
427.327	1483
427.402	947
427.476	1861
427.551	1426
427.625	1542
427.700	1601
427.774	842
427.849	1827
427.923	1616
427.998	1241
428.072	2272
428.147	4382
428.221	13555
428.296	43359
428.370	26532
428.444	5994
428.519	2722
428.593	1838
428.667	2491
428.742	1736
428.816	5876
428.890	24614
428.965	40545
429.039	12814
429.113	2077
429.188	1690
429.262	608
429.336	2187
429.410	1113
429.485	1142
429.559	1582
429.633	1880
429.707	2244
429.781	4937
429.855	23939
429.930	36344
430.004	11783
430.078	6906
430.152	17734
430.226	54515
430.300	58458
430.374	16327
430.448	6471
430.522	3638
430.596	3502
430.670	7979
430.744	31386
430.818	37278
430.892	8989
430.966	2207
431.040	1922
431.114	867
431.188	266
431.262	1210
431.336	429
431.410	1004
431.484	232
431.557	2263
431.631	747
431.705	2550
431.779	11127
431.853	41019
431.927	31509
432.000	6214
432.074	2041
432.148	761
432.222	462
432.295	519
432.369	247
432.443	131
432.516	-5
432.590	260
432.664	27
432.737	431
432.811	136
432.885	-167
432.958	677
433.032	177
433.106	33
433.179	139
433.253	174
433.326	-31
433.400	-101
433.473	485
433.547	90
433.620	300
433.694	-145
433.767	85
433.841	-221
433.914	39
433.988	53
434.061	420
434.134	-5
434.208	718
434.281	351
434.355	309
434.428	625
434.501	-465
434.575	-123
434.648	552
434.721	-49
434.795	-115
434.868	204
434.941	-159
435.014	121
435.088	480
435.161	962
435.234	548
435.307	709
435.381	1300
435.454	3120
435.527	5789
435.600	6913
435.673	5594
435.746	4521
435.819	2714
435.892	1766
435.966	1299
436.039	616
436.112	1809
436.185	1133
436.258	208
436.331	437
436.404	719
436.477	57
436.550	-27
436.623	521
436.696	815
436.769	614
436.842	10
436.915	-58
436.987	13
437.060	-319
437.133	-937
437.206	-604
437.279	-383
437.352	307
437.425	-270
437.498	-187
437.570	257
437.643	-7
437.716	432
437.789	-351
437.861	243
437.934	39
438.007	55
438.080	-360
438.152	81
438.225	-87
438.298	67
438.370	1846
438.443	1114
438.516	-60
438.588	1174
438.661	178
438.734	374
438.806	-118
438.879	65
438.951	541
439.024	-349
439.096	-535
439.169	185
439.241	-366
439.314	-68
439.386	-361
439.459	269
439.531	-82
439.604	653
439.676	1174
439.749	331
439.821	-123
439.893	382
439.966	-98
440.038	4
440.110	148
440.183	-521
440.255	209
440.327	557
440.400	337
440.472	938
440.544	566
440.617	556
440.689	1299
440.761	113
440.833	434
440.905	586
440.978	741
441.050	520
441.122	833
441.194	-659
441.266	104
441.338	-220
441.411	723
441.483	983
441.555	1092
441.627	482
441.699	893
441.771	876
441.843	518
441.915	1230
441.987	959
442.059	636
442.131	894
442.203	1644
442.275	2636
442.347	4678
442.419	8831
442.491	35378
442.563	74179
442.635	38369
442.706	9946
442.778	5045
442.850	2597
442.922	2942
442.994	2305
443.066	2414
443.137	3641
443.209	4598
443.281	8233
443.353	15991
443.425	42353
443.496	98804
443.568	108314
443.640	58117
443.711	19019
443.783	8308
443.855	5107
443.926	4005
443.998	2774
444.070	2359
444.141	2340
444.213	1057
444.285	1599
444.356	1597
444.428	1789
444.499	451
444.571	1169
444.642	1466
444.714	510
444.785	1308
444.857	2686
444.928	2619
445.000	3082
445.071	4850
445.143	5024
445.214	8233
445.285	13554
445.357	30115
445.428	73727
445.500	119241
445.571	105535
445.642	81467
445.714	37344
445.785	14326
445.856	6415
445.928	4042
445.999	2987
446.070	2717
446.141	1229
446.213	2354
446.284	872
446.355	722
446.426	857
446.497	898
446.569	-169
446.640	363
446.711	740
446.782	458
446.853	453
446.924	116
446.995	533
447.066	144
447.138	173
447.209	151
447.280	-446
447.351	162
447.422	81
447.493	-699
447.564	-754
447.635	-589
447.706	26
447.777	782
447.847	576
447.918	-1076
447.989	-194
448.060	-441
448.131	-346
448.202	-195
448.273	-717
448.344	-138
448.414	-381
448.485	-481
448.556	-360
448.627	-418
448.698	662
448.768	-385
448.839	201
448.910	-730
448.981	-379
449.051	-532
449.122	-691
449.193	-765
449.263	-344
449.334	-715
449.405	-614
449.475	-185
449.546	-519
449.616	-160
449.687	-213
449.758	-380
449.828	-877
449.899	-913
449.969	-1303
450.040	-441
450.110	-479
450.181	-1004
450.251	-1126
450.322	-416
450.392	-522
450.463	-277
450.533	-829
450.604	-312
450.674	-296
450.744	345
450.815	-567
450.885	1067
450.955	502
451.026	-10
451.096	-191
451.166	-207
451.237	295
451.307	1490
451.377	1536
451.447	-41
451.518	356
451.588	-465
451.658	-615
451.728	-562
451.799	-296
451.869	130
451.939	-257
452.009	-394
452.079	-456
452.149	-265
452.219	274
452.289	-429
452.360	122
452.430	188
452.500	1672
452.570	1848
452.640	6255
452.710	16646
452.780	20132
452.850	11612
452.920	4938
452.990	3069
453.060	2185
453.129	238
453.199	503
453.269	21
453.339	404
453.409	784
453.479	1094
453.549	243
453.619	-69
453.688	-461
453.758	261
453.828	-238
453.898	-34
453.968	-199
454.037	456
454.087	-432
454.107	-803
454.168	-330
454.177	-271
454.247	-121
454.249	-148
454.316	-1065
454.330	-950
454.386	-530
454.411	-592
454.456	-760
454.492	-468
454.525	-194
454.574	-103
454.595	-86
454.655	-357
454.665	-403
454.734	-409
454.736	-387
454.804	47
454.817	62
454.873	101
454.898	-30
454.943	-259
454.979	-665
455.013	-1070
455.060	-46
455.082	380
455.141	298
455.152	289
455.221	-262
455.222	-246
455.291	281
455.303	342
455.360	587
455.384	896
455.430	1382
455.465	1054
455.499	756
455.546	48
455.569	-317
455.627	98
455.638	178
455.707	148
455.708	157
455.777	102
455.789	143
455.846	413
455.869	451
455.916	484
455.950	372
455.985	205
456.031	104
456.054	41
456.112	-76
456.124	-88
456.193	-453
456.193	-464
456.262	-2
456.274	153
456.332	869
456.355	685
456.401	282
456.436	486
456.470	667
456.516	661
456.540	628
456.597	439
456.609	419
456.678	610
456.678	600
456.747	58
456.759	175
456.817	778
456.840	580
456.886	141
456.920	731
456.955	1344
457.001	990
457.024	748
457.082	735
457.093	746
457.162	726
457.163	736
457.232	1256
457.243	1371
457.301	1562
457.324	1322
457.370	1167
457.405	1458
457.439	1541
457.485	1285
457.508	1265
457.566	1981
457.577	2195
457.646	3481
457.647	3517
457.715	8429
457.727	9329
457.784	16340
457.808	22467
457.853	30573
457.889	38006
457.922	39798
457.969	28522
457.991	28234
458.050	28506
458.060	28890
458.129	48962
458.130	49636
458.198	56591
458.211	52372
458.267	34827
458.292	25190
458.336	14949
458.372	12990
458.405	15059
458.453	20674
458.474	25713
458.533	46817
458.543	48506
458.611	78280
458.614	78840
458.680	58885
458.694	48792
458.749	25612
458.775	18482
458.818	10164
458.855	7997
458.887	6488
458.936	4914
458.955	4340
459.016	3558
459.024	3501
459.093	3327
459.097	3321
459.162	2403
459.177	2422
459.230	2780
459.257	2584
459.299	2479
459.338	2704
459.368	2654
459.418	2005
459.437	1731
459.499	1638
459.505	1682
459.574	2006
459.579	2010
459.643	1632
459.659	1618
459.711	1824
459.740	1985
459.780	2027
459.820	1828
459.849	1765
459.900	1622
459.917	1686
459.981	2162
459.986	2114
460.054	1492
460.061	1479
460.123	2253
460.141	2392
460.191	2268
460.222	2256
460.260	2363
460.302	2167
460.328	2111
460.382	2707
460.397	2943
460.462	3665
460.465	3797
460.534	6995
460.543	7403
460.602	21523
460.623	27346
460.671	43757
460.703	59300
460.739	55742
460.783	46264
460.808	40269
460.864	12253
460.876	9606
460.944	3704
460.945	3653
461.013	2538
461.024	2526
461.081	2385
461.104	2390
461.150	2130
461.184	2010
461.218	2054
461.264	1857
461.286	1924
461.345	2153
461.355	2091
461.423	2041
461.425	2031
461.491	1702
461.505	1750
461.559	2005
461.585	1907
461.628	1742
461.665	1660
461.696	1797
461.745	2293
461.764	2174
461.825	1566
461.832	1636
461.901	2103
461.905	2168
461.969	2287
461.985	2239
462.037	2638
462.065	2776
462.105	2187
462.145	1737
462.173	1886
462.225	2203
462.241	2117
462.305	1522
462.310	1531
462.378	1965
462.385	2017
462.446	2138
462.465	2071
462.514	1936
462.545	1969
462.582	1938
462.625	1947
462.650	1886
462.705	1539
462.718	1599
462.785	1846
462.786	1836
462.854	1560
462.865	1488
462.922	1643
462.945	1710
462.990	2196
463.025	2498
463.058	2518
463.104	2594
463.126	2404
463.184	1847
463.194	1879
463.262	1716
463.264	1734
463.330	2044
463.344	2052
463.398	2366
463.424	2482
463.466	2268
463.504	2184
463.533	2323
463.583	2287
463.601	2233
463.663	2334
463.669	2271
463.737	1212
463.743	1149
463.805	1746
463.823	1831
463.873	1757
463.903	1747
463.940	1781
463.982	1778
464.008	1900
464.062	2343
464.076	2378
464.142	2377
464.144	2377
464.211	2225
464.221	2204
464.279	1900
464.301	1731
464.347	1966
464.381	2189
464.414	2025
464.461	1847
464.482	1962
464.540	2311
464.550	2291
464.617	1850
464.620	1833
464.685	1983
464.699	2073
464.753	2590
464.779	2716
464.820	2361
464.859	2210
464.888	1937
464.938	1337
464.956	1812
465.018	3358
465.023	3302
465.091	2626
465.098	2566
465.158	2499
465.177	2442
465.226	2187
465.257	1983
465.293	2258
465.336	2646
465.361	2771
465.416	2994
465.428	2886
465.495	2249
465.496	2250
465.563	1679
465.575	1593
465.631	2453
465.654	2849
465.698	2820
465.734	2669
465.765	2350
465.813	2030
465.833	2083
465.893	2076
465.900	2086
465.968	2190
465.972	2183
466.035	2213
466.052	2297
466.102	2249
466.131	2093
466.170	2322
466.210	2643
466.237	2451
466.290	2015
466.304	2027
466.369	1982
466.372	1984
466.439	2027
466.449	2026
466.506	2455
466.528	2590
466.573	2553
466.607	2510
466.641	2648
466.687	2915
466.708	2921
466.766	2837
466.775	2867
466.842	3063
466.845	3069
466.909	2335
466.925	2144
466.977	3058
467.004	3555
467.044	3305
467.083	3021
467.111	3170
467.163	3451
467.178	3502
467.242	3685
467.245	3637
467.312	2532
467.321	2384
467.379	2403
467.400	2402
467.446	2949
467.480	3339
467.559	3375
467.638	2837
467.717	2406
467.796	4195
467.875	3662
467.955	2853
468.034	3396
468.113	3699
468.192	4382
468.271	6180
468.350	8417
468.429	12968
468.508	14139
468.588	8473
468.667	5491
468.746	3451
468.825	3534
468.904	3104
468.983	2850
469.062	2923
469.141	3340
469.220	2971
469.299	3131
469.378	2079
469.456	3629
469.535	2774
469.614	2031
469.693	2867
469.772	3449
469.851	2555
469.930	3617
470.009	3162
470.088	2420
470.166	3706
470.245	2817
470.324	2840
470.403	3231
470.482	3224
470.560	3727
470.639	2691
470.718	2833
470.797	2717
470.875	2402
470.954	2317
471.033	3426
471.111	2327
471.190	2712
471.269	2345
471.347	2834
471.426	2648
471.505	2929
471.583	2778
471.662	3344
471.740	2535
471.819	2881
471.898	2305
471.976	2707
472.055	3126
472.133	3919
472.212	5885
472.290	2897
472.369	2462
472.447	2171
472.526	3366
472.604	2987
472.683	3160
472.761	2347
472.839	3125
472.918	2929
472.996	2297
473.075	3791
473.153	3118
473.231	2372
473.310	3686
473.388	3248
473.466	2804
473.545	2005
473.623	2401
473.701	2666
473.780	4287
473.858	2878
473.936	4262
474.014	2995
474.093	3719
474.171	4922
474.249	4031
474.327	3161
474.405	2861
474.484	3559
474.562	3432
474.640	2677
474.718	2376
474.796	2050
474.874	3583
474.952	1687
475.030	2805
475.108	2788
475.187	3066
475.265	4119
475.343	3929
475.421	2918
475.499	2956
475.577	3493
475.655	3714
475.733	3272
475.811	2025
475.889	2418
475.966	3812
476.044	3370
476.122	2973
476.200	2870
476.278	2863
476.356	3360
476.434	2849
476.512	3130
476.590	3446
476.667	3287
476.745	3089
476.823	2973
476.901	2341
476.979	3374
477.056	2889
477.134	2466
477.212	3665
477.290	2788
477.367	2394
477.445	2752
477.523	2272
477.601	2410
477.678	2696
477.756	3215
477.834	3611
477.911	3216
477.989	2991
478.066	2825
478.144	2325
478.222	2729
478.299	3104
478.377	4752
478.454	4497
478.532	3281
478.609	2734
478.687	3459
478.764	2902
478.842	2677
478.919	2589
478.997	3843
479.074	2474
479.152	2873
479.229	3044
479.307	2188
479.384	3110
479.461	3125
479.539	2203
479.616	3376
479.694	2644
479.771	2986
479.848	2381
479.926	1552
480.003	4605
480.080	3507
480.157	3772
480.235	2747
480.312	2720
480.389	2492
480.467	2551
480.544	3313
480.621	2794
480.698	4217
480.775	2735
480.853	3528
480.930	3313
481.007	3494
481.084	5955
481.161	10559
481.238	6495
481.315	2964
481.392	2677
481.470	2485
481.547	3025
481.624	2708
481.701	3517
481.778	1952
481.855	2748
481.932	3584
482.009	3649
482.086	3478
482.163	4662
482.240	4941
482.317	4920
482.393	3846
482.470	3136
482.547	4252
482.624	2698
482.701	3665
482.778	3045
482.855	1740
482.932	3695
483.009	3729
483.085	5464
483.162	8558
483.239	9165
483.316	4553
483.393	5350
483.469	4255
483.546	3400
483.623	4153
483.699	3459
483.776	3102
483.853	2848
483.930	2704
484.006	2694
484.083	3610
484.160	2891
484.236	4234
484.313	2842
484.389	2943
484.466	3787
484.543	4574
484.619	6244
484.696	8570
484.772	5420
484.849	3135
484.925	3196
485.002	3317
485.078	2890
485.155	3304
485.231	3093
485.308	2445
485.384	3216
485.461	3300
485.537	2709
485.614	3193
485.690	2680
485.766	1800
485.843	1625
485.919	2920
485.995	3136
486.072	3470
486.148	2723
486.224	2366
486.301	2419
486.377	2623
486.453	2136
486.530	3231
486.606	3256
486.682	3385
486.758	3681
486.835	3728
486.911	3452
486.987	3513
487.063	4482
487.139	5687
487.215	9102
487.292	9025
487.368	7212
487.444	8147
487.520	13192
487.596	20780
487.672	41718
487.748	134731
487.824	207309
487.900	66790
487.976	17555
488.052	9598
488.128	7066
488.204	4926
488.280	4967
488.356	3655
488.432	3658
488.508	3552
488.584	2805
488.660	2598
488.736	2780
488.812	1807
488.888	2861
488.964	2847
489.039	2169
489.115	3509
489.191	4007
489.267	3188
489.343	2373
489.418	2369
489.494	2011
489.570	1366
489.646	3894
489.722	2507
489.797	2768
489.873	2721
489.949	2329
490.024	2497
490.100	2662
490.176	2609
490.251	2206
490.327	2882
490.403	2174
490.478	2880
490.554	2551
490.629	1875
490.705	2374
490.781	2608
490.856	3136
490.932	3787
491.007	2604
491.083	2562
491.158	2579
491.234	1923
491.309	2421
491.385	1488
491.460	1662
491.536	3175
491.611	2634
491.686	2547
491.762	2369
491.837	2532
491.913	3025
491.988	2714
492.063	1149
492.139	1924
492.214	2519
492.289	2215
492.365	1182
492.440	2197
492.515	1691
492.590	2035
492.666	1898
492.741	2604
492.816	2206
492.891	1419
492.967	1681
493.042	1503
493.117	1837
493.192	2796
493.267	2716
493.342	2397
493.418	3594
493.493	2336
493.568	1996
493.643	1333
493.718	1871
493.793	1779
493.868	1319
493.943	1858
494.018	3250
494.093	1384
494.168	2394
494.243	1387
494.318	2191
494.393	2373
494.468	1571
494.543	2569
494.618	2347
494.693	2387
494.768	1690
494.842	2315
494.917	2105
494.992	2376
495.067	2394
495.142	2352
495.217	1657
495.292	2211
495.366	1695
495.441	1555
495.516	2494
495.591	1891
495.665	2169
495.740	3675
495.815	2470
495.890	1803
495.964	385
496.039	4209
496.114	3140
496.188	8992
496.263	6920
496.338	2700
496.412	1521
496.487	2586
496.561	2438
496.636	1566
496.710	1819
496.785	3525
496.860	1835
496.934	969
497.009	2303
497.083	1216
497.158	1927
497.232	1880
497.307	2062
497.381	1321
497.455	1439
497.530	1934
497.604	1516
497.679	2005
497.753	2345
497.827	595
497.902	1345
497.976	2356
498.050	2545
498.125	1792
498.199	1524
498.273	1893
498.348	1967
498.422	2693
498.496	1545
498.570	2294
498.645	2586
498.719	867
498.793	1514
498.867	2135
498.941	2014
499.016	1560
499.090	1423
499.164	2236
499.238	1781
499.312	2272
499.386	1727
499.460	1917
499.534	2094
499.609	1727
499.683	916
499.757	2613
499.831	1340
499.905	1096
499.979	1125
500.053	1917
500.127	2060
500.201	1233
500.275	2047
500.349	1758
500.422	1800
500.496	1601
500.570	1875
500.644	1888
500.718	2404
500.792	2976
500.866	2423
500.940	2261
501.013	2741
501.087	1964
501.161	1228
501.235	1156
501.309	2537
501.382	1675
501.456	2459
501.530	1958
501.603	1628
501.677	1433
501.751	1782
501.825	2366
501.898	1694
501.972	2634
502.046	787
502.119	1334
502.193	1921
502.266	1678
502.340	1775
502.413	2133
502.487	2115
502.561	1215
502.634	1799
502.708	1981
502.781	499
502.855	2557
502.928	1133
503.002	1875
503.075	1389
503.149	2031
503.222	2171
503.295	946
503.369	2314
503.442	2832
503.516	2593
503.589	2008
503.662	3253
503.736	4326
503.809	6701
503.882	7269
503.956	11589
504.029	23736
504.102	74423
504.175	114554
504.249	39976
504.322	13672
504.395	7720
504.468	5408
504.542	3648
504.615	2176
504.688	3570
504.761	1208
504.834	3030
504.907	2089
504.980	1563
505.053	1681
505.127	-191
505.200	4124
505.273	1241
505.346	2515
505.419	977
505.492	1568
505.565	949
505.638	2435
505.711	1022
505.784	1003
505.857	1108
505.930	2773
506.003	-672
506.076	2892
506.149	-12
506.221	122
506.294	2484
506.367	-532
506.440	1502
506.513	2123
506.586	1623
506.659	1531
506.731	806
506.804	1293
506.877	436
506.950	674
507.022	2261
507.095	377
507.168	1104
507.241	1704
507.313	1700
507.386	218
507.459	2717
507.531	681
507.604	213
507.677	1824
507.749	-521
507.822	2492
507.894	624
507.967	2412
508.040	-252
508.112	2199
508.185	2395
508.257	-519
508.330	1899
508.402	1308
508.475	697
508.547	1588
508.620	762
508.692	1253
508.765	1410
508.837	949
508.909	2341
508.982	776
509.054	1377
509.127	1679
509.199	1311
509.271	185
509.344	234
509.416	583
509.488	446
509.560	1511
509.633	508
509.705	1505
509.777	917
509.849	1349
509.922	714
509.994	589
510.066	1482
510.138	7
510.210	3138
510.283	562
510.355	1134
510.427	1235
510.499	1614
510.571	522
510.643	-372
510.715	2418
510.787	-21
510.859	2628
510.931	421
511.003	808
511.076	1473
511.148	129
511.219	621
511.291	1721
511.363	1570
511.435	391
511.507	1007
511.579	1458
511.651	1765
511.723	477
511.795	659
511.867	230
511.939	2401
512.010	67
512.082	1424
512.154	-354
512.226	873
512.298	2520
512.369	123
512.441	1766
512.513	1187
512.585	-411
512.656	1227
512.728	564
512.800	1387
512.871	1332
512.943	1639
513.015	-272
513.086	1766
513.158	1260
513.230	-656
513.301	390
513.373	1613
513.444	641
513.516	984
513.588	1136
513.659	1922
513.731	971
513.802	1050
513.874	3086
513.945	1385
514.016	495
514.088	1223
514.159	-248
514.231	2131
514.302	819
514.374	1176
514.445	-423
514.516	3095
514.588	447
514.659	520
514.730	937
514.802	2714
514.873	-988
514.944	3247
515.016	1513
515.087	572
515.158	1397
515.229	1833
515.301	113
515.372	1604
515.443	990
515.514	1340
515.585	1097
515.656	2367
515.728	1971
515.799	562
515.870	1886
515.941	938
516.012	-256
516.083	1900
516.154	1311
516.225	2729
516.296	2314
516.367	1221
516.438	958
516.509	702
516.580	1723
516.651	4604
516.722	6788
516.793	4126
516.864	1457
516.935	2097
517.006	2511
517.077	1591
517.148	3195
517.219	11443
517.289	15695
517.360	1943
517.431	2575
517.502	313
517.573	2016
517.643	1186
517.714	1073
517.785	1967
517.856	996
517.926	3006
517.997	3105
518.068	1472
518.138	4822
518.209	3574
518.280	9956
518.350	31803
518.421	13381
518.492	8463
518.562	8545
518.633	12588
518.703	18936
518.774	48962
518.845	130400
518.915	125876
518.986	32778
519.056	12838
519.127	8115
519.197	5217
519.268	2994
519.338	5165
519.408	3184
519.479	2681
519.549	1802
519.620	3524
519.690	2338
519.760	2101
519.831	1540
519.901	2181
519.971	2125
520.042	1367
520.112	654
520.182	1567
520.253	2391
520.323	1347
520.393	-312
520.463	3556
520.534	-800
520.604	3276
520.674	2611
520.744	1545
520.814	1296
520.885	1476
520.955	1509
521.025	597
521.095	933
521.165	2974
521.235	1187
521.305	837
521.375	1956
521.445	2313
521.515	1220
521.585	1611
521.655	19
521.725	2100
521.795	1416
521.865	-743
521.935	2547
522.005	657
522.075	621
522.145	2976
522.215	1521
522.285	1685
522.355	1040
522.424	2625
522.494	1176
522.564	1013
522.634	1831
522.704	3611
522.774	892
522.843	2394
522.913	2890
522.983	962
523.053	1635
523.122	2861
523.192	428
523.262	1042
523.331	1219
523.401	1778
523.471	1373
523.540	2337
523.610	1926
523.680	1527
523.749	2234
523.819	4018
523.888	3078
523.958	1902
524.027	1905
524.097	2695
524.166	810
524.236	435
524.305	4327
524.375	1761
524.444	1671
524.514	2482
524.583	671
524.653	731
524.722	1622
524.791	1297
524.861	3798
524.930	1006
524.999	729
525.069	2904
525.138	2134
525.207	1672
525.277	3363
525.346	2070
525.415	4211
525.484	3682
525.554	3881
525.623	6183
525.692	8864
525.761	8744
525.830	11226
525.900	14087
525.969	21568
526.038	42499
526.107	83244
526.176	242078
526.245	188248
526.314	54710
526.383	119953
526.452	161124
526.522	225176
526.591	207102
526.660	34624
526.729	20129
526.797	22303
526.867	30140
526.935	86513
527.004	336175
527.073	213859
527.142	29480
527.211	12140
527.280	8975
527.349	7443
527.418	3711
527.487	5164
527.555	3073
527.624	3049
527.693	2190
527.762	3639
527.831	2098
527.899	2981
527.968	2866
528.037	1006
528.106	3471
528.174	1740
528.243	3069
528.312	2305
528.380	2428
528.449	964
528.518	4610
528.586	1023
528.655	3421
528.723	2431
528.792	2070
528.861	1325
528.929	1001
528.998	2969
529.066	2402
529.135	2592
529.203	1850
529.272	1488
529.340	2793
529.409	3341
529.477	1455
529.545	1154
529.614	4002
529.682	1122
529.751	2361
529.819	4038
529.887	2296
529.956	2225
530.024	3299
530.092	1917
530.161	3147
530.229	1919
530.297	1685
530.365	3608
530.434	2860
530.502	1927
530.570	2881
530.638	1457
530.707	2881
530.775	3654
530.843	2051
530.911	2825
530.979	3435
531.047	1915
531.115	2993
531.183	2877
531.252	2925
531.320	2254
531.388	1270
531.456	2990
531.524	1223
531.592	3421
531.660	4218
531.728	1720
531.796	1894
531.864	2649
531.932	2639
532.000	2836
532.067	2605
532.135	3151
532.203	4104
532.271	2199
532.339	4848
532.407	3714
532.475	4537
532.542	4258
532.610	4064
532.678	2196
532.746	4338
532.814	5677
532.881	3587
532.949	4853
533.017	3663
533.084	3919
533.152	3124
533.220	4047
533.287	2647
533.355	4307
533.423	4457
533.490	2602
533.558	4136
533.625	4862
533.693	3474
533.761	4484
533.828	4777
533.896	2328
533.963	4752
534.031	4830
534.098	6738
534.166	6957
534.233	6802
534.300	9147
534.368	7917
534.435	6833
534.503	8664
534.570	8664
534.637	9357
534.705	11316
534.772	13016
534.840	22967
534.907	102818
534.974	126403
535.041	19347
535.109	9201
535.176	7066
535.243	8398
535.310	7349
535.378	6508
535.445	7198
535.512	7325
535.579	7730
535.646	6675
535.714	6914
535.781	8235
535.848	8208
535.915	7907
535.982	6131
536.049	7727
536.116	8634
536.183	7288
536.250	7532
536.317	6682
536.384	7766
536.451	7493
536.518	8104
536.585	7227
536.652	9465
536.719	7645
536.786	6712
536.853	7522
536.920	8540
536.987	8208
537.053	6228
537.120	8361
537.187	9031
537.254	8369
537.321	8317
537.388	9689
537.454	8780
537.521	7999
537.588	7899
537.654	9559
537.721	9455
537.788	9862
537.855	8566
537.921	8689
537.988	8228
538.055	9089
538.121	7608
538.188	7733
538.254	7487
538.321	7553
538.388	8691
538.454	9818
538.521	10446
538.587	9715
538.654	9753
538.720	8909
538.787	9996
538.853	10108
538.920	8875
538.986	8152
539.053	7084
539.119	8665
539.185	8950
539.252	10007
539.318	8893
539.385	12302
539.451	7884
539.517	9403
539.583	9671
539.650	9091
539.716	8288
539.782	8455
539.849	7610
539.915	9409
539.981	8379
540.047	8054
540.114	8537
540.180	9265
540.246	9223
540.312	10033
540.378	9716
540.444	10712
540.510	10448
540.576	9878
540.643	9260
540.709	9075
540.775	9386
540.841	7992
540.907	9703
540.973	9226
541.039	8645
541.105	8981
541.171	9771
541.237	10008
541.303	10401
541.369	11419
541.435	10466
541.500	9686
541.566	7986
541.632	8996
541.698	9383
541.764	10416
541.830	9349
541.896	8975
541.961	9753
542.027	9110
542.093	10502
542.159	10173
542.224	8374
542.290	9888
542.356	9036
542.421	9896
542.487	9375
542.553	8250
542.618	9107
542.684	9609
542.750	8282
542.815	10340
542.881	8640
542.947	10773
543.012	9885
543.078	8548
543.143	8845
543.209	9326
543.274	8951
543.340	9654
543.405	9097
543.471	8655
543.536	9607
543.602	11156
543.667	9026
543.732	11002
543.798	9371
543.863	10172
543.928	10979
543.994	8936
544.059	10245
544.124	11094
544.190	10856
544.255	11541
544.320	11249
544.386	9935
544.451	11519
544.516	10846
544.581	10700
544.646	11249
544.712	11703
544.777	12241
544.842	11879
544.907	10684
544.972	12521
545.037	11359
545.102	13287
545.168	12957
545.233	13087
545.298	13552
545.363	11299
545.428	13505
545.493	13251
545.558	13357
545.623	13372
545.688	13214
545.753	15351
545.818	14957
545.883	16548
545.947	15541
546.012	16525
546.077	16640
546.142	20109
546.207	18961
546.272	19722
546.337	20495
546.401	22338
546.466	22048
546.531	22601
546.596	24970
546.661	26210
546.725	27283
546.790	28666
546.855	32732
546.919	34967
546.984	39510
547.049	41067
547.113	47547
547.178	53290
547.243	60219
547.307	68816
547.372	77316
547.436	77960
547.501	82870
547.565	88404
547.630	82480
547.695	77340
547.759	77610
547.823	79799
547.888	81062
547.952	83830
548.017	86982
548.081	91538
548.146	88302
548.210	89458
548.274	96908
548.339	97114
548.403	87678
548.468	82835
548.532	80660
548.596	83040
548.660	82326
548.725	90759
548.789	98330
548.853	96443
548.917	92744
548.982	89656
549.046	82312
549.110	73998
549.174	75168
549.238	86625
549.303	96212
549.367	99668
549.431	93493
549.495	88974
549.559	88016
549.623	101358
549.687	112492
549.751	108082
549.815	129278
549.879	133177
549.943	126486
550.007	132144
550.071	131495
550.135	118843
550.199	111844
550.263	113033
550.327	105899
550.391	107438
550.455	122033
550.519	124466
550.582	133428
550.646	147835
550.710	150522
550.774	148194
550.838	151014
550.901	153752
550.965	161934
551.029	166789
551.093	175184
551.156	180436
551.220	189448
551.284	199417
551.347	172556
551.411	158516
551.475	153528
551.538	161783
551.602	156096
551.666	145396
551.729	139488
551.793	137456
551.856	135014
551.920	132291
551.983	132816
552.047	131056
552.110	132932
552.174	133662
552.237	138185
552.301	130314
552.364	123778
552.428	119351
552.491	120650
552.554	125286
552.618	124999
552.681	127081
552.745	121932
552.808	124822
552.871	129423
552.934	129835
552.998	126304
553.061	124046
553.124	120605
553.187	119910
553.251	121936
553.314	123215
553.377	123976
553.440	131922
553.503	137083
553.567	136422
553.630	134715
553.693	134890
553.756	134408
553.819	133760
553.882	129542
553.945	131038
554.008	131432
554.071	131897
554.134	134168
554.197	128329
554.260	125576
554.323	127331
554.386	126766
554.449	132497
554.512	132340
554.575	127230
554.638	126642
554.701	125348
554.764	123974
554.827	121152
554.889	117968
554.952	110804
555.015	107979
555.078	108611
555.141	111524
555.203	108547
555.266	106938
555.329	107836
555.391	104134
555.454	103233
555.517	97992
555.580	94571
555.642	92325
555.705	90823
555.768	89637
555.830	86979
555.893	83419
555.955	81606
556.018	79891
556.080	79552
556.143	82698
556.206	80846
556.268	77418
556.330	76650
556.393	74021
556.455	71451
556.518	70904
556.580	68798
556.643	65895
556.705	64394
556.767	63089
556.830	62845
556.892	62242
556.955	61315
557.017	59020
557.079	58513
557.142	56116
557.204	56168
557.266	53908
557.328	52439
557.391	49942
557.453	48231
557.515	47048
557.577	48751
557.639	47946
557.701	47974
557.764	47235
557.826	47899
557.888	47730
557.950	48435
558.012	51050
558.074	58190
558.136	95881
558.198	189368
558.260	86100
558.322	47430
558.384	46441
558.446	47639
558.508	50211
558.570	53950
558.632	58183
558.694	69409
558.756	103410
558.818	230915
558.880	445581
558.942	206455
559.003	199361
559.065	109318
559.127	54934
559.189	51467
559.251	56064
559.312	71990
559.374	136749
559.436	341030
559.498	190044
559.559	60440
559.621	50778
559.683	55835
559.744	79599
559.806	193347
559.868	266643
559.929	78235
559.991	54964
560.052	75812
560.114	177292
560.176	122600
560.237	109076
560.299	162167
560.360	49480
560.422	26749
560.483	23929
560.545	23374
560.606	21688
560.667	21666
560.729	21134
560.790	19672
560.852	19932
560.913	18397
560.974	18562
561.036	18415
561.097	18971
561.158	18447
561.220	18280
561.281	16696
561.342	16681
561.403	17233
561.465	16951
561.526	16904
561.587	16648
561.648	15463
561.709	16546
561.771	16157
561.832	14750
561.893	15444
561.954	14779
562.015	14071
562.076	14880
562.137	13912
562.198	13730
562.259	14357
562.320	14348
562.381	14579
562.442	14344
562.503	14683
562.564	15069
562.625	13591
562.686	14160
562.747	13333
562.808	13383
562.869	12895
562.930	13603
562.991	12366
563.051	12294
563.112	12225
563.173	12831
563.234	11962
563.294	13118
563.355	11163
563.416	12460
563.477	12137
563.537	11839
563.598	12267
563.659	12264
563.720	12593
563.780	11511
563.841	12199
563.901	12606
563.962	11177
564.023	11207
564.083	12368
564.144	12018
564.204	11407
564.265	11236
564.325	11085
564.386	10895
564.446	11752
564.507	11667
564.567	11268
564.628	10687
564.688	10526
564.749	11084
564.809	11931
564.869	11230
564.930	10803
564.990	10917
565.050	10424
565.111	11042
565.171	10863
565.231	10917
565.292	11540
565.352	10968
565.412	11300
565.472	11221
565.532	11114
565.593	10972
565.653	11099
565.713	10478
565.773	11010
565.833	12242
565.893	11997
565.953	10707
566.013	10709
566.074	10616
566.134	10698
566.194	10244
566.254	10205
566.314	9896
566.374	10396
566.434	10237
566.494	10824
566.554	10015
566.614	11106
566.673	11091
566.733	11839
566.793	10179
566.853	11650
566.913	10992
566.973	11208
567.033	11708
567.092	10484
567.152	11329
567.212	11143
567.272	11911
567.331	11781
567.391	11809
567.451	13145
567.511	12397
567.570	11625
567.630	12340
567.690	11512
567.749	11780
567.809	10920
567.868	12029
567.928	11417
567.988	11155
568.047	10950
568.107	12421
568.166	11981
568.226	11501
568.285	11873
568.345	11682
568.404	12350
568.464	11677
568.523	11125
568.582	11809
568.642	12248
568.701	11164
568.761	11396
568.820	10994
568.879	10934
568.939	11453
568.998	11547
569.057	11117
569.116	12044
569.176	10213
569.235	12237
569.294	11383
569.353	10787
569.413	11358
569.472	11560
569.531	11183
569.590	10298
569.649	11373
569.708	10453
569.767	12430
569.827	11211
569.886	10537
569.945	10871
570.004	11175
570.063	10893
570.122	11328
570.181	11690
570.240	11237
570.299	11795
570.358	11571
570.417	12431
570.475	12646
570.534	12890
570.593	11925
570.652	12542
570.711	12315
570.770	11741
570.829	12320
570.887	12188
570.946	12305
571.005	12530
571.064	13032
571.122	12544
571.181	11586
571.240	12319
571.299	11284
571.357	11638
571.416	11365
571.475	11957
571.533	11884
571.592	13529
571.650	13081
571.709	12770
571.768	13973
571.826	14529
571.885	14494
571.943	12848
572.002	11157
572.060	12476
572.119	12400
572.177	12315
572.236	11954
572.294	13330
572.352	12770
572.411	12157
572.469	12490
572.528	11861
572.586	12944
572.644	11266
572.703	12360
572.761	11745
572.819	11642
572.877	10616
572.936	12090
572.994	11116
573.052	11242
573.110	10550
573.169	12366
573.227	11375
573.285	12014
573.343	11764
573.401	11308
573.459	11602
573.517	11676
573.576	12166
573.634	12467
573.692	11051
573.750	11308
573.808	11229
573.866	11891
573.924	11706
573.982	11911
574.040	11335
574.098	11626
574.155	11192
574.213	10911
574.271	10594
574.329	11344
574.387	10984
574.445	10766
574.503	10285
574.560	9822
574.618	10256
574.676	10213
574.734	10696
574.792	11052
574.849	10582
574.907	9437
574.965	9275
575.022	8080
575.080	9190
575.138	9684
575.195	8748
575.253	9094
575.311	8462
575.368	8836
575.426	7997
575.483	10122
575.541	10004
575.598	9310
575.656	9487
575.713	9240
575.771	9139
575.828	8604
575.886	8720
575.943	8710
576.001	8810
576.058	8164
576.115	8163
576.173	8805
576.230	8365
576.287	9128
576.345	8293
576.402	7999
576.459	9540
576.517	8472
576.574	9158
576.631	8646
576.688	8419
576.746	8338
576.803	7928
576.860	8531
576.917	8913
576.974	8456
577.031	8741
577.089	9617
577.146	9132
577.203	7913
577.260	7992
577.317	7994
577.374	9099
577.431	7901
577.488	8339
577.545	7247
577.602	8434
577.659	8430
577.716	8530
577.773	8909
577.830	8345
577.886	8762
577.943	7461
578.000	8944
578.057	8442
578.114	7914
578.171	7871
578.227	7794
578.284	7802
578.341	8282
578.398	8144
578.454	8842
578.511	7843
578.568	8444
578.625	8638
578.681	9203
578.738	8023
578.794	8720
578.851	8269
578.908	7977
578.964	8191
579.021	9485
579.077	8397
579.134	8760
579.190	9078
579.247	8791
579.303	8790
579.360	8729
579.416	8383
579.473	9258
579.529	7214
579.586	8619
579.642	9716
579.698	7972
579.755	9399
579.811	7928
579.867	9022
579.924	8388
579.980	7905
580.036	9648
580.093	9288
580.149	9076
580.205	9333
580.261	8912
580.317	9082
580.374	9819
580.430	9211
580.486	9690
580.542	8938
580.598	9549
580.619	9654
580.654	9838
580.692	9390
580.710	9167
580.765	10639
580.767	10684
580.823	10390
580.838	10464
580.879	10653
580.911	10416
580.935	10222
580.984	10390
580.991	10419
581.047	10120
581.057	10085
581.103	9877
581.130	10003
581.159	10141
581.203	10786
581.215	10954
581.270	10295
581.276	10144
581.326	8698
581.349	9344
581.382	10247
581.422	10277
581.438	10274
581.494	10042
581.494	10040
581.550	9272
581.567	9706
581.606	10601
581.640	10461
581.661	10371
581.713	10830
581.717	10862
581.773	10121
581.786	10379
581.829	11138
581.859	11333
581.885	11556
581.932	11035
581.940	10928
581.996	12150
582.004	11965
582.052	10751
582.077	10645
582.107	10593
582.150	11364
582.163	11561
582.219	10928
582.223	10923
582.274	10842
582.296	10954
582.330	11109
582.368	11114
582.386	11150
582.441	11684
582.441	11678
582.497	11218
582.514	11256
582.552	11404
582.587	11203
582.608	11110
582.659	11058
582.663	11034
582.719	12129
582.732	12033
582.774	11850
582.805	11826
582.830	11776
582.877	12016
582.885	12034
582.941	11845
582.950	11957
582.996	12502
583.023	12563
583.052	12787
583.095	12654
583.107	12556
583.162	12371
583.168	12351
583.218	12120
583.240	12080
583.273	11938
583.313	11965
583.328	12139
583.384	13141
583.385	13137
583.439	12438
583.458	12712
583.494	13530
583.531	13002
583.549	12701
583.603	13487
583.605	13507
583.660	14602
583.676	14311
583.715	13751
583.748	14106
583.770	14403
583.820	14556
583.825	14549
583.881	14758
583.893	14898
583.936	15420
583.965	14689
583.991	14107
584.038	14969
584.046	15132
584.101	15142
584.110	15212
584.156	15622
584.183	15348
584.211	14979
584.255	15220
584.266	15379
584.321	15750
584.328	15806
584.376	16222
584.400	16511
584.431	16729
584.472	16791
584.486	16980
584.541	17298
584.545	17340
584.596	18119
584.617	18361
584.651	18882
584.689	19007
584.706	18905
584.761	19169
584.762	19157
584.816	20553
584.834	20717
584.871	20961
584.906	21462
584.926	21696
584.978	22558
584.980	22639
585.035	24240
585.051	24601
585.090	25570
585.123	27477
585.145	28947
585.195	30725
585.200	31006
585.254	34358
585.267	35587
585.309	39881
585.340	42325
585.364	44624
585.412	50493
585.419	51652
585.473	62042
585.484	64550
585.528	80643
585.556	95435
585.583	124771
585.628	186545
585.637	208954
585.692	374173
585.700	400585
585.747	481756
585.772	453334
585.801	335253
585.845	171510
585.856	149000
585.910	83202
585.917	76567
585.965	59485
585.989	52472
586.019	48180
586.061	43787
586.074	43022
586.128	40706
586.133	40396
586.183	38569
586.205	37953
586.237	37556
586.277	37089
586.292	37079
586.346	37105
586.349	37008
586.401	36524
586.421	36535
586.455	36573
586.493	36237
586.509	36549
586.564	37183
586.565	37144
586.618	39731
586.637	40435
586.672	43533
586.709	47824
586.727	49807
586.781	54738
586.781	54832
586.835	47549
586.853	45499
586.889	43221
586.925	41055
586.944	40894
586.996	41514
586.998	41627
587.052	41736
587.068	41782
587.106	42080
587.140	41773
587.161	42266
587.212	43695
587.215	43814
587.269	44004
587.284	44087
587.323	45496
587.356	46098
587.377	46518
587.427	47701
587.431	47928
587.485	49444
587.499	49679
587.539	51103
587.571	51967
587.593	53010
587.643	55480
587.648	55739
587.702	56342
587.715	56324
587.755	56603
587.786	56784
587.810	57462
587.858	58466
587.864	58724
587.917	59108
587.930	59159
587.971	59128
588.001	58680
588.025	58730
588.073	58929
588.079	59205
588.133	59205
588.145	59295
588.187	59799
588.217	59514
588.241	60392
588.288	62141
588.295	62550
588.348	63950
588.360	64160
588.402	64477
588.431	64330
588.456	65180
588.503	66310
588.510	66809
588.564	70083
588.575	70487
588.617	73294
588.646	74884
588.671	76759
588.718	80425
588.725	81590
588.778	90124
588.789	91876
588.832	118996
588.861	138932
588.886	185919
588.932	281506
588.939	291412
588.993	363174
589.004	367417
589.047	230569
589.075	144303
589.100	120672
589.147	85482
589.154	84855
589.207	79398
589.218	78190
589.261	79364
589.290	79838
589.314	81132
589.361	83750
589.368	85586
589.421	99442
589.433	102554
589.475	150367
589.504	185221
589.528	234140
589.576	335215
589.582	326218
589.635	206492
589.647	180415
589.689	121629
589.718	85158
589.742	82601
589.790	76519
589.795	76676
589.849	76522
589.861	76227
589.902	76278
589.932	75916
589.955	76174
590.004	76129
590.009	76394
590.062	76237
590.075	75912
590.115	75986
590.146	75858
590.168	75942
590.218	74778
590.222	75202
590.275	78122
590.289	78476
590.328	79948
590.360	80732
590.381	81556
590.431	82274
590.435	82605
590.488	83781
590.503	83705
590.541	85287
590.574	86202
590.594	87556
590.645	89989
590.647	90414
590.700	93148
590.716	93698
590.753	97024
590.787	99307
590.806	100525
590.859	102593
590.859	102972
590.912	103460
590.930	103270
590.965	104812
591.001	105472
591.018	105671
591.071	105048
591.072	104657
591.124	104359
591.143	103744
591.177	105029
591.214	105731
591.230	106819
591.283	109027
591.285	108705
591.336	108494
591.356	107921
591.389	108560
591.427	108262
591.442	108329
591.495	107176
591.498	106693
591.547	108286
591.569	108480
591.600	110656
591.640	112387
591.653	113084
591.706	114324
591.711	114017
591.759	117352
591.782	118458
591.811	121835
591.853	125649
591.864	126195
591.917	126365
591.924	125901
591.969	125874
591.995	125090
592.022	127016
592.066	129028
592.075	130023
592.127	132977
592.137	133016
592.180	135214
592.208	135787
592.233	138116
592.279	140994
592.285	142081
592.338	146616
592.350	147065
592.390	146625
592.421	145309
592.443	147474
592.491	150379
592.495	151128
592.548	153231
592.562	153209
592.600	154371
592.633	154234
592.653	155150
592.704	155071
592.705	156053
592.775	160362
592.846	164622
592.916	165742
592.987	167354
593.058	167169
593.128	173406
593.199	173752
593.270	174127
593.341	179535
593.411	186700
593.482	194930
593.553	196279
593.623	200267
593.694	205141
593.764	206427
593.835	205003
593.906	208968
593.976	210194
594.047	214189
594.117	225131
594.188	228273
594.258	230012
594.329	228481
594.399	235421
594.470	240866
594.540	248334
594.611	252757
594.681	251358
594.751	250838
594.822	261860
594.892	270381
594.963	275738
595.033	282823
595.103	290350
595.174	292149
595.244	299239
595.314	307000
595.384	314468
595.455	322481
595.525	331965
595.595	344088
595.665	345255
595.736	334819
595.806	340453
595.876	347966
595.946	349734
596.016	364040
596.087	376111
596.157	374326
596.227	376474
596.297	393848
596.367	418977
596.437	440733
596.507	436246
596.577	436623
596.647	448283
596.717	471583
596.787	474818
596.857	474902
596.927	477291
596.997	478516
597.067	483839
597.137	491172
597.207	493814
597.277	497568
597.347	481909
597.417	466959
597.487	466433
597.557	473813
597.626	487643
597.696	493606
597.766	489650
597.836	463607
597.906	443001
597.975	435285
598.045	442714
598.115	456526
598.185	486192
598.254	535297
598.324	579925
598.394	585627
598.464	571526
598.533	563776
598.603	528557
598.672	512035
598.742	522656
598.812	522661
598.881	539467
598.951	533893
599.020	546353
599.090	563168
599.159	565348
599.229	547723
599.299	538319
599.368	551196
599.437	544847
599.507	505927
599.576	489641
599.646	482801
599.715	476161
599.785	472811
599.854	459343
599.924	453145
599.993	451067
600.062	461563
600.132	472406
600.201	497867
600.270	564518
600.340	595218
600.409	581768
600.478	577219
600.547	590912
600.617	541585
600.686	438213
600.755	401218
600.824	382695
600.894	370606
600.963	374154
601.032	368078
601.101	355241
601.170	340516
601.239	328952
601.308	326128
601.378	326854
601.447	328266
601.516	330914
601.585	332992
601.654	335955
601.723	337548
601.792	345963
601.861	357902
601.930	367451
601.999	368805
602.068	367766
602.137	373035
602.206	377958
602.275	385618
602.343	388938
602.412	387531
602.481	391398
602.550	394219
602.619	407519
602.688	410750
602.756	410956
602.825	415681
602.894	427078
602.963	435750
603.032	443900
603.100	441580
603.169	443847
603.238	445044
603.307	450643
603.375	452923
603.444	459641
603.513	474606
603.581	478082
603.650	482094
603.719	480425
603.787	493796
603.856	507787
603.924	516371
603.993	533766
604.061	547611
604.130	568818
604.198	578500
604.267	590515
604.335	595340
604.404	605474
604.472	612156
604.541	615717
604.609	624172
604.678	622823
604.746	624492
604.815	640815
604.883	651798
604.951	651891
605.020	658207
605.088	673189
605.156	685599
605.225	695701
605.293	691326
605.361	696779
605.429	702038
605.498	713362
605.566	727542
605.634	756835
605.702	774550
605.771	794548
605.839	798870
605.907	789094
605.975	765539
606.043	756087
606.111	758960
606.180	756215
606.248	751681
606.316	744255
606.384	739797
606.452	751375
606.520	767354
606.588	789831
606.656	795946
606.724	782426
606.792	751093
606.860	692562
606.928	644465
606.996	618832
607.064	607621
607.132	622787
607.200	656004
607.267	672638
607.335	685853
607.403	698612
607.471	677253
607.539	660527
607.607	661866
607.674	593648
607.742	593414
607.810	589593
607.878	590994
607.946	604324
608.013	626783
608.081	634158
608.149	639923
608.216	661988
608.284	676788
608.352	677906
608.419	672213
608.487	659579
608.555	652205
608.622	668682
608.690	701644
608.757	760939
608.825	775152
608.893	756972
608.960	719425
609.028	699616
609.095	698380
609.163	698295
609.230	633165
609.298	585015
609.365	616748
609.432	656906
609.500	701778
609.567	776580
609.635	857579
609.702	892055
609.769	853270
609.837	698007
609.904	620807
609.971	624729
610.039	641937
610.106	694491
610.173	872187
610.241	1230702
610.308	1017322
610.375	729244
610.442	669422
610.509	645300
610.577	644764
610.644	656700
610.711	673151
610.778	688337
610.845	711389
610.912	742131
610.980	769907
611.047	772720
611.114	760265
611.181	739615
611.248	740684
611.315	772110
611.382	789600
611.449	809847
611.516	816944
611.583	809126
611.650	812312
611.717	814865
611.784	820881
611.851	833329
611.918	845054
611.984	891000
612.051	982276
612.118	1193272
612.185	1540689
612.252	1394665
612.319	1049331
612.386	973740
612.452	918896
612.519	886625
612.586	876286
612.653	891618
612.719	916164
612.786	890803
612.853	848713
612.919	835545
612.986	848138
613.053	812296
613.120	776937
613.186	754319
613.253	757845
613.319	757503
613.386	761421
613.453	771325
613.519	771469
613.586	759206
613.652	765715
613.719	761641
613.785	773893
613.852	778763
613.918	771447
613.985	776458
614.051	803152
614.118	793514
614.184	770519
614.250	772469
614.317	788603
614.383	776993
614.449	796401
614.516	789757
614.582	790780
614.648	781791
614.715	774883
614.781	764594
614.847	761610
614.914	764800
614.980	748152
615.046	746509
615.112	765296
615.179	770260
615.245	775015
615.311	766872
615.377	771202
615.443	780485
615.509	785125
615.575	796841
615.642	793641
615.708	805887
615.774	822371
615.840	843732
615.906	845922
615.972	888454
616.038	1004381
616.104	1289280
616.170	1619272
616.236	1534182
616.302	1179173
616.368	1064633
616.434	922338
616.500	873559
616.565	893976
616.631	989202
616.697	927256
616.763	910708
616.829	1037432
616.895	1341560
616.961	1316887
617.026	968159
617.092	836302
617.158	804370
617.224	793330
617.289	751001
617.355	726173
617.421	721937
617.487	722619
617.552	695314
617.618	692776
617.684	693429
617.749	698429
617.815	676213
617.880	671862
617.946	666134
618.012	678699
618.077	688770
618.143	665715
618.208	666516
618.274	707362
618.339	706778
618.405	611053
618.470	612819
618.536	610760
618.601	600705
618.667	567291
618.732	546503
618.798	541235
618.863	542267
618.928	534896
618.994	540859
619.059	530501
619.124	537352
619.190	533293
619.255	531355
619.320	535103
619.386	535361
619.451	530064
619.516	516890
619.581	527175
619.647	545813
619.712	545498
619.777	521927
619.842	524711
619.907	533367
619.972	544150
620.038	539878
620.103	526272
620.168	529835
620.233	535086
620.298	539930
620.363	544983
620.428	556746
620.493	570552
620.558	576008
620.623	576614
620.688	577182
620.753	573421
620.818	587112
620.883	583363
620.948	581489
621.013	576960
621.078	566241
621.143	574198
621.207	577120
621.272	568120
621.337	550293
621.402	550739
621.467	542767
621.532	543513
621.596	547297
621.661	533760
621.726	531256
621.791	535150
621.855	539052
621.920	533032
621.985	538905
622.049	548990
622.114	546002
622.179	556239
622.243	563706
622.308	581585
622.373	595650
622.437	587044
622.502	562052
622.566	556791
622.631	558148
622.695	565807
622.760	561841
622.824	560567
622.889	562079
622.953	560920
623.018	588994
623.082	597313
623.147	591977
623.211	578921
623.276	582062
623.340	560754
623.404	552527
623.469	551042
623.533	555632
623.597	548616
623.662	546650
623.726	514193
623.790	493165
623.854	477630
623.919	486687
623.983	494859
624.047	500826
624.111	500471
624.176	508808
624.240	509871
624.304	526104
624.368	509517
624.432	511753
624.496	519676
624.560	539577
624.625	548511
624.689	540477
624.753	563719
624.817	541826
624.881	531750
624.945	488988
625.009	478899
625.073	485614
625.137	496719
625.201	513507
625.265	514486
625.329	496542
625.393	502210
625.456	504258
625.520	518552
625.584	524563
625.648	533053
625.712	546145
625.776	539131
625.839	511918
625.903	452942
625.967	426060
626.031	444866
626.095	510093
626.158	484086
626.222	401259
626.286	377947
626.349	369681
626.413	344845
626.477	343694
626.540	347533
626.604	346846
626.668	339530
626.731	335535
626.795	335709
626.858	335758
626.922	333774
626.986	328361
627.049	330017
627.113	341741
627.176	331854
627.240	323203
627.303	322685
627.366	319945
627.430	321756
627.493	320709
627.557	310716
627.620	316489
627.684	330550
627.747	330029
627.810	306878
627.874	277971
627.937	269500
628.000	276335
628.064	270108
628.127	247138
628.190	244865
628.253	237878
628.317	230269
628.380	219394
628.443	213993
628.506	213501
628.569	206341
628.632	196458
628.696	197234
628.759	197679
628.822	186479
628.885	184174
628.948	181343
629.011	177289
629.074	173089
629.137	168115
629.200	165973
629.263	163209
629.326	161375
629.389	161633
629.452	159043
629.515	156760
629.578	154910
629.641	155560
629.704	159329
629.767	154785
629.830	149867
629.892	147254
629.955	147629
630.018	148817
630.081	147267
630.144	145954
630.207	143975
630.269	145692
630.332	138654
630.395	139344
630.458	137391
630.520	130938
630.583	132466
630.646	134702
630.708	136074
630.771	138834
630.834	144138
630.896	140719
630.959	139889
631.021	135243
631.084	135497
631.146	134923
631.209	137227
631.272	134267
631.334	137280
631.397	135562
631.459	133277
631.522	138347
631.584	136352
631.646	140063
631.709	141774
631.771	139499
631.834	137209
631.896	137218
631.958	131170
632.021	130923
632.083	126414
632.145	128142
632.208	126812
632.270	128455
632.332	126803
632.395	125957
632.457	127766
632.519	125994
632.581	125288
632.643	123920
632.706	126003
632.768	122483
632.830	125742
632.892	126825
632.954	128868
633.016	129102
633.078	127291
633.141	125643
633.203	125384
633.265	125968
633.327	123531
633.389	125032
633.451	125046
633.513	124772
633.575	127693
633.637	124195
633.698	125997
633.760	131305
633.822	135593
633.884	136053
633.946	135733
634.008	136550
634.070	134907
634.132	136517
634.193	141432
634.255	146306
634.317	147675
634.379	146478
634.441	138414
634.502	134685
634.564	126258
634.626	122431
634.687	118728
634.749	116752
634.811	116460
634.873	116921
634.934	115577
634.996	117537
635.057	116925
635.119	120214
635.181	118336
635.242	118678
635.304	116990
635.365	120937
635.427	117246
635.488	118682
635.550	114360
635.611	114317
635.673	114314
635.734	119098
635.796	120014
635.857	124778
635.918	128150
635.980	133761
636.041	137255
636.102	141312
636.164	141447
636.225	137891
636.286	127113
636.348	120719
636.409	115722
636.470	113549
636.531	113543
636.593	111653
636.654	112064
636.715	109937
636.776	110668
636.838	107684
636.899	107831
636.960	106137
637.021	106400
637.082	102834
637.143	102151
637.204	99648
637.265	99976
637.326	102411
637.387	105165
637.448	103014
637.509	102462
637.570	103022
637.631	101367
637.692	98796
637.753	96847
637.814	97686
637.875	96710
637.936	97613
637.997	97339
638.058	96784
638.119	96259
638.179	96416
638.240	97174
638.301	98143
638.362	95918
638.423	92655
638.483	93512
638.544	91240
638.605	94040
638.666	94360
638.726	93997
638.787	93414
638.848	94371
638.908	89723
638.969	89161
639.030	86864
639.090	86299
639.151	88535
639.211	89384
639.272	89288
639.332	89749
639.393	89062
639.453	91496
639.514	90887
639.574	87252
639.635	82842
639.695	85412
639.756	84821
639.816	81833
639.877	82258
639.937	83737
639.997	82264
640.058	80859
640.118	82014
640.178	83309
640.239	81900
640.299	81599
640.359	82897
640.420	84558
640.480	89378
640.540	93568
640.600	95231
640.661	91166
640.721	91598
640.781	100826
640.841	106408
640.901	85842
640.961	85364
641.021	83621
641.082	85733
641.142	83147
641.202	83154
641.262	78682
641.322	81159
641.382	80701
641.442	79635
641.502	78645
641.562	80269
641.622	81247
641.682	83418
641.742	85470
641.802	85087
641.861	79991
641.921	75945
641.981	76066
642.041	73492
642.101	74067
642.161	71670
642.221	74358
642.280	74058
642.340	74061
642.400	75657
642.460	76399
642.519	76509
642.579	75917
642.639	77920
642.698	73455
642.758	77809
642.818	77396
642.877	76072
642.937	76296
642.997	76973
643.056	76727
643.116	76496
643.175	78313
643.235	78633
643.294	78975
643.354	81523
643.414	81768
643.473	86968
643.532	91908
643.592	103031
643.651	124161
643.711	171953
643.770	272371
643.830	508484
643.889	765108
643.948	364129
644.008	149950
644.067	106010
644.126	89872
644.186	83677
644.245	77817
644.304	73687
644.363	74335
644.423	70888
644.482	71222
644.541	75412
644.600	74881
644.659	82800
644.719	87447
644.778	106329
644.837	143393
644.896	236337
644.955	431847
645.014	199785
645.073	95392
645.132	80763
645.191	77787
645.250	76736
645.309	77812
645.368	80248
645.427	94859
645.486	127285
645.545	192377
645.604	91367
645.663	73266
645.722	71307
645.781	74269
645.840	74605
645.898	80599
645.957	92872
646.016	112865
646.075	160268
646.134	254109
646.192	506760
646.251	626886
646.310	229762
646.369	115241
646.427	100150
646.486	85426
646.545	74628
646.603	71053
646.662	67331
646.721	65369
646.779	64181
646.838	64233
646.896	67698
646.955	77269
647.014	99862
647.072	151750
647.131	324379
647.189	185238
647.248	71245
647.306	63340
647.365	60203
647.423	57085
647.481	57351
647.540	55490
647.598	56429
647.657	55919
647.715	56776
647.773	54666
647.832	54857
647.890	50531
647.948	50135
648.007	50555
648.065	48110
648.123	49254
648.181	48871
648.240	48886
648.298	47677
648.356	46748
648.414	46916
648.472	46058
648.531	44967
648.589	43631
648.647	43595
648.705	44720
648.763	44883
648.821	45229
648.879	44774
648.937	47168
648.995	49232
649.053	51739
649.111	63104
649.169	81897
649.227	122069
649.285	220506
649.343	467767
649.401	273919
649.459	81688
649.516	58058
649.574	47861
649.632	50401
649.690	51216
649.748	55087
649.806	70045
649.863	106889
649.921	246775
649.979	175993
650.037	52798
650.094	40382
650.152	40396
650.210	39739
650.268	40015
650.325	44201
650.383	51346
650.440	36383
650.498	35142
650.556	34580
650.613	33368
650.671	33098
650.728	34648
650.786	35539
650.843	43166
650.901	36273
650.958	32524
651.016	30814
651.073	31126
651.131	30359
651.188	29168
651.246	30646
651.303	27953
651.360	28583
651.418	28291
651.475	29495
651.532	27471
651.590	28781
651.647	26933
651.704	28946
651.762	28253
651.819	27352
651.876	26839
651.933	26258
651.990	26670
652.048	25743
652.105	26434
652.162	27233
652.219	26353
652.276	26014
652.333	26079
652.390	23853
652.448	25348
652.505	25084
652.562	24848
652.619	24377
652.676	24865
652.733	25324
652.790	23394
652.847	22748
652.904	24342
652.961	22103
653.017	22378
653.074	23301
653.131	22751
653.188	23085
653.245	23552
653.302	24206
653.359	22092
653.415	23973
653.472	23290
653.529	23094
653.586	22790
653.642	23064
653.699	23508
653.756	21491
653.813	21927
653.869	23115
653.926	22297
653.983	21584
654.039	22787
654.096	22667
654.152	23280
654.209	20363
654.266	21336
654.322	20823
654.379	23112
654.435	22519
654.492	21375
654.548	21313
654.605	22477
654.661	24479
654.717	22966
654.774	21574
654.830	22101
654.887	22672
654.943	24236
655.000	27751
655.056	23213
655.112	20881
655.168	21438
655.225	21179
655.281	22506
655.337	21210
655.394	20256
655.450	20334
655.506	20923
655.562	20453
655.618	20473
655.675	19773
655.731	19096
655.787	18633
655.843	20762
655.899	19872
655.955	20491
656.011	20981
656.067	20020
656.123	21354
656.179	19682
656.235	20778
656.291	19783
656.347	21361
656.403	19829
656.459	19956
656.515	20407
656.571	19532
656.627	19781
656.683	21030
656.739	20527
656.795	19557
656.850	18923
656.906	19218
656.962	21571
657.018	21634
657.074	25043
657.129	29462
657.185	42126
657.241	83611
657.297	50770
657.352	22881
657.408	20275
657.464	19792
657.519	18823
657.575	18267
657.630	18579
657.686	19617
657.742	17862
657.797	18373
657.853	18847
657.908	20379
657.964	18463
658.019	19170
658.075	18631
658.130	18885
658.186	17782
658.241	18059
658.297	17135
658.352	17353
658.407	17432
658.463	17584
658.518	18860
658.573	18727
658.629	17358
658.684	17170
658.739	17634
658.795	17556
658.850	18567
658.905	17962
658.960	18481
659.016	17018
659.071	17356
659.126	17555
659.181	17690
659.236	17711
659.291	17590
659.346	16112
659.401	17440
659.457	18218
659.512	17474
659.567	17919
659.622	17283
659.677	16785
659.732	16753
659.787	17185
659.842	16446
659.897	17148
659.952	16813
660.007	16684
660.061	17565
660.116	15720
660.171	16393
660.226	16735
660.281	17724
660.336	15662
660.391	16814
660.445	15723
660.500	16713
660.555	16258
660.610	16033
660.664	16770
660.719	15468
660.774	16023
660.828	16261
660.883	16225
660.938	16412
660.992	14894
661.047	16405
661.101	14553
661.156	14828
661.211	14704
661.265	15189
661.320	15023
661.374	15967
661.429	15086
661.483	15754
661.538	15461
661.592	17329
661.647	18817
661.701	23233
661.755	17480
661.810	16554
661.864	15053
661.919	16290
661.973	16032
662.027	15635
662.081	14801
662.136	14953
662.190	16225
662.244	14844
662.299	14731
662.353	16014
662.407	14857
662.461	14262
662.515	14295
662.569	14823
662.624	15681
662.678	13579
662.732	14444
662.786	14591
662.840	14455
662.894	13970
662.948	14719
663.002	15365
663.056	15048
663.110	14490
663.164	13884
663.218	14766
663.272	15049
663.326	14351
663.380	13600
663.434	14135
663.488	13374
663.542	15159
663.595	14843
663.649	13945
663.703	14637
663.757	14416
663.811	13349
663.864	13642
663.918	14251
663.972	13958
664.026	14646
664.079	14180
664.133	14538
664.187	15314
664.240	15378
664.294	16369
664.348	15647
664.401	15216
664.455	13771
664.508	14019
664.562	14098
664.615	15596
664.669	13265
664.722	13735
664.776	14106
664.829	14739
664.883	14364
664.936	13905
664.990	14354
665.043	14467
665.097	13829
665.150	15861
665.203	13558
665.257	13967
665.310	15566
665.363	15720
665.417	15302
665.470	14821
665.523	15707
665.576	15442
665.630	13680
665.683	13798
665.736	15496
665.789	14397
665.842	13532
665.895	14083
665.949	14318
666.002	14972
666.055	15435
666.108	16407
666.161	15637
666.214	15471
666.267	15334
666.320	16147
666.373	15561
666.426	16084
666.479	13487
666.532	15818
666.585	16149
666.638	16619
666.691	15695
666.744	16440
666.796	15323
666.849	15625
666.902	16104
666.955	15895
667.008	15798
667.060	15791
667.113	16965
667.166	17242
667.219	17892
667.271	17965
667.324	16923
667.377	17222
667.430	16785
667.482	17296
667.535	15714
667.587	16052
667.640	16296
667.693	15311
667.745	15371
667.798	15790
667.850	15661
667.903	16599
667.955	16652
668.008	15702
668.060	15446
668.113	15516
668.165	15077
668.218	15053
668.270	16124
668.322	14880
668.375	14651
668.427	15490
668.479	14313
668.532	16168
668.584	15120
668.636	14779
668.689	14980
668.741	15321
668.793	14752
668.845	15381
668.898	15523
668.950	15184
669.002	16086
669.054	14586
669.106	14764
669.158	15047
669.211	14677
669.263	13824
669.315	14583
669.367	15191
669.419	13500
669.471	15255
669.523	13958
669.575	13542
669.627	13723
669.679	14071
669.731	14202
669.783	14026
669.835	13950
669.886	13257
669.938	13521
669.990	13655
670.042	12604
670.094	12796
670.146	12735
670.197	12461
670.249	13084
670.301	13553
670.353	12841
670.404	13660
670.456	11792
670.508	13206
670.560	13746
670.611	13648
670.663	15655
670.715	22706
670.766	26084
670.818	15681
670.869	14128
670.921	13143
670.972	13935
671.024	13351
671.075	12409
671.127	13083
671.178	12943
671.230	14491
671.281	13970
671.333	15371
671.384	16310
671.436	19134
671.487	23876
671.538	31476
671.590	46121
671.641	71881
671.692	118228
671.744	206698
671.795	150557
671.846	66358
671.897	36530
671.949	27684
672.000	21750
672.051	17473
672.102	15732
672.153	14433
672.204	12492
672.256	14370
672.307	13226
672.358	12560
672.409	11975
672.460	12606
672.511	11513
672.562	10692
672.613	10331
672.664	9930
672.715	11165
672.766	11085
672.817	9458
672.868	11201
672.919	9290
672.970	9384
673.021	9994
673.071	9605
673.122	8986
673.173	9297
673.224	9780
673.275	9783
673.326	8617
673.376	9750
673.427	8469
673.478	9740
673.528	9481
673.579	9900
673.630	9147
673.680	10347
673.731	8965
673.782	9099
673.832	9807
673.883	9284
673.934	8470
673.984	9034
674.035	9177
674.085	9576
674.136	9625
674.186	9725
674.237	9496
674.287	9397
674.338	9153
674.388	9947
674.438	8852
674.489	10124
674.539	9592
674.589	10359
674.640	9437
674.690	9827
674.740	9639
674.791	9276
674.841	8413
674.891	8608
674.942	8312
674.992	8039
675.042	8443
675.092	7473
675.142	7117
675.193	6830
675.243	7169
675.293	9010
675.343	8412
675.393	9486
675.443	8594
675.493	8267
675.543	8167
675.593	8283
675.643	8157
675.693	8285
675.743	8557
675.793	8649
675.843	6832
675.893	7595
675.943	7476
675.993	7023
676.043	6826
676.093	7420
676.142	7445
676.192	9369
676.242	7276
676.292	8223
676.341	7890
676.391	7519
676.441	5524
676.491	7657
676.540	6962
676.590	7203
676.640	6917
676.689	6601
676.739	5340
676.789	6828
676.838	5992
676.888	6252
676.937	6125
676.987	7270
677.037	6399
677.086	6133
677.136	5961
677.185	6060
677.235	5810
677.284	6095
677.333	7218
677.383	6388
677.432	5359
677.482	6359
677.531	5765
677.580	6125
677.630	6399
677.679	6479
677.728	6010
677.778	6989
677.827	5233
677.876	6877
677.925	6775
677.975	7306
678.024	7685
678.073	6556
678.122	6011
678.171	6258
678.220	7269
678.269	7953
678.319	7749
678.368	8416
678.417	6950
678.466	7488
678.515	6032
678.564	6059
678.613	6061
678.662	5796
678.711	5686
678.760	5630
678.809	6439
678.857	5612
678.906	5854
678.955	6627
679.004	7120
679.053	8053
679.102	7042
679.151	6823
679.199	5493
679.248	6625
679.297	6131
679.346	5424
679.394	4205
679.443	5865
679.492	5773
679.540	6293
679.589	5680
679.638	5899
679.686	6191
679.735	6076
679.784	6145
679.832	7153
679.881	6357
679.929	6626
679.978	5552
680.026	6376
680.075	6248
680.123	5763
680.172	4611
680.220	5171
680.268	6234
680.317	5345
680.365	4918
680.414	4807
680.462	4460
680.510	5630
680.559	5475
680.607	5540
680.655	5437
680.703	6036
680.752	6158
680.800	6182
680.848	5188
680.896	5696
680.945	4979
680.993	4991
681.041	4675
681.089	5403
681.137	5178
681.185	5169
681.233	5947
681.258	5460
681.281	4946
681.329	4095
681.377	5249
681.380	5299
681.425	5250
681.473	6455
681.502	6489
681.521	6417
681.569	6640
681.617	6987
681.624	6988
681.665	6576
681.713	6162
681.745	6307
681.761	6303
681.809	5692
681.857	7261
681.867	7219
681.904	6852
681.952	7383
681.989	6993
682.000	6801
682.048	7418
682.096	6805
682.111	6986
682.143	7194
682.191	6707
682.233	7292
682.239	7335
682.286	7662
682.334	6695
682.354	6936
682.382	7136
682.430	7692
682.476	7377
682.477	7320
682.525	7207
682.572	8586
682.598	8162
682.620	7733
682.667	8049
682.715	7971
682.720	8042
682.763	8217
682.810	9242
682.841	9068
682.857	8908
682.905	8485
682.952	9408
682.963	9355
683.000	8930
683.047	8797
683.085	9148
683.095	9219
683.142	9368
683.190	9809
683.206	9421
683.237	8563
683.284	9385
683.328	8894
683.332	8802
683.379	9275
683.426	8756
683.449	9353
683.473	9993
683.521	9840
683.568	10063
683.571	10092
683.615	9809
683.662	10842
683.693	9921
683.709	9316
683.757	9489
683.804	10259
683.814	10192
683.851	9923
683.898	10184
683.936	10284
683.945	10294
683.992	10284
684.039	10695
684.057	10653
684.086	10399
684.133	10759
684.179	9884
684.180	9825
684.227	11264
684.274	10902
684.300	10877
684.321	10860
684.368	10873
684.415	11716
684.422	11704
684.462	11366
684.509	11329
684.543	11311
684.556	11289
684.603	12376
684.649	11768
684.665	11769
684.696	11598
684.743	12218
684.786	12413
684.790	12400
684.837	11510
684.883	11578
684.908	11861
684.930	12200
684.977	12568
685.023	13029
685.029	13098
685.070	13227
685.117	12490
685.150	12953
685.164	13140
685.210	12917
685.257	13248
685.272	13266
685.303	13288
685.350	14270
685.393	13911
685.396	13823
685.443	12606
685.490	12653
685.514	12606
685.536	12757
685.583	12729
685.629	12993
685.636	12917
685.675	12323
685.722	13562
685.757	13282
685.768	13169
685.815	13378
685.861	13720
685.878	14026
685.908	14559
685.954	13448
686.000	14653
686.000	14662
686.047	14486
686.093	14597
686.121	14611
686.139	14554
686.185	15081
686.232	14748
686.242	14943
686.278	15527
686.324	14877
686.363	14774
686.370	14722
686.416	14954
686.463	15001
686.484	14853
686.509	14773
686.555	14857
686.601	14934
686.606	15038
686.647	15781
686.693	15288
686.727	15111
686.739	15091
686.785	15408
686.831	15217
686.848	15268
686.877	15286
686.923	16077
686.969	15576
686.969	15573
687.015	16346
687.061	16889
687.090	17328
687.107	17437
687.153	17432
687.199	17402
687.211	17264
687.245	16530
687.291	16380
687.332	16865
687.336	16997
687.382	17160
687.428	16963
687.453	17630
687.474	18070
687.520	18325
687.565	19061
687.574	19059
687.611	20208
687.657	23017
687.695	24353
687.702	24975
687.748	30714
687.794	37002
687.816	37880
687.839	34496
687.885	28543
687.931	24098
687.937	23424
687.976	21926
688.022	20696
688.058	19126
688.067	19034
688.113	18852
688.158	18402
688.179	18362
688.204	18483
688.249	18552
688.295	18473
688.300	18478
688.340	18694
688.386	18450
688.421	19091
688.431	19260
688.477	19113
688.522	19069
688.542	19113
688.567	19575
688.613	20226
688.658	20849
688.663	20913
688.703	20547
688.749	19942
688.784	19720
688.794	19785
688.839	20173
688.884	20607
688.905	20424
688.930	20147
688.975	20072
689.020	20170
689.026	20119
689.065	20564
689.110	21314
689.146	21838
689.155	22038
689.201	23932
689.246	24060
689.267	24401
689.291	23603
689.336	22793
689.381	20787
689.388	20545
689.426	20534
689.471	20596
689.509	20785
689.516	20866
689.561	20569
689.606	20776
689.630	20745
689.651	20641
689.696	20220
689.741	20375
689.750	20308
689.785	20672
689.830	21311
689.871	21479
689.875	21443
689.920	20804
689.965	20470
689.992	20278
690.010	20415
690.054	20389
690.099	20704
690.112	20838
690.144	21195
690.189	20995
690.233	20945
690.233	20970
690.278	20984
690.323	21237
690.354	21121
690.367	21110
690.412	21027
690.457	20766
690.474	20785
690.501	20720
690.546	20595
690.590	20174
690.595	20143
690.635	20366
690.680	19862
690.716	19967
690.724	20041
690.769	20208
690.813	20486
690.836	20145
690.857	20267
690.902	21455
690.946	22591
690.957	22742
690.991	22504
691.035	21711
691.077	21795
691.080	21859
691.124	22147
691.168	22320
691.198	22201
691.213	22114
691.257	22290
691.301	22131
691.318	22172
691.346	22343
691.390	22423
691.434	21812
691.439	21826
691.478	22177
691.522	22463
691.559	21974
691.567	22055
691.611	22740
691.655	23534
691.680	23988
691.699	23959
691.743	23632
691.787	23397
691.800	23181
691.831	23101
691.875	23375
691.919	23714
691.921	23666
691.964	23235
692.008	23126
692.041	23207
692.052	23300
692.096	23198
692.139	23285
692.162	23130
692.183	22991
692.227	23143
692.271	22803
692.282	22757
692.315	22675
692.359	22279
692.402	22178
692.403	22223
692.447	22411
692.490	23170
692.523	23104
692.534	23052
692.578	23129
692.622	23113
692.643	23082
692.666	23104
692.709	23193
692.753	23303
692.763	23171
692.797	23063
692.840	23507
692.884	23418
692.884	23461
692.928	23512
692.971	23408
693.004	23051
693.015	23004
693.059	23070
693.102	22965
693.124	22924
693.146	23211
693.189	23571
693.233	23777
693.245	23855
693.276	24045
693.320	24354
693.363	24117
693.365	24081
693.407	24317
693.450	23837
693.485	24156
693.493	24326
693.537	24378
693.580	24265
693.605	24437
693.624	24476
693.667	23974
693.710	23874
693.725	23760
693.753	23846
693.797	23476
693.840	23568
693.845	23506
693.883	23732
693.926	24105
693.966	24149
693.970	24208
694.013	24324
694.056	25007
694.086	25057
694.099	25079
694.142	25169
694.185	24721
694.206	24794
694.229	25121
694.272	25206
694.315	25692
694.326	25669
694.358	25578
694.401	25639
694.444	25448
694.446	25387
694.487	25589
694.530	25761
694.566	25936
694.573	26050
694.616	26161
694.659	26651
694.686	26803
694.702	26944
694.745	27449
694.787	27027
694.806	27186
694.830	27367
694.873	27058
694.916	27125
694.926	27052
694.959	27468
695.002	27933
695.044	28256
695.046	28224
695.087	29286
695.130	29636
695.166	30251
695.172	30318
695.215	30097
695.258	30069
695.286	29988
695.301	30378
695.343	31200
695.386	32013
695.406	32345
695.428	33455
695.471	35443
695.514	37776
695.526	38286
695.556	40671
695.599	43996
695.641	46948
695.646	47229
695.684	45216
695.726	42284
695.766	39721
695.769	39744
695.811	38548
695.854	37612
695.886	36854
695.896	37096
695.938	37616
695.981	38133
696.005	38374
696.023	39588
696.065	42293
696.108	45165
696.125	46206
696.150	46804
696.192	47630
696.235	48347
696.245	48443
696.277	48662
696.319	48860
696.361	48985
696.365	48861
696.404	47800
696.446	46818
696.485	45799
696.488	45931
696.530	46143
696.572	46432
696.604	46597
696.614	46602
696.656	45920
696.698	45456
696.724	45018
696.740	45373
696.783	45962
696.825	46658
696.844	46898
696.867	47205
696.909	47340
696.951	47589
696.964	47583
696.992	48196
697.034	48786
697.076	49438
697.083	49440
697.118	50820
697.160	52403
697.202	53722
697.203	53634
697.244	53085
697.286	52483
697.323	51620
697.327	51765
697.369	52012
697.411	52308
697.442	52402
697.453	52623
697.494	53052
697.536	53387
697.562	53549
697.578	53547
697.620	53102
697.661	52562
697.682	52283
697.703	53479
697.744	55451
697.786	57466
697.801	58066
697.828	57883
697.869	57273
697.911	56686
697.921	56423
697.952	56379
697.994	56081
698.035	55781
698.040	55615
698.077	55927
698.118	56040
698.160	56212
698.160	56075
698.201	57949
698.243	59731
698.279	61155
698.284	61430
698.325	62596
698.367	63735
698.399	64480
698.408	64774
698.449	65415
698.491	66036
698.518	66260
698.532	66418
698.573	66427
698.614	66449
698.638	66298
698.656	66468
698.697	66478
698.738	66453
698.757	66293
698.779	66389
698.820	66239
698.862	66100
698.877	65880
698.903	65994
698.944	65920
698.985	65832
698.996	65647
699.026	65856
699.067	65918
699.116	65828
699.235	65989
699.354	64694
699.474	61780
699.593	60513
699.713	60728
699.832	61025
699.951	65683
700.070	63325
700.190	59379
700.309	56633
700.428	56071
700.547	55504
700.667	55675
700.786	55632
700.905	53821
701.024	54536
701.143	53176
701.262	56804
701.381	57858
701.500	57081
701.619	55699
701.738	56739
701.857	55388
701.976	52761
702.095	55153
702.214	56911
702.333	54567
702.452	55066
702.571	57259
702.690	54012
702.809	54889
702.928	51265
703.047	49555
703.165	50652
703.284	51411
703.403	49814
703.522	50370
703.640	46946
703.759	47477
703.878	45736
703.997	47573
704.115	49438
704.234	46876
704.353	49018
704.471	45542
704.590	44267
704.708	42545
704.827	43610
704.946	42797
705.064	44074
705.183	43215
705.301	45588
705.420	41396
705.538	41185
705.656	39090
705.775	37674
705.893	42719
706.012	41310
706.130	39505
706.249	41004
706.367	38158
706.485	40257
706.604	38774
706.722	40410
706.840	51295
706.958	85498
707.077	57609
707.195	38828
707.313	37576
707.431	34527
707.549	35045
707.668	31630
707.786	38576
707.904	34748
708.022	37603
708.140	34625
708.258	33579
708.376	36175
708.494	32559
708.612	36797
708.730	35100
708.848	33362
708.966	35259
709.084	34721
709.202	35383
709.320	30775
709.438	32847
709.556	32909
709.674	30102
709.791	30980
709.909	29437
710.027	29691
710.145	28952
710.263	28917
710.380	29574
710.498	28072
710.616	29098
710.733	26998
710.851	28394
710.969	28153
711.086	28281
711.204	28067
711.322	28550
711.439	28178
711.557	25701
711.674	27404
711.792	27234
711.909	24913
712.027	26513
712.144	25761
712.262	26100
712.379	27884
712.497	26435
712.614	25044
712.732	25815
712.849	25527
712.966	25474
713.084	26927
713.201	23684
713.318	25497
713.436	28429
713.553	25136
713.670	27162
713.787	27462
713.905	25458
714.022	28012
714.139	28943
714.256	32111
714.373	44401
714.490	74727
714.608	169800
714.725	540452
714.842	501394
714.959	94784
715.076	43493
715.193	35251
715.310	31310
715.427	24813
715.544	25319
715.661	25063
715.778	23640
715.895	23840
716.011	24323
716.128	22367
716.245	23322
716.362	22932
716.479	19251
716.596	20811
716.713	23164
716.829	21306
716.946	20130
717.063	20213
717.180	18668
717.296	19476
717.413	19454
717.530	18871
717.646	18334
717.763	19056
717.880	18419
717.996	18145
718.113	18155
718.229	18118
718.346	17142
718.462	16876
718.579	18241
718.695	18038
718.812	17417
718.928	17982
719.045	17097
719.161	17256
719.277	17603
719.394	19028
719.510	19056
719.626	19596
719.743	23237
719.859	33677
719.975	64290
720.092	214998
720.208	406385
720.324	76879
720.440	26927
720.557	21120
720.673	18816
720.789	18268
720.905	16896
721.021	18152
721.137	15296
721.253	14793
721.369	15226
721.486	16040
721.602	14838
721.718	16184
721.834	15646
721.950	15016
722.066	14663
722.181	13894
722.297	14954
722.413	14666
722.529	15275
722.645	14508
722.761	14363
722.877	15346
722.993	15990
723.108	20740
723.224	18392
723.340	15648
723.456	15871
723.571	14433
723.687	13355
723.803	14422
723.918	14397
724.034	13705
724.150	14346
724.265	14021
724.381	13083
724.497	13417
724.612	14014
724.728	14065
724.843	12583
724.959	13052
725.074	13720
725.190	12681
725.305	12970
725.421	12390
725.536	13325
725.651	14960
725.767	13823
725.882	14155
725.997	13758
726.113	13324
726.228	12996
726.343	12638
726.459	13513
726.574	12901
726.689	12347
726.804	12999
726.920	12641
727.035	13166
727.150	12540
727.265	12741
727.380	12629
727.495	12485
727.610	12566
727.725	12249
727.841	12595
727.956	13407
728.071	12909
728.186	12335
728.301	12112
728.416	13843
728.531	13477
728.645	11454
728.760	12256
728.875	12105
728.990	11882
729.105	12084
729.220	11876
729.335	12871
729.449	12279
729.564	12320
729.679	12600
729.794	13769
729.908	11966
730.023	11812
730.138	13216
730.253	13583
730.367	12027
730.482	12960
730.596	13665
730.711	16637
730.826	27038
730.940	31459
731.055	18829
731.169	18463
731.284	18290
731.398	19069
731.513	19223
731.627	21235
731.742	27660
731.856	35522
731.970	34202
732.085	41511
732.199	55304
732.313	91693
732.428	203815
732.542	462375
732.656	288940
732.771	86562
732.885	53306
732.999	47423
733.113	49157
733.227	47249
733.342	45073
733.456	44559
733.570	42051
733.684	38274
733.798	38614
733.912	38489
734.026	39293
734.140	37788
734.254	37250
734.368	36830
734.482	36714
734.596	37046
734.710	35455
734.824	34706
734.938	34039
735.052	34796
735.166	34152
735.280	33448
735.393	33078
735.507	34156
735.621	33574
735.735	32306
735.849	33595
735.962	30989
736.076	32345
736.190	30620
736.303	31462
736.417	32483
736.531	29412
736.644	31101
736.758	31258
736.872	29666
736.985	30015
737.099	29439
737.212	28194
737.326	26917
737.439	30756
737.553	27538
737.666	29155
737.780	26974
737.893	29307
738.007	26185
738.120	29725
738.233	25043
738.347	27466
738.460	24804
738.573	28756
738.687	25316
738.800	27416
738.913	28051
739.026	26471
739.140	24364
739.253	25972
739.366	24901
739.479	25071
739.592	25764
739.705	22931
739.818	27819
739.932	23194
740.045	24859
740.158	23385
740.271	25187
740.384	24788
740.497	21127
740.610	24298
740.723	23047
740.836	23254
740.949	23142
741.062	26242
741.174	21787
741.287	21949
741.400	23110
741.513	19862
741.626	23309
741.739	21000
741.851	21721
741.964	23262
742.077	21037
742.189	18635
742.302	22227
742.415	21199
742.527	20475
742.640	20893
742.753	18348
742.865	20920
742.978	20687
743.090	18514
743.203	20562
743.316	18640
743.428	19055
743.541	19996
743.653	17654
743.766	20060
743.878	19989
743.990	17510
744.103	20059
744.215	19607
744.327	17316
744.440	21944
744.552	17312
744.664	16173
744.777	20706
744.889	18251
745.001	17229
745.113	19591
745.226	18000
745.338	15596
745.450	20431
745.562	16339
745.674	16437
745.786	19552
745.898	17108
746.010	15979
746.122	17629
746.234	18068
746.347	17632
746.459	17513
746.570	13576
746.682	17745
746.794	19963
746.906	13470
747.018	15928
747.130	16958
747.242	14461
747.354	15480
747.466	17103
747.577	14044
747.689	16070
747.801	17386
747.913	13641
748.024	14640
748.136	15672
748.248	14262
748.359	14720
748.471	15911
748.583	13230
748.694	13457
748.806	16050
748.918	14025
749.029	14101
749.141	15670
749.252	15129
749.364	12475
749.475	13712
749.587	12512
749.698	13262
749.809	14523
749.921	13212
750.032	13870
750.144	12795
750.255	12514
750.366	14158
750.478	12537
750.589	13321
750.700	12244
750.811	13993
750.923	12274
751.034	11713
751.145	14732
751.256	12322
751.367	11690
751.479	12867
751.590	13203
751.701	11745
751.812	10197
751.923	10487
752.034	13892
752.145	13282
752.256	12004
752.367	12329
752.478	13159
752.589	12057
752.700	13087
752.811	11445
752.922	12935
753.032	13202
753.143	12711
753.254	11231
753.365	13660
753.476	12352
753.586	11884
753.697	11765
753.808	11202
753.919	11030
754.029	11270
754.140	10746
754.251	11373
754.361	12181
754.472	11558
754.582	10224
754.693	10582
754.804	13096
754.914	11920
755.025	9854
755.135	11103
755.246	12869
755.356	11361
755.466	9826
755.577	9967
755.687	10775
755.798	10289
755.908	9598
756.018	10684
756.129	10622
756.239	10537
756.349	10779
756.460	10604
756.570	11729
756.680	9972
756.790	11148
756.900	12033
757.011	10936
757.121	10022
757.231	10327
757.341	10295
757.451	9751
757.561	9370
757.671	9852
757.781	10504
757.891	9706
758.001	8475
758.111	10475
758.221	11024
758.331	11364
758.441	9820
758.551	9884
758.661	11302
758.771	10636
758.880	10229
758.990	9969
759.100	9924
759.210	9647
759.320	10163
759.429	10559
759.539	11969
759.649	11635
759.758	11696
759.868	13846
759.978	13242
760.087	14330
760.197	13042
760.307	13259
760.416	12460
760.526	11978
760.635	12897
760.745	13152
760.854	13820
760.964	16137
761.073	15881
761.182	15891
761.292	13068
761.401	11640
761.511	9971
761.620	9839
761.729	10553
761.839	8462
761.948	9193
762.057	9345
762.166	10144
762.276	9254
762.385	10392
762.494	8411
762.603	8437
762.712	8786
762.822	8355
762.931	8259
763.040	7341
763.149	7923
763.258	8165
763.367	7979
763.476	8094
763.585	7896
763.694	7442
763.803	6822
763.912	8367
764.021	7842
764.130	6990
764.238	8842
764.347	8391
764.456	9009
764.565	8069
764.674	7350
764.783	6496
764.891	7724
765.000	8668
765.109	6675
765.217	6655
765.326	6401
765.435	7582
765.543	8125
765.652	6645
765.761	6955
765.869	7088
765.978	6612
766.086	9068
766.195	10259
766.303	18236
766.412	61327
766.520	50477
766.629	8732
766.737	7362
766.846	7382
766.954	6954
767.062	7636
767.171	7378
767.279	8586
767.387	6615
767.496	6634
767.604	5628
767.712	7108
767.820	7202
767.928	6547
768.037	6069
768.145	7348
768.253	5766
768.361	6518
768.469	6138
768.577	6330
768.685	6545
768.793	7570
768.901	6657
769.009	7867
769.117	7674
769.225	7732
769.333	8039
769.441	8255
769.549	8619
769.657	10477
769.765	22082
769.873	53885
769.981	16309
770.088	8626
770.196	9429
770.304	9802
770.412	9550
770.519	10047
770.627	10208
770.735	9862
770.842	9427
770.950	10671
771.058	11622
771.165	14905
771.273	16720
771.380	15881
771.488	23391
771.595	27142
771.703	23041
771.810	21854
771.918	22614
772.025	27041
772.133	31668
772.240	29077
772.348	34723
772.455	31635
772.562	28855
772.670	28336
772.777	29965
772.884	28993
772.991	26185
773.099	28859
773.206	26563
773.313	27842
773.420	28053
773.528	27755
773.635	25680
773.742	27996
773.849	24221
773.956	26963
774.063	24783
774.170	25806
774.277	26569
774.384	24311
774.491	24991
774.598	26132
774.705	24323
774.812	26052
774.919	23899
775.026	24232
775.133	24001
775.239	24367
775.346	23676
775.453	22937
775.560	21471
775.667	24502
775.773	23643
775.880	23571
775.987	22651
776.093	22472
776.200	25637
776.307	18286
776.413	20382
776.520	25654
776.627	20455
776.733	19911
776.840	18266
776.946	27636
777.053	21265
777.159	20678
777.266	19170
777.372	20584
777.478	22462
777.585	21945
777.691	17827
777.798	21605
777.904	18845
778.010	17741
778.117	21573
778.223	19227
778.329	20308
778.435	17012
778.542	20941
778.648	19058
778.754	16885
778.860	19420
778.966	19520
779.072	16340
779.178	18625
779.284	14436
779.391	18175
779.497	19679
779.603	19087
779.708	15474
779.815	15547
779.920	18096
780.026	15490
780.132	17944
780.238	16737
780.344	14135
780.450	20963
780.556	13165
780.661	13950
780.767	19396
780.873	12839
780.979	14735
781.085	18004
781.190	15174
781.296	15379
781.402	15568
781.507	16606
781.613	11951
781.719	15206
781.824	17343
781.930	13844
782.035	16058
782.141	17489
782.246	11460
782.352	13123
782.457	14904
782.563	15348
782.668	16170
782.773	12342
782.879	12651
782.984	14424
783.090	14068
783.195	14823
783.300	16140
783.405	12419
783.511	11540
783.616	12577
783.721	12941
783.826	12631
783.932	11495
784.037	13899
784.142	14150
784.247	12912
784.352	12935
784.457	10433
784.562	13369
784.667	14128
784.772	11234
784.877	8953
784.982	14520
785.087	14119
785.192	11012
785.297	11455
785.402	12601
785.507	11375
785.611	12729
785.716	9768
785.821	12494
785.926	13146
786.031	11515
786.135	12242
786.240	12069
786.345	9835
786.450	9930
786.554	12250
786.659	10475
786.763	11442
786.868	11238
786.973	12814
787.077	9340
787.182	9171
787.286	11591
787.391	13616
787.495	8206
787.600	8600
787.704	10475
787.809	11922
787.913	10403
788.017	9844
788.122	12020
788.226	9608
788.330	7010
788.435	10775
788.539	12532
788.643	9745
788.747	6969
788.852	9526
788.956	10143
789.060	10751
789.164	10275
789.268	8818
789.372	10729
789.476	8524
789.580	7586
789.684	8495
789.788	11704
789.892	10460
789.996	7548
790.100	7131
790.204	9542
790.308	11678
790.412	7243
790.516	6516
790.620	8417
790.724	11440
790.828	8915
790.931	6032
791.035	8899
791.139	8217
791.242	8497
791.346	8903
791.450	8944
791.554	8398
791.657	5345
791.761	8934
791.864	9473
791.968	9441
792.072	9805
792.175	6361
792.279	7712
792.382	7078
792.486	7407
792.589	7559
792.693	9029
792.796	7013
792.899	8276
793.003	8946
793.106	7198
793.209	8554
793.313	7046
793.416	5019
793.519	7600
793.623	9753
793.726	8430
793.829	6354
793.932	4513
794.035	5261
794.138	9522
794.242	10991
794.345	5994
794.448	5883
794.551	5476
794.654	8344
794.757	8115
794.860	6144
794.963	8012
795.066	6239
795.169	8174
795.272	7884
795.375	8596
795.477	5309
795.580	6015
795.683	6012
795.786	7989
795.889	5582
795.991	8074
796.094	6611
796.197	5835
796.300	8486
796.402	7707
796.505	5007
796.608	4832
796.710	6062
796.813	7356
796.915	7327
797.018	8079
797.120	6739
797.223	6589
797.326	8437
797.428	5709
797.530	4533
797.633	5240
797.735	7266
797.838	6532
797.940	9117
798.042	5861
798.145	7488
798.247	5923
798.349	3829
798.452	7170
798.554	6927
798.656	6945
798.758	8017
798.860	6181
798.962	6000
799.065	5060
799.167	4186
799.269	6140
799.371	7274
799.473	8335
799.575	7175
799.677	5821
799.779	6659
799.881	4932
799.983	8166
800.085	5138
800.187	6580
800.289	3688
800.390	6149
800.492	7725
800.594	6663
800.696	4249
800.798	4765
800.899	4983
801.001	5640
801.103	5575
801.205	5384
801.306	6048
801.408	5436
801.509	6271
801.611	5505
801.713	6226
801.814	4176
801.916	4138
802.017	4199
802.119	4732
802.220	5086
802.322	4916
802.423	6099
802.525	4113
802.626	4568
802.727	6806
802.829	5742
802.930	1663
803.031	5165
803.133	5131
803.234	5658
803.335	5761
803.436	4586
803.538	5259
803.639	3896
803.740	5438
803.841	5156
803.942	6523
804.043	4800
804.144	3568
804.245	4754
804.346	3581
804.447	4421
804.548	4002
804.649	5350
804.750	3934
804.851	4545
804.952	5952
805.053	4814
805.154	3776
805.255	5900
805.355	4560
805.456	4262
805.557	3877
805.658	3598
805.758	5474
805.859	4022
805.960	4847
806.061	4696
806.161	3900
806.262	5183
806.362	3773
806.463	3846
806.564	5772
806.664	4812
806.765	3419
806.865	4634
806.966	3644
807.066	3944
807.166	5213
807.267	4877
807.367	3408
807.468	4747
807.568	3925
807.668	4557
807.769	5610
807.869	4487
807.969	4801
808.069	3662
808.170	3314
808.270	3665
808.370	4723
808.470	4493
808.570	2940
808.670	4085
808.770	3836
808.870	3688
808.970	4040
809.070	4081
809.170	3479
809.271	4182
809.370	4104
809.470	4228
809.570	3869
809.670	3177
809.770	3929
809.870	4380
809.970	4118
810.070	4219
810.169	5375
810.269	3361
810.369	4816
810.469	4209
810.568	5152
810.668	3320
810.768	2834
810.867	4227
810.967	3616
811.066	3147
811.166	3548
811.265	4704
811.365	4158
811.464	3739
811.564	4126
811.663	5166
811.763	3040
811.862	4690
811.962	4344
812.061	4322
812.160	3254
812.260	4819
812.359	4424
812.458	3460
812.557	4552
812.657	3475
812.756	4160
812.855	4279
812.954	3744
813.053	3958
813.153	4099
813.252	3802
813.351	3796
813.450	4991
813.549	4034
813.648	4582
813.747	3753
813.846	5853
813.945	4874
814.044	4763
814.143	4349
814.242	5323
814.341	4709
814.439	5428
814.538	5519
814.637	5689
814.736	6234
814.835	6764
814.933	5967
815.032	7332
815.131	10982
815.229	19699
815.328	27791
815.427	20575
815.525	17373
815.624	17121
815.722	16591
815.821	17157
815.919	18789
816.018	17542
816.116	18123
816.215	17715
816.313	19349
816.412	22298
816.510	23565
816.609	24274
816.707	26521
816.805	22845
816.904	22901
817.002	23218
817.100	23887
817.198	24853
817.296	21963
817.395	23429
817.493	21604
817.591	20722
817.689	21095
817.787	21839
817.885	20339
817.983	18843
818.081	19991
818.179	21328
818.277	27439
818.375	23289
818.473	20746
818.571	18688
818.669	19849
818.767	22682
818.865	18846
818.963	15883
819.061	20630
819.158	18874
819.256	23593
819.354	20781
819.452	27828
819.549	23451
819.647	22776
819.745	17674
819.842	18757
819.940	18706
820.038	16848
820.135	15925
820.233	18373
820.330	17718
820.428	15907
820.525	18649
820.623	15301
820.720	15638
820.818	17437
820.915	17857
821.012	16215
821.110	15135
821.207	17453
821.304	15515
821.402	17679
821.499	17074
821.596	12743
821.693	14985
821.791	17136
821.888	15383
821.985	17171
822.082	12507
822.179	15369
822.276	16411
822.373	12522
822.470	13327
822.567	16515
822.664	13585
822.761	13768
822.858	16028
822.955	14253
823.052	12553
823.149	14544
823.246	15583
823.343	10609
823.440	12609
823.536	15537
823.633	14204
823.730	13125
823.827	13523
823.923	14029
824.020	11777
824.117	14943
824.213	14096
824.310	11557
824.407	10689
824.503	13554
824.600	12445
824.696	10727
824.793	14878
824.889	15738
824.986	11368
825.082	9093
825.179	10470
825.275	13619
825.371	16187
825.468	10071
825.564	6742
825.660	13093
825.757	16240
825.853	11799
825.949	10225
826.045	9876
826.142	11551
826.238	13571
826.334	12454
826.430	11821
826.526	7795
826.622	7613
826.718	13067
826.814	14419
826.910	11427
827.006	6816
827.102	7890
827.198	12122
827.294	13695
827.390	13334
827.486	9555
827.582	6670
827.678	8366
827.774	13923
827.869	8466
827.965	9908
828.061	8445
828.157	13263
828.252	11867
828.348	10139
828.444	8515
828.539	8447
828.635	10825
828.731	11398
828.826	8589
828.922	10355
829.017	12235
829.113	11676
829.208	6974
829.304	9680
829.399	13410
829.495	10077
829.590	9048
829.685	10734
829.781	10795
829.876	11433
829.971	4735
830.066	5953
830.162	8361
830.257	14266
830.352	9660
830.447	6941
830.543	7171
830.638	9559
830.733	11635
830.828	7832
830.923	9093
831.018	9891
831.113	11800
831.208	6668
831.303	5480
831.398	5972
831.493	9091
831.588	13894
831.683	7969
831.778	5311
831.873	6589
831.967	10932
832.062	9628
832.157	8025
832.252	8157
832.346	7390
832.441	9956
832.536	7909
832.631	8974
832.725	7296
832.820	7929
832.914	9630
833.009	6249
833.104	5439
833.198	6207
833.293	7894
833.387	10860
833.482	7981
833.576	7610
833.670	6927
833.765	7264
833.859	9009
833.954	9196
834.048	8334
834.142	6664
834.237	4991
834.331	7706
834.425	8295
834.519	6898
834.613	5585
834.708	6549
834.802	5815
834.896	7545
834.990	7819
835.084	5330
835.178	5145
835.272	6172
835.366	8726
835.460	9980
835.554	6479
835.648	4749
835.742	3852
835.836	5066
835.930	6036
836.024	8428
836.117	6981
836.211	6558
836.305	4328
836.399	5061
836.493	5670
836.586	7378
836.680	7230
836.774	5035
836.867	6318
836.961	4343
837.055	5637
837.148	4970
837.242	5967
837.335	6402
837.429	5081
837.522	4978
837.616	5374
837.709	5836
837.803	4773
837.896	7564
837.989	7106
838.083	4559
838.176	4022
838.269	3021
838.363	5461
838.456	5365
838.549	6945
838.642	4641
838.735	5100
838.829	5830
838.922	5247
839.015	5780
839.108	4009
839.201	4673
839.294	7233
839.387	5888
839.480	4274
839.573	5172
839.666	3201
839.759	4128
839.852	4290
839.945	6525
840.038	4169
840.131	3287
840.223	4919
840.316	5518
840.409	6141
840.502	7590
840.594	6685
840.687	3535
840.780	3490
840.873	2790
840.965	4089
841.058	5973
841.150	6278
841.243	2911
841.336	4658
841.428	4042
841.521	3848
841.613	5348
841.706	4082
841.798	3313
841.890	5387
841.983	2723
842.075	3704
842.167	3644
842.260	4551
842.352	5658
842.444	6117
842.537	3210
842.629	3190
842.721	3525
842.813	4201
842.905	4080
842.997	4805
843.090	4982
843.182	3465
843.274	2057
843.366	4036
843.458	3601
843.550	4800
843.642	4241
843.734	4629
843.826	3318
843.918	4050
844.009	4140
844.101	3306
844.193	4898
844.285	4433
844.377	4809
844.469	3870
844.560	916
844.652	3765
844.744	4069
844.835	3428
844.927	5037
845.019	4583
845.110	2944
845.202	4960
845.293	2959
845.385	2839
845.476	4183
845.568	5268
845.659	2842
845.751	3963
845.842	4213
845.934	3336
846.025	2254
846.116	3585
846.208	3745
846.299	2582
846.390	3826
846.482	3037
846.573	3988
846.664	4039
846.755	3546
846.846	3931
846.937	2195
847.029	3483
847.120	3251
847.211	3208
847.302	4819
847.393	4106
847.484	3900
847.575	1746
847.666	2040
847.757	2629
847.847	3078
847.938	5349
848.029	4882
848.120	2985
848.211	2532
848.302	1895
848.392	1902
848.483	3901
848.574	3197
848.664	3646
848.755	3594
848.846	3216
848.936	2431
849.027	4216
849.118	4017
849.208	3048
849.299	3687
849.389	6280
849.480	8949
849.570	14472
849.661	24869
849.751	40246
849.841	18897
849.932	5584
850.022	4342
850.112	2718
850.203	3842
850.293	3198
850.383	3186
850.474	2338
850.564	2715
850.654	2565
850.744	2258
850.834	2628
850.924	3352
851.014	5455
851.104	4392
851.194	1958
851.284	2834
851.374	2392
851.464	1494
851.554	2732
851.644	3186
851.734	3670
851.824	3956
851.914	3458
852.004	3793
852.094	2462
852.183	2245
852.273	2443
852.363	2227
852.452	2977
852.542	3548
852.632	2024
852.721	2989
852.811	2672
852.901	4484
852.990	4070
853.080	4185
853.169	3469
853.259	2846
853.348	3843
853.438	4213
853.527	5173
853.617	6183
853.706	11295
853.795	16443
853.885	29959
853.974	47706
854.063	78701
854.152	101300
854.242	55895
854.331	19574
854.420	11173
854.509	8406
854.598	6388
854.687	5865
854.777	5157
854.866	3679
854.955	4082
855.044	2450
855.133	3608
855.222	3767
855.311	3581
855.400	2469
855.488	2352
855.577	2951
855.666	3375
855.755	3603
855.844	3849
855.933	2740
856.021	4039
856.110	2644
856.199	2014
856.288	1824
856.376	1986
856.465	1912
856.554	3217
856.642	3425
856.731	3804
856.819	4064
856.908	3418
856.996	2614
857.085	2404
857.173	2346
857.262	1782
857.350	2486
857.438	2078
857.527	2375
857.615	3123
857.703	3326
857.792	2089
857.880	2458
857.968	2475
858.056	3042
858.145	2455
858.233	3206
858.321	2331
858.409	3027
858.497	3056
858.585	1990
858.673	3043
858.761	1860
858.849	2386
858.937	1815
859.025	3095
859.113	3201
859.201	3299
859.289	4627
859.377	2835
859.465	3098
859.552	2854
859.640	2225
859.728	3561
859.816	3198
859.903	3052
859.991	2474
860.079	3048
860.166	2728
860.254	2376
860.342	3037
860.429	3013
860.517	2290
860.604	2257
860.692	2099
860.779	2815
860.867	2357
860.954	3416
861.042	4202
861.129	3359
861.216	3377
861.304	3409
861.391	2938
861.478	2862
861.565	3141
861.653	3616
861.740	2211
861.827	2616
861.914	2772
862.001	3473
862.089	3247
862.176	3491
862.263	2172
862.350	2996
862.437	2731
862.524	2561
862.611	2879
862.698	3088
862.785	3597
862.871	4458
862.958	4578
863.045	3327
863.132	4040
863.219	3374
863.306	1588
863.392	4160
863.479	3233
863.566	3297
863.652	3518
863.739	3630
863.826	4731
863.912	4107
863.999	3706
864.086	4234
864.172	4776
864.259	5954
864.345	4885
864.432	4730
864.518	5276
864.604	5044
864.691	5513
864.777	5786
864.863	7639
864.950	10831
865.036	13917
865.122	24879
865.209	25940
865.295	22339
865.381	19942
865.467	20508
865.553	19913
865.639	20304
865.726	23999
865.812	30914
865.898	40215
865.984	52954
866.070	76440
866.156	79791
866.242	42816
866.328	25045
866.414	20499
866.499	19226
866.585	18068
866.671	18223
866.757	18064
866.843	17709
866.928	17836
867.014	16283
867.100	17618
867.186	16637
867.271	16506
867.357	17737
867.442	16799
867.528	16989
867.614	16120
867.699	16288
867.785	16328
867.870	15752
867.956	15341
868.041	15737
868.127	15337
868.212	15546
868.297	15647
868.383	15913
868.468	16082
868.553	16503
868.639	15065
868.724	16180
868.809	14948
868.894	14708
868.979	15272
869.065	14748
869.150	12586
869.235	14136
869.320	14415
869.405	13008
869.490	15946
869.575	13832
869.660	10862
869.745	14853
869.830	16864
869.915	12622
870.000	13236
870.085	12548
870.169	16347
870.254	16767
870.339	11331
870.424	11559
870.509	13361
870.593	15825
870.678	15434
870.763	13136
870.847	10951
870.932	13997
871.016	13483
871.101	10001
871.186	12412
871.270	15477
871.355	11491
871.439	11980
871.523	14719
871.608	11208
871.692	9801
871.777	13911
871.861	13332
871.945	11513
872.030	12916
872.114	11634
872.198	11884
872.282	11805
872.367	11747
872.451	11305
872.535	10816
872.619	12292
872.703	11181
872.787	12708
872.871	11698
872.955	9861
873.039	8822
873.123	12071
873.207	13161
873.291	8145
873.375	10549
873.459	12846
873.543	10842
873.627	10801
873.711	9341
873.794	12351
873.878	11272
873.962	9151
874.045	9424
874.129	10564
874.137	10616
874.213	11145
874.245	10729
874.296	10069
874.352	9299
874.380	8928
874.460	9800
874.464	9838
874.547	8309
874.568	8838
874.631	10444
874.676	10272
874.714	10108
874.784	10634
874.798	10752
874.881	8565
874.892	8471
874.965	7755
874.999	8767
875.048	10231
875.107	10032
875.131	9936
875.215	6731
875.215	6730
875.298	7213
875.323	7743
875.381	8982
875.430	10866
875.465	12192
875.538	9983
875.548	9680
875.631	7060
875.646	6907
875.714	6254
875.753	6700
875.798	7172
875.861	8963
875.881	9533
875.964	8170
875.968	8087
876.047	6584
876.076	7187
876.130	8383
876.183	8740
876.213	8858
876.291	9670
876.296	9736
876.379	7743
876.398	7491
876.462	6515
876.506	6060
876.545	5742
876.613	6334
876.628	6441
876.711	8356
876.721	8373
876.794	8618
876.828	8654
876.877	8457
876.935	6181
876.960	5382
877.043	6194
877.043	6203
877.125	7514
877.150	8166
877.208	9744
877.258	7934
877.291	6640
877.365	5604
877.374	5490
877.456	6527
877.472	6346
877.539	5709
877.579	6805
877.622	7828
877.687	7487
877.704	7415
877.787	6728
877.794	6757
877.869	6948
877.901	7038
877.952	7067
878.008	5022
878.034	4193
878.115	4439
878.117	4438
878.199	5380
878.222	5593
878.282	6210
878.329	6862
878.364	7267
878.437	6330
878.447	6195
878.529	4843
878.544	4850
878.611	4803
878.651	5075
878.694	5458
878.758	6089
878.776	6241
878.858	5594
878.865	5539
878.941	4989
878.972	4887
879.023	4486
879.078	4981
879.105	5370
879.185	5914
879.187	5911
879.269	5610
879.292	5585
879.351	5611
879.399	4824
879.433	4306
879.506	4604
879.516	4637
879.598	5219
879.613	4989
879.680	3774
879.720	4526
879.762	5502
879.827	4873
879.844	4601
879.926	4061
879.933	4129
880.007	5104
880.040	4671
880.089	3840
880.147	4293
880.171	4593
880.253	5640
880.254	5642
880.335	4220
880.360	4378
880.417	4896
880.467	4904
880.499	5008
880.574	4302
880.580	4232
880.662	5353
880.680	5085
880.744	3487
880.787	3006
880.825	2966
880.893	4741
880.907	4988
880.989	4003
881.000	4005
881.070	4508
881.106	4252
881.152	3684
881.213	3424
881.233	3368
881.315	3672
881.319	3733
881.396	4673
881.426	4276
881.478	3684
881.532	4562
881.559	4836
881.639	3928
881.641	3904
881.722	3749
881.745	3810
881.803	3927
881.852	4110
881.885	4123
881.958	2874
881.966	2761
882.047	3945
882.064	3784
882.129	2974
882.171	2516
882.210	1952
882.277	1879
882.291	2031
882.372	4052
882.383	4181
882.454	4261
882.489	3995
882.535	3831
882.596	4024
882.616	4050
882.697	3465
882.702	3424
882.778	2301
882.808	2268
882.859	2184
882.914	2247
882.940	2540
883.020	2990
883.021	2981
883.102	3152
883.127	3340
883.183	4437
883.233	4260
883.264	3502
883.339	2127
883.345	2075
883.426	1993
883.445	2054
883.507	2029
883.551	2235
883.587	2749
883.657	3563
883.668	3594
883.749	3189
883.763	3072
883.830	2481
883.869	2442
883.910	2056
883.975	1945
883.991	2115
884.072	2541
884.081	2612
884.152	3236
884.187	3626
884.233	3856
884.292	3191
884.314	2734
884.394	1053
884.398	1032
884.475	1283
884.504	1493
884.555	1912
884.610	1704
884.636	1739
884.716	3043
884.716	3037
884.797	3117
884.821	2871
884.877	2519
884.927	2564
884.958	2556
885.033	2208
885.038	2162
885.118	1921
885.139	1866
885.199	1673
885.244	1786
885.279	2179
885.350	2929
885.359	2962
885.439	3102
885.456	2963
885.520	2149
885.561	1966
885.600	1807
885.667	1810
885.680	1921
885.760	2495
885.773	2548
885.840	1483
885.878	1026
885.920	1085
885.984	1470
886.000	1596
886.080	1747
886.089	1840
886.160	2303
886.195	2144
886.240	2015
886.300	2173
886.320	2133
886.400	2439
886.406	2410
886.480	1126
886.511	910
886.560	1341
886.616	1620
886.640	1455
886.720	1029
886.722	1030
886.800	1737
886.827	1933
886.879	1573
886.932	1392
886.959	1728
887.038	2695
887.039	2677
887.119	1654
887.143	1436
887.198	1504
887.248	1533
887.278	1491
887.354	1414
887.358	1427
887.437	1776
887.459	1995
887.517	2000
887.564	1676
887.596	1443
887.669	1160
887.676	1134
887.755	943
887.774	929
887.835	1185
887.880	1361
887.914	1404
887.985	1436
887.994	1493
888.073	2472
888.090	2580
888.153	2199
888.195	1946
888.232	1608
888.300	1170
888.311	1104
888.391	681
888.405	621
888.470	761
888.510	838
888.549	932
888.615	1250
888.628	1333
888.708	1885
888.720	1950
888.787	1758
888.825	1688
888.866	1361
888.930	945
888.945	962
889.024	1122
889.035	1154
889.103	1122
889.140	1066
889.182	996
889.245	1056
889.261	1192
889.340	1812
889.349	1891
889.419	1235
889.454	940
889.498	903
889.559	906
889.577	935
889.656	1099
889.664	1131
889.735	887
889.768	787
889.814	496
889.873	128
889.978	744
890.083	1011
890.187	1118
890.292	672
890.397	379
890.501	423
890.606	804
890.710	980
890.815	1490
890.919	752
891.024	1263
891.128	154
891.233	917
891.337	1616
891.442	1072
891.546	425
891.650	691
891.755	661
891.859	1870
891.963	1222
892.068	1501
892.172	823
892.276	686
892.380	1125
892.484	591
892.589	1403
892.693	225
892.797	458
892.901	693
893.005	180
893.109	1196
893.213	755
893.317	916
893.421	515
893.525	518
893.629	788
893.733	361
893.837	171
893.941	118
894.045	1382
894.148	604
894.252	950
894.356	1089
894.460	1036
894.564	347
894.667	-31
894.771	613
894.875	-394
894.978	1165
895.082	1074
895.186	809
895.289	1366
895.393	1127
895.496	1543
895.600	1721
895.703	436
895.807	510
895.910	559
896.014	1595
896.117	604
896.221	821
896.324	346
896.427	1106
896.531	-41
896.634	1052
896.737	643
896.840	1090
896.944	1025
897.047	1534
897.150	360
897.253	887
897.356	64
897.460	802
897.563	220
897.666	672
897.769	1003
897.872	1188
897.975	682
898.078	134
898.181	251
898.284	1106
898.387	639
898.490	1603
898.593	266
898.695	651
898.798	-133
898.901	1427
899.004	920
899.107	1132
899.209	882
899.312	1426
899.415	1139
899.518	833
899.620	53
899.723	-211
899.826	806
899.928	1363
900.031	56
900.133	2075
900.236	455
900.338	-16
900.441	30
900.543	1029
900.646	434
900.748	1079
900.851	915
900.953	799
901.055	25
901.158	636
901.260	290
901.362	766
901.465	-278
901.567	805
901.669	748
901.771	1158
901.873	128
901.976	335
902.078	264
902.180	59
902.282	166
902.384	1124
902.486	959
902.588	1207
902.690	544
902.792	257
902.894	1475
902.996	1432
903.098	1157
903.200	-192
903.302	549
903.404	124
903.505	686
903.607	222
903.709	673
903.811	1824
903.913	327
904.014	865
904.116	218
904.218	872
904.319	243
904.421	1950
904.523	926
904.624	851
904.726	257
904.827	938
904.929	899
905.030	167
905.132	563
905.233	1001
905.335	949
905.436	628
905.537	196
905.639	780
905.740	457
905.841	894
905.943	328
906.044	25
906.145	1284
906.247	-111
906.348	61
906.449	154
906.550	521
906.651	485
906.752	-225
906.854	473
906.955	-16
907.056	813
907.157	577
907.258	1651
907.359	-146
907.460	1021
907.561	183
907.662	824
907.762	470
907.863	66
907.964	430
908.065	623
908.166	485
908.267	533
908.367	-183
908.468	418
908.569	825
908.670	1211
908.770	121
908.871	899
908.971	408
909.072	391
909.173	370
909.273	551
909.374	979
909.474	1046
909.575	-26
909.675	613
909.776	853
909.876	923
909.977	514
910.077	1460
910.177	-237
910.278	1150
910.378	512
910.478	958
910.579	955
910.679	612
910.779	55
910.879	915
910.980	518
911.080	1245
911.180	494
911.280	835
911.380	-466
911.480	572
911.580	117
911.680	33
911.780	116
911.880	617
911.980	332
912.080	106
912.180	126
912.280	812
912.380	785
912.480	509
912.580	-417
912.679	566
912.779	956
912.879	339
912.979	-264
913.078	925
913.178	637
913.278	839
913.377	4
913.477	-478
913.577	698
913.676	1339
913.776	473
913.875	1090
913.975	465
914.074	567
914.174	852
914.273	-109
914.373	424
914.472	985
914.572	-74
914.671	662
914.770	64
914.870	682
914.969	-320
915.068	1191
915.167	741
915.267	154
915.366	987
915.465	544
915.564	1052
915.663	844
915.763	-302
915.862	1006
915.961	432
916.060	417
916.159	333
916.258	695
916.357	1185
916.456	781
916.555	388
916.654	902
916.752	850
916.851	769
916.950	176
917.049	613
917.148	403
917.247	394
917.345	-96
917.444	507
917.543	-259
917.642	1564
917.740	-9
917.839	640
917.937	1391
918.036	1629
918.135	1005
918.233	686
918.332	-42
918.430	886
918.529	351
918.627	1175
918.726	934
918.824	134
918.923	374
919.021	-522
919.119	217
919.218	346
919.316	-429
919.414	1051
919.512	552
919.611	1083
919.709	774
919.807	1249
919.905	523
920.003	1250
920.102	642
920.200	623
920.298	886
920.396	868
920.494	1256
920.592	1202
920.690	126
920.788	212
920.886	515
920.984	1176
921.082	74
921.180	1695
921.277	394
921.375	2237
921.473	1176
921.571	2791
921.669	2165
921.766	1297
921.864	2020
921.962	2706
922.060	2167
922.157	1469
922.255	2034
922.352	2351
922.450	2001
922.548	2277
922.645	2746
922.743	2693
922.840	5041
922.938	7939
923.035	5600
923.133	5453
923.230	6329
923.327	8165
923.425	7685
923.522	6854
923.619	7114
923.717	5504
923.814	5561
923.911	5496
924.008	5914
924.106	5576
924.203	5135
924.300	5246
924.397	4903
924.494	5879
924.591	5571
924.688	5604
924.786	5424
924.883	6083
924.979	4301
925.077	5634
925.173	4904
925.270	5139
925.367	4675
925.464	6838
925.561	5737
925.658	6330
925.755	3360
925.852	5266
925.948	4844
926.045	4593
926.142	4475
926.239	5542
926.335	3778
926.432	4337
926.529	4706
926.625	6275
926.722	4252
926.818	4018
926.915	5140
927.011	4475
927.108	4628
927.204	5377
927.301	4050
927.397	4535
927.494	5132
927.590	3105
927.687	4339
927.783	6244
927.879	5535
927.976	4876
928.072	3061
928.168	5356
928.264	4030
928.361	4057
928.457	4912
928.553	4131
928.649	4623
928.745	4828
928.841	3124
928.937	4481
929.033	4790
929.129	3784
929.225	4615
929.321	4726
929.417	3280
929.513	4764
929.609	3884
929.705	2806
929.801	4087
929.897	3657
929.993	3549
930.089	4368
930.184	3460
930.280	3810
930.376	5087
930.471	3519
930.567	2957
930.663	3286
930.758	2081
930.854	3477
930.950	3160
931.045	3261
931.141	3525
931.236	4837
931.332	3377
931.427	2433
931.523	4683
931.618	3866
931.714	1085
931.809	3321
931.905	3424
932.000	2636
932.095	1856
932.191	4688
932.286	4710
932.381	3722
932.476	2688
932.572	3090
932.667	1898
932.762	2634
932.857	3063
932.952	3931
933.047	3705
933.142	2153
933.237	2331
933.332	3536
933.427	3853
933.522	3083
933.617	1939
933.712	3198
933.807	2993
933.902	4227
933.997	3809
934.092	3292
934.187	1426
934.282	3691
934.376	2591
934.471	3497
934.566	2181
934.661	2295
934.755	3569
934.850	4293
934.945	3104
935.039	2228
935.134	1592
935.228	2779
935.323	3989
935.417	2592
935.512	1373
935.606	1999
935.701	3216
935.795	2944
935.890	2381
935.984	2397
936.079	1320
936.173	2584
936.267	2052
936.362	2653
936.456	2250
936.550	3286
936.644	2187
936.738	1867
936.833	1887
936.927	1073
937.021	1742
937.115	1798
937.209	2508
937.303	2930
937.397	1574
937.491	1805
937.585	3133
937.679	3197
937.773	1469
937.867	2538
937.961	653
938.055	2872
938.149	3075
938.243	1130
938.337	462
938.430	1378
938.524	2323
938.618	2411
938.712	1129
938.805	1878
938.899	2184
938.993	3493
939.086	1728
939.180	468
939.274	712
939.367	1665
939.461	2661
939.554	2044
939.648	1114
939.741	2184
939.835	911
939.928	3786
940.022	2289
940.115	1736
940.208	2304
940.302	3184
940.395	2805
940.488	1446
940.582	2162
940.675	1356
940.768	1454
940.861	2848
940.954	3014
941.048	1131
941.141	445
941.234	1077
941.327	1456
941.420	2076
941.513	2402
941.606	2023
941.699	2300
941.792	2004
941.885	762
941.978	2329
942.071	1514
942.164	1162
942.257	1403
942.349	2188
942.442	1844
942.535	1027
942.628	1503
942.721	1798
942.813	901
942.906	2283
942.999	1617
943.091	854
943.184	1572
943.277	804
943.369	358
943.462	1036
943.554	1550
943.647	944
943.739	1805
943.832	2783
943.924	360
944.017	712
944.109	441
944.201	1531
944.294	1195
944.386	1825
944.478	633
944.571	1419
944.663	1340
944.755	1491
944.847	1677
944.940	1795
945.032	444
945.124	1384
945.216	1696
945.308	1946
945.400	1311
945.492	1787
945.584	759
945.676	2407
945.768	894
945.860	1620
945.952	1207
946.044	1876
946.136	823
946.228	696
946.320	516
946.412	1241
946.503	1793
946.595	2541
946.687	738
946.779	579
946.870	613
946.962	1660
947.054	1066
947.145	2124
947.237	586
947.329	1453
947.420	1622
947.512	1064
947.603	-258
947.695	997
947.786	134
947.878	808
947.969	939
948.061	531
948.152	566
948.243	334
948.335	-295
948.426	1085
948.517	620
948.609	932
948.700	1364
948.791	763
948.882	255
948.973	369
949.065	1100
949.156	790
949.247	-79
949.338	1156
949.429	253
949.520	445
949.611	302
949.702	2178
949.793	845
949.884	877
949.975	899
950.066	254
950.157	289
950.247	1114
950.338	337
950.429	-152
950.520	565
950.611	1010
950.701	358
950.792	1590
950.883	1004
950.973	410
951.064	1156
951.155	1704
951.245	1277
951.336	865
951.427	398
951.517	1569
951.608	1421
951.698	858
951.788	301
951.879	212
951.969	-266
952.060	682
952.150	807
952.240	1138
952.331	-892
952.421	1606
952.511	-532
952.602	274
952.692	-875
952.782	1324
952.872	-87
952.962	775
953.052	-75
953.143	-17
953.233	2
953.323	1430
953.413	-51
953.503	1071
953.593	295
953.683	1179
953.773	-311
953.863	714
953.953	-49
954.042	556
954.132	898
954.222	697
954.312	451
954.402	54
954.492	191
954.581	1127
954.671	312
954.761	-385
954.850	1010
954.940	877
955.030	-242
955.119	303
955.209	-202
955.298	726
955.388	793
955.477	1872
955.567	20
955.656	517
955.746	219
955.835	-224
955.925	111
956.014	646
956.103	355
956.193	1033
956.282	620
956.371	1213
956.461	-43
956.550	211
956.639	145
956.728	541
956.817	834
956.906	526
956.995	710
957.085	-62
957.174	706
957.263	105
957.352	313
957.441	537
957.530	439
957.619	415
957.708	-52
957.796	-223
957.885	151
957.974	146
958.063	260
958.152	-655
958.241	215
958.329	463
958.418	1
958.507	-314
958.596	719
958.684	-167
958.773	206
958.861	-520
958.950	-364
959.039	-13
959.127	185
959.216	734
959.304	-198
959.393	-254
959.481	293
959.570	-105
959.658	-200
959.746	447
959.835	-517
959.923	217
960.011	-596
960.100	451
960.188	412
960.276	328
960.365	-371
960.453	-356
960.541	-1155
960.629	679
960.717	-581
960.805	-802
960.893	42
960.981	-184
961.069	1460
961.158	711
961.245	1220
961.333	1590
961.421	-404
961.509	700
961.597	359
961.685	17
961.773	729
961.861	210
961.949	750
962.036	-183
962.124	130
962.212	863
962.299	-165
962.387	-419
962.475	-212
962.562	-515
962.650	126
962.738	646
962.825	-530
962.913	312
963.000	-469
963.088	364
963.175	-307
963.263	-235
963.350	-708
963.438	-327
963.525	-170
963.612	722
963.700	-738
963.787	1236
963.874	32
963.962	-167
964.049	-317
964.136	-346
964.223	-691
964.310	58
964.398	-280
964.485	-27
964.572	-72
964.659	1055
964.746	92
964.833	419
964.920	-760
965.007	225
965.094	188
965.181	29
965.268	289
965.355	373
965.441	-24
965.528	79
965.615	768
965.702	459
965.789	-237
965.875	530
965.962	-72
966.049	-837
966.136	-553
966.222	862
966.309	811
966.395	-273
966.482	427
966.569	-664
966.655	-6
966.742	-368
966.828	26
966.915	-410
967.001	260
967.087	-362
967.174	-245
967.260	1204
967.347	26
967.433	51
967.519	-342
967.605	-746
967.692	-217
967.778	235
967.864	192
967.950	-265
968.036	-1086
968.123	85
968.209	161
968.295	-1079
968.381	720
968.467	784
968.553	-1978
968.639	392
968.725	-877
968.811	-33
968.897	387
968.983	325
969.069	-390
969.154	115
969.240	-345
969.326	-415
969.412	-1273
969.497	-681
969.583	-177
969.669	894
969.755	39
969.840	-33
969.926	1262
970.012	826
970.097	985
970.183	-398
970.268	-102
970.354	348
970.439	-1182
970.525	351
970.610	-976
970.696	354
970.781	212
970.866	-853
970.952	212
971.037	-567
971.122	-341
971.208	-134
971.293	-141
971.378	-931
971.463	-817
971.549	800
971.634	395
971.719	367
971.804	-321
971.889	240
971.974	-169
972.059	215
972.144	-497
972.229	642
972.314	-95
972.399	276
972.484	-155
972.569	499
972.654	-1612
972.739	1246
972.824	-823
972.908	400
972.993	-573
973.078	681
973.163	-741
973.247	371
973.332	-1132
973.417	962
973.501	-1663
973.586	199
973.671	-724
973.755	-622
973.840	89
973.924	799
974.009	-156
974.093	198
974.178	661
974.262	-14
974.346	-582
974.431	575
974.515	-13
974.600	-136
974.684	135
974.768	-105
974.852	716
974.937	-261
975.021	782
975.105	-125
975.189	-136
975.273	336
975.358	-953
975.442	-716
975.526	27
975.610	-342
975.694	-1037
975.778	626
975.862	217
975.946	-2146
976.030	1115
976.114	-541
976.198	-649
976.281	-117
976.365	254
976.449	49
976.533	725
976.617	-47
976.700	-595
976.784	-449
976.868	-618
976.951	-294
977.035	-328
977.119	-1005
977.202	-373
977.286	65
977.369	360
977.453	1610
977.536	-72
977.620	-176
977.703	426
977.787	334
977.870	774
977.953	1573
978.037	-1154
978.120	1729
978.203	-340
978.287	823
978.370	-575
978.453	-356
978.536	-773
978.620	1159
978.703	-170
978.786	-944
978.869	-1466
978.952	-462
979.035	1556
979.118	472
979.201	-580
979.284	946
979.367	-582
979.450	187
979.533	-797
979.616	-127
979.699	-429
979.782	814
979.865	429
979.948	586
980.030	-2
980.113	-16
980.196	-799
980.279	1277
980.361	-45
980.444	-811
980.526	825
980.609	588
980.692	1154
980.774	745
980.857	-1063
980.939	1685
981.022	267
981.104	719
981.187	-755
981.269	940
981.352	248
981.434	-130
981.516	-721
981.599	712
981.681	961
981.763	222
981.846	-45
981.928	382
982.010	-60
982.092	4
982.174	448
982.256	-509
982.339	-197
982.421	694
982.503	298
982.585	-731
982.667	96
982.749	722
982.831	267
982.913	273
982.995	701
983.077	-590
983.158	1128
983.240	-880
983.322	568
983.404	2235
983.486	756
983.568	1868
983.649	560
983.731	1280
983.813	187
983.894	808
983.976	-451
984.058	-136
984.139	1416
984.221	-363
984.302	1148
984.384	385
984.465	-191
984.547	961
984.628	-197
984.710	1232
984.791	-488
984.872	828
984.954	-58
985.035	842
985.116	-769
985.198	390
985.279	1443
985.360	837
985.441	-470
985.522	833
985.604	-314
985.685	-1559
985.766	1784
985.847	1910
985.928	-159
986.009	919
986.090	619
986.171	452
986.252	185
986.333	906
986.414	1115
986.495	1228
986.576	-454
986.656	796
986.737	1131
986.818	-311
986.899	68
986.980	569
987.060	632
987.141	745
987.222	687
987.302	179
987.383	1206
987.464	878
987.544	1472
987.625	979
987.705	1451
987.786	974
987.866	990
987.947	1450
988.027	1003
988.108	682
988.188	1236
988.268	1188
988.349	1477
988.429	1054
988.509	754
988.589	226
988.670	-977
988.750	1797
988.830	142
988.910	1022
988.990	387
989.070	1040
989.151	834
989.231	926
989.311	1390
989.391	698
989.471	1252
989.551	1251
989.631	-138
989.711	746
989.791	-742
989.870	-77
989.950	455
990.030	398
990.110	1384
990.190	731
990.269	-361
990.349	-228
990.429	652
990.509	470
990.588	-289
990.668	1282
990.747	481
990.827	579
990.907	595
990.986	940
991.066	387
991.145	-259
991.225	1079
991.304	192
991.383	275
991.463	363
991.542	534
991.622	-194
991.701	-408
991.780	169
991.859	326
991.939	775
992.018	848
992.097	595
992.176	450
992.256	24
992.335	-288
992.414	927
992.493	152
992.572	573
992.651	552
992.730	456
992.809	-401
992.888	-161
992.967	-262
993.046	724
993.125	-1021
993.203	293
993.282	389
993.361	60
993.440	422
993.519	-128
993.597	-351
993.676	412
993.755	254
993.834	218
993.912	-930
993.991	781
994.069	-292
994.148	-656
994.226	-135
994.305	134
994.384	126
994.462	705
994.540	-1075
994.619	-222
994.697	-285
994.776	-156
994.854	-111
994.932	-1060
995.011	-658
995.089	-368
995.167	-660
995.245	-458
995.324	-1762
995.402	741
995.480	-657
995.558	1328
995.636	-1079
995.714	-668
995.792	419
995.870	-197
995.948	-465
996.026	-679
996.104	-1555
996.182	-823
996.260	-1378
996.338	-313
996.416	-1411
996.494	-312
996.572	722
996.649	-622
996.727	-1795
996.805	-76
996.883	-349
996.960	13
997.038	-1195
997.116	-2
997.193	-1206
997.271	-533
997.348	-2049
997.426	-886
997.504	-1378
997.581	737
997.658	-580
997.736	-1069
997.813	-1763
997.891	597
997.968	-642
998.046	-353
998.123	-571
998.200	-239
998.277	-1154
998.355	-814
998.432	-2180
998.509	-935
998.586	-630
998.663	-61
998.741	-1896
998.818	-1106
998.895	-1098
998.972	-117
999.049	-250
999.126	-1433
999.203	-802
999.280	-699
999.357	-1531
999.434	-538
999.511	-1247
999.587	-552
999.664	-1552
999.741	-537
999.818	-571
999.895	-596
999.971	-1496
1000.048	-1114
1000.125	-24
1000.202	-1552
1000.278	-1329
1000.355	86
1000.431	-1066
1000.508	-1499
1000.584	-672
1000.661	-638
1000.738	-1407
1000.814	-1206
1000.890	-664
1000.967	-1014
1001.043	-851
1001.120	-2029
1001.196	-955
1001.272	-932
1001.349	-2029
1001.425	-63
1001.501	-1214
1001.577	-1479
1001.654	-662
1001.730	-1362
1001.806	-1227
1001.882	-1857
1001.958	-1422
1002.034	-429
1002.110	-1125
1002.186	-915
1002.262	-1123
1002.338	-1681
1002.414	-1197
1002.490	-413
1002.566	-1981
1002.642	-1714
1002.718	-1060
1002.794	-486
1002.870	-1728
1002.945	-724
1003.021	-1513
1003.097	-577
1003.173	-1053
1003.248	-2061
1003.324	-1630
1003.400	-971
1003.475	-2493
1003.551	-414
1003.626	-1741
1003.702	-1085
1003.777	-1895
1003.853	-1342
1003.928	-1953
1004.004	-1547
1004.079	-355
1004.155	-883
1004.230	-2077
1004.305	-810
1004.381	-1944
1004.456	-1454
1004.531	-2435
1004.607	-1129
1004.682	-1716
1004.757	-1440
1004.832	-1750
1004.907	-1259
1004.982	-594
1005.057	-873
1005.133	-2265
1005.208	-1863
1005.283	-1131
1005.358	-179
1005.433	-1888
1005.508	-734
1005.583	-2493
1005.657	-1371
1005.732	-1416
1005.807	-1181
1005.882	-1967
1005.957	-1418
1006.032	-1248
1006.106	-1458
1006.181	-1288
1006.256	-1038
1006.331	-1911
1006.405	-1626
1006.480	-1084
1006.554	-2234
1006.629	-1419
1006.704	-918
1006.778	-1139
1006.853	-554
1006.927	-1377
1007.002	-2307
1007.076	-896
1007.150	-1242
1007.225	-1667
1007.299	-1594
1007.373	-2435
1007.448	-1179
1007.522	-433
1007.596	-867
1007.671	-2270
1007.745	-810
1007.819	-2013
1007.893	-1635
1007.967	-1958
1008.041	-2875
1008.115	-1293
1008.190	-2032
1008.264	-1660
1008.338	-2311
1008.412	-1964
1008.486	-1240
1008.560	-2096
1008.633	-1603
1008.707	-1481
1008.781	108
1008.855	-2061
1008.929	-1549
1009.003	-1744
1009.076	-1749
1009.150	-1514
1009.224	-901
1009.298	-1592
1009.371	-2206
1009.445	-947
1009.519	-1338
1009.592	-2721
1009.666	-1269
1009.739	-1661
1009.813	-2523
1009.886	-1062
1009.960	-1815
1010.033	-811
1010.107	-1449
1010.180	-2136
1010.253	-1404
1010.327	-2616
1010.400	-1401
1010.473	-1901
1010.547	565
1010.620	-1167
1010.693	-1859
1010.766	-1046
1010.840	-1430
1010.913	-1588
1010.986	-2119
1011.059	-2613
1011.132	-1599
1011.205	-1596
1011.278	-1905
1011.351	-1596
1011.424	-781
1011.497	-1922
1011.570	-1391
1011.643	-2217
1011.716	-1558
1011.789	-1620
1011.862	-1520
1011.934	-1056
1012.007	-2056
1012.080	-1412
1012.153	-1606
1012.225	-993
1012.298	-1293
1012.371	-1454
1012.443	-1880
1012.516	-2550
1012.588	-1384
1012.661	-1776
1012.733	-1124
1012.806	-1218
1012.879	-1675
1012.951	-1700
1013.023	-838
1013.096	-1526
1013.168	-1756
1013.241	-1433
1013.313	-1499
1013.385	-1650
1013.458	-1910
1013.530	-1555
1013.602	-1425
1013.674	-2501
1013.746	-1753
1013.819	-1834
1013.891	-870
1013.963	-2131
1014.035	-1096
1014.107	-1792
1014.179	-1011
1014.251	-1745
1014.323	-725
1014.395	-2073
1014.467	-976
1014.539	-1091
1014.611	-1765
1014.683	-2054
1014.754	-1265
1014.826	-2694
1014.898	-852
1014.970	-2407
1015.042	-694
1015.113	-1203
1015.185	-1558
1015.257	-2400
1015.328	-989
1015.400	-1558
1015.471	-1328
1015.543	-2887
1015.615	-1147
1015.686	-1955
1015.757	-1815
1015.829	-2024
1015.901	-1752
1015.972	-2609
1016.043	-1332
1016.115	-989
1016.186	-909
1016.257	-1681
1016.328	-689
1016.400	-1172
1016.471	-1931
1016.542	-1509
1016.613	-1633
1016.685	-1702
1016.756	-1162
1016.827	-1955
1016.898	-1921
1016.969	-939
1017.040	-1947
1017.111	-2023
1017.182	-1600
1017.253	-1654
1017.324	-1445
1017.395	-1888
1017.466	-1282
1017.537	-1787
1017.608	-1751
1017.678	-1810
1017.749	-2121
1017.820	-1592
1017.891	-1877
1017.961	-2278
1018.032	-1139
1018.103	-1501
1018.173	-1426
1018.244	-1662
1018.315	-1214
1018.385	-715
1018.456	-1012
1018.526	-2206
1018.597	-1525
1018.667	-1631
1018.738	-1098
1018.808	-2014
1018.878	-421
1018.949	-1171
1019.019	-1119
1019.089	-2091
1019.160	-1952
1019.230	-2059
1019.300	-1227
1019.371	-2008
1019.441	-1418
1019.511	-1904
1019.581	-1598
1019.651	-1865
1019.721	-1293
1019.791	-2670
1019.861	-2214
1019.931	-1562
1020.001	-1165
1020.071	-1679
1020.141	-1335
1020.211	-1886
1020.281	-1847
1020.351	-1544
1020.421	-1203
1020.491	-1328
1020.560	-1938
1020.630	-2173
1020.700	-832
1020.770	-2461
1020.839	-1749
1020.909	-1833
1020.979	-676
1021.048	-2480
1021.118	-1307
1021.187	-1888
1021.257	-488
1021.326	-1191
1021.396	-1738
1021.465	-2246
1021.535	-1488
1021.604	-2276
1021.674	-376
1021.743	-1664
1021.812	-1939
1021.882	-2138
1021.951	-1182
1022.020	-1592
1022.089	-1127
1022.159	-1395
1022.228	-1151
1022.297	-1650
1022.366	-805
1022.435	-1692
1022.504	-1582
1022.573	-2636
1022.642	-1141
1022.711	-1899
1022.781	-1259
1022.849	-1187
1022.918	-2241
1022.987	-2141
1023.056	-1714
1023.125	-2021
1023.194	-1751
1023.263	-1667
1023.331	-1436
1023.400	-1613
1023.469	-1253
1023.538	-2174
1023.606	-2282
1023.675	-1392
1023.744	-2034
1023.812	-1492
1023.881	-787
1023.949	-1860
1024.018	-1713
1024.086	-1848
1024.155	-1440
1024.223	-2472
1024.292	-1306
1024.360	-1013
1024.429	-1691
1024.497	-2385
1024.565	-1094
1024.634	-1855
1024.702	-1377
1024.770	-1852
1024.838	-1522
1024.907	-1533
1024.975	-2169
1025.043	-1297
1025.111	-1640
1025.179	-1238
1025.247	-1661
1025.315	-973
1025.383	-1378
1025.451	-1679
1025.519	-1672
1025.587	-2184
1025.655	-1783
1025.723	-1712
1025.791	-2127
1025.859	-2078
1025.927	-1010
1025.995	-2406
1026.062	-2052
1026.130	-1199
1026.198	-1317
1026.266	-2293
1026.333	-1158
1026.401	-1539
1026.469	-1622
1026.536	-2416
1026.604	-1252
1026.671	-2448
1026.739	-1669
1026.806	-1940
1026.874	-1943
1026.941	-2293
1027.009	-1444
1027.076	-1865
1027.144	-1125
1027.211	-2021
1027.278	-1440
1027.345	-2416
1027.413	-1617
1027.480	-2074
1027.547	-1521
1027.614	-1776
1027.682	-1358
1027.749	-1784
1027.816	-2272
1027.883	-1879
1027.950	-714
1028.017	-1907
1028.084	-1564
1028.151	-2245
1028.218	-2116
1028.285	-2229
1028.352	-2126
1028.419	-2029
1028.486	-1655
1028.553	-1751
1028.619	-1545
1028.686	-2230
1028.753	-1594
1028.820	-2048
1028.886	-1869
1028.953	-1767
1029.020	-1940
1029.086	-2148
1029.153	-2149
1029.220	-2128
1029.286	-1071
1029.353	-1956
1029.419	-2729
1029.486	-2066
1029.552	-1686
1029.619	-2364
1029.685	-762
1029.751	-2200
1029.818	-1298
1029.884	-1820
1029.951	-511
1030.017	-2374
1030.083	-1729
1030.149	-1770
1030.216	-2238
1030.282	-1866
1030.348	-1856
1030.414	-2726
1030.480	-1227
1030.546	-2298
1030.612	-1333
1030.678	-2457
1030.744	-2286
1030.810	-2374
1030.876	-1792
1030.942	-2532
1031.008	-1757
1031.074	-2088
1031.140	-1811
1031.206	-1635
1031.272	-1939
1031.337	-2453
1031.403	-2028
1031.469	-2163
1031.534	-1784
1031.600	-2318
1031.666	-2281
1031.731	-2032
1031.797	-1895
1031.863	-2903
1031.928	-1686
1031.994	-2243
1032.059	-1328
1032.125	-3045
1032.190	-2325
1032.256	-2256
1032.321	-2138
1032.386	-2283
1032.452	-2298
1032.517	-2421
1032.582	-2216
1032.647	-2257
1032.713	-1590
1032.778	-2427
1032.843	-2026
1032.908	-2493
1032.974	-2438
1033.039	-2309
1033.104	-1297
1033.169	-2465
1033.234	-2728
1033.299	-1677
1033.364	-1047
1033.429	-2481
1033.494	-2040
1033.559	-2290
1033.624	-1781
1033.688	-2699
1033.753	-2404
1033.818	-2045
1033.883	-1885
1033.948	-2502
1034.013	-1084
1034.077	-1694
1034.142	-1728
1034.207	-2330
1034.271	-1352
1034.336	-1098
1034.400	-1066
1034.465	-1882
1034.530	-1941
1034.594	-2152
1034.658	-1880
1034.723	-2331
1034.787	-2089
1034.852	-2328
1034.916	-2460
1034.981	-1768
1035.045	-1667
1035.109	-2448
1035.173	-1019
1035.238	-1921
1035.302	-1487
1035.366	-1823
1035.430	-1484
1035.495	-2190
1035.559	-1629
1035.623	-2193
1035.687	-1961
1035.751	-1865
1035.815	-2085
1035.879	-2103
1035.943	-2046
1036.007	-3231
1036.071	-1865
1036.135	-1795
1036.198	-1672
1036.262	-2521
1036.326	-1450
1036.390	-2762
1036.454	-1862
1036.517	-2279
1036.581	-2380
1036.645	-2413
1036.709	-2110
1036.772	-2691
1036.836	-1772
1036.900	-2274
1036.963	-2105
1037.026	-2438
1037.090	-2292
1037.154	-2031
1037.217	-1565
1037.280	-2339
1037.344	-2186
1037.407	-2301
1037.471	-1297
1037.534	-2128
1037.597	-1582
1037.661	-1757
1037.724	-2338
1037.787	-2355
1037.850	-2100
1037.913	-2594
1037.977	-1305
1038.040	-2260
1038.103	-1226
1038.166	-2308
1038.229	-1948
1038.292	-1711
1038.355	-1757
1038.418	-2267
1038.481	-1649
1038.544	-3367
1038.607	-1850
1038.670	-2452
1038.732	-2402
1038.795	-2503
1038.858	-2097
1038.921	-1719
1038.984	-1854
1039.046	-2349
1039.109	-2629
1039.172	-2562
1039.234	-1800
1039.297	-2929
1039.360	-2555
1039.422	-3097
1039.485	-2407
1039.547	-2682
1039.610	-1957
1039.672	-2336
1039.734	-2392
1039.797	-1956
1039.859	-1761
1039.922	-2051
1039.984	-1640
1040.046	-2496
1040.109	-2024
1040.171	-2898
1040.233	-2362
1040.295	-2498
1040.358	-2106
1040.420	-2663
1040.482	-1597
1040.544	-2431
1040.606	-1522
1040.668	-2525
1040.730	-1570
1040.792	-2258
1040.854	-1317
1040.916	-2012
1040.978	-1815
1041.040	-910
1041.102	-1971
1041.164	-3624
1041.225	-2442
1041.287	-1728
1041.349	-759
1041.411	-2624
1041.472	-2194
1041.534	-1985
1041.596	-2685
1041.657	-2763
1041.719	-1539
1041.781	-2108
1041.842	-2340
1041.904	-3142
1041.965	-2388
1042.027	-1939
1042.088	-1764
1042.150	-2247
1042.211	-1797
1042.272	-1351
1042.334	-1006
1042.395	-2394
1042.456	-2668
1042.518	-1766
1042.579	-1817
1042.640	-2382
1042.701	-1510
1042.763	-2285
1042.824	-1985
1042.885	-2601
1042.946	-2078
1043.007	-2240
1043.068	-1291
1043.129	-2200
1043.190	-1996
1043.251	-1652
1043.312	-1671
1043.373	-2306
1043.434	-2491
1043.495	-2386
1043.556	-2001
1043.616	-2966
1043.677	-1914
1043.738	-1496
1043.799	-2218
1043.859	-1987
1043.920	-1316
1043.981	-1879
1044.041	-1247
1044.102	-1825
1044.162	-1824
1044.223	-2204
1044.284	-2286
1044.344	-2658
1044.405	-1719
1044.465	-3377
1044.525	-2091
1044.586	-2314
1044.646	-1892
1044.707	-1623
1044.767	-1008
1044.827	-1362
1044.887	-1408
1044.948	-1776
1045.008	-2431
1045.068	-1658
1045.128	-1743
1045.188	-2234
1045.249	-997
1045.309	-2658
1045.369	-2101
1045.429	-2330
1045.489	-1468
1045.549	-2162
1045.609	-2274
1045.669	-2187
1045.729	-1844
1045.789	-2720
1045.848	-1884
1045.908	-2222
1045.968	-1180
1046.028	-1953
1046.088	-965
1046.147	-1825
1046.207	-1570
1046.267	-1677
1046.326	-2262
1046.386	-1451
1046.446	-1346
1046.505	-662
1046.565	-656
1046.624	-586
1046.684	-1106
1046.743	-712
1046.803	-705
1046.862	-428
1046.922	0
