'Start Wavelength	183.907
'End Wavelength	1046.922
'Gate Delay	5.000
'Gate Width (ms)	1.050
'Laser Output Level	0.000
'X Position	0.000
'Y Position	0.000
'Z Position	0.000
'Grid Point Number	1.000
'Shot Number	100.000
183.907	685.000
183.977	-315.000
184.047	251
184.116	373
184.186	605
184.256	767
184.325	154
184.395	307
184.465	494
184.534	223
184.604	-183
184.674	495
184.743	-243
184.813	386
184.883	-702
184.952	331
185.022	75
185.092	-10
185.161	-98
185.231	781
185.301	258
185.370	1315
185.440	277
185.509	-54
185.579	-129
185.649	433
185.718	647
185.788	1329
185.857	-10
185.927	977
185.996	358
186.066	372
186.136	-305
186.205	-22
186.275	1
186.344	266
186.414	178
186.483	-203
186.553	1124
186.622	1065
186.692	736
186.761	329
186.831	245
186.900	348
186.970	-7
187.039	845
187.109	-17
187.178	-91
187.248	246
187.317	63
187.387	-704
187.456	67
187.526	400
187.595	-457
187.664	971
187.734	207
187.803	-106
187.873	40
187.942	-139
188.012	643
188.081	-793
188.150	-260
188.220	318
188.289	1042
188.358	277
188.428	563
188.497	-273
188.567	601
188.636	-522
188.705	853
188.775	-192
188.844	-507
188.913	568
188.983	-76
189.052	-104
189.121	340
189.191	-79
189.260	588
189.329	318
189.399	558
189.468	-577
189.537	96
189.606	160
189.676	648
189.745	510
189.814	-70
189.883	88
189.953	-180
190.022	-122
190.091	-89
190.161	182
190.230	353
190.299	-40
190.368	374
190.437	172
190.507	475
190.576	136
190.645	639
190.714	144
190.783	773
190.853	511
190.922	1284
190.991	550
191.060	565
191.129	-115
191.198	258
191.268	-649
191.337	469
191.406	525
191.475	-243
191.544	-47
191.613	336
191.682	139
191.752	-308
191.821	690
191.890	765
191.959	112
192.028	-128
192.097	-235
192.166	414
192.235	-278
192.304	-82
192.373	-365
192.442	1
192.511	604
192.580	723
192.650	-302
192.719	539
192.788	319
192.857	253
192.926	22
192.995	-117
193.064	147
193.133	606
193.202	-31
193.271	674
193.340	33
193.409	1033
193.478	371
193.547	-465
193.615	607
193.684	-177
193.753	505
193.822	404
193.891	250
193.960	798
194.029	125
194.098	749
194.167	-606
194.236	496
194.305	-259
194.374	44
194.443	58
194.512	295
194.580	-27
194.649	1037
194.718	959
194.787	782
194.856	-22
194.925	907
194.994	-26
195.062	361
195.131	-175
195.200	449
195.269	151
195.338	434
195.407	22
195.475	-358
195.544	244
195.613	-190
195.682	79
195.751	388
195.819	-1137
195.888	153
195.957	377
196.026	-75
196.094	-18
196.163	248
196.232	-393
196.301	526
196.369	-910
196.438	505
196.507	45
196.576	802
196.644	-945
196.713	206
196.782	-125
196.850	184
196.919	-676
196.988	22
197.056	-189
197.125	339
197.194	-246
197.262	-27
197.331	-698
197.400	-81
197.468	-124
197.537	91
197.606	-562
197.674	1044
197.743	67
197.812	-455
197.880	-59
197.949	339
198.017	142
198.086	961
198.155	-287
198.223	-18
198.292	-464
198.360	430
198.429	-53
198.497	302
198.566	446
198.635	932
198.703	619
198.772	401
198.840	144
198.909	-94
198.977	400
199.046	518
199.114	-76
199.183	401
199.251	257
199.320	-216
199.388	162
199.457	-301
199.525	300
199.594	941
199.662	-353
199.731	-41
199.799	-306
199.867	496
199.936	-476
200.004	993
200.073	765
200.141	322
200.210	-446
200.278	84
200.346	1445
200.415	1858
200.483	362
200.552	1375
200.620	571
200.688	208
200.757	784
200.825	1539
200.893	92
200.962	613
201.030	365
201.098	58
201.167	321
201.235	324
201.303	-268
201.372	-236
201.440	-180
201.508	774
201.577	-624
201.645	-95
201.713	114
201.781	-18
201.850	-70
201.918	649
201.986	151
202.055	1003
202.123	144
202.191	369
202.259	-804
202.327	271
202.396	-29
202.464	324
202.532	207
202.600	987
202.669	89
202.737	-442
202.805	-943
202.873	254
202.941	-347
203.009	201
203.078	-283
203.146	666
203.214	-55
203.282	-1007
203.350	-564
203.418	514
203.487	378
203.555	480
203.623	-206
203.691	-463
203.759	-320
203.827	530
203.895	687
203.963	221
204.031	215
204.099	821
204.168	-172
204.236	36
204.304	197
204.372	-402
204.440	396
204.508	437
204.576	-528
204.644	212
204.712	171
204.780	493
204.848	-35
204.916	498
204.984	-584
205.052	1137
205.120	-459
205.188	396
205.256	-495
205.324	-287
205.392	-739
205.460	450
205.528	102
205.596	707
205.664	-496
205.732	156
205.799	41
205.867	-305
205.935	-253
206.003	557
206.071	-193
206.139	-409
206.207	3
206.275	256
206.343	-162
206.411	370
206.478	-8
206.546	973
206.614	-424
206.682	-143
206.750	-183
206.818	525
206.885	920
206.953	-734
207.021	974
207.089	389
207.157	-781
207.225	263
207.292	49
207.360	126
207.428	-132
207.496	-7
207.563	-463
207.631	-83
207.699	-153
207.767	-192
207.834	-728
207.902	248
207.970	183
208.038	226
208.105	185
208.173	28
208.241	-693
208.309	150
208.376	-480
208.444	470
208.512	-188
208.579	-462
208.647	680
208.715	850
208.782	41
208.850	172
208.918	-218
208.985	-119
209.053	-28
209.120	608
209.188	-261
209.256	-240
209.323	-384
209.391	-558
209.459	394
209.526	751
209.594	-780
209.661	-250
209.729	148
209.796	-500
209.864	351
209.932	-1046
209.999	925
210.067	471
210.134	-137
210.202	207
210.269	416
210.337	919
210.404	269
210.472	-195
210.539	175
210.607	-327
210.674	-205
210.742	839
210.809	-503
210.877	494
210.944	587
211.012	-466
211.079	1255
211.146	287
211.214	-44
211.281	909
211.349	1126
211.416	679
211.484	-100
211.551	193
211.618	-276
211.686	-481
211.753	126
211.821	489
211.888	743
211.955	590
212.023	-105
212.090	805
212.157	335
212.225	105
212.292	-333
212.359	684
212.427	1185
212.494	266
212.561	130
212.629	-7
212.696	-391
212.763	351
212.831	-338
212.898	308
212.965	-36
213.032	644
213.100	54
213.167	390
213.234	542
213.301	374
213.369	-239
213.436	255
213.503	-993
213.570	653
213.638	-388
213.705	65
213.772	-231
213.839	-468
213.906	-137
213.973	920
214.041	-431
214.108	565
214.175	248
214.242	568
214.309	-266
214.376	1286
214.444	132
214.511	-247
214.578	-231
214.645	693
214.712	-177
214.779	143
214.846	-390
214.913	1146
214.980	1160
215.048	1471
215.115	1498
215.182	703
215.249	819
215.316	449
215.383	341
215.450	44
215.517	-470
215.584	73
215.651	199
215.718	-242
215.785	-324
215.852	-173
215.919	-143
215.986	-460
216.053	26
216.120	-622
216.187	457
216.254	357
216.321	-248
216.388	58
216.455	-458
216.522	-16
216.589	205
216.656	184
216.722	-209
216.789	-650
216.856	407
216.923	74
216.990	38
217.057	207
217.124	-826
217.191	-215
217.258	346
217.324	285
217.391	220
217.458	-185
217.525	-558
217.592	144
217.659	-1636
217.725	358
217.792	-467
217.859	920
217.926	-40
217.993	15
218.059	460
218.126	241
218.193	-348
218.260	96
218.327	-878
218.393	-168
218.460	-543
218.527	821
218.594	-735
218.660	390
218.727	354
218.794	-218
218.860	378
218.927	726
218.994	-154
219.061	-975
219.127	36
219.194	353
219.261	-520
219.327	833
219.394	321
219.461	-939
219.527	-155
219.594	68
219.661	370
219.727	-1171
219.794	134
219.860	75
219.927	1336
219.994	1782
220.060	2840
220.127	3194
220.193	774
220.260	706
220.326	409
220.393	-129
220.460	-503
220.526	190
220.593	-545
220.659	1230
220.726	-44
220.792	694
220.859	341
220.925	-104
220.992	475
221.058	1362
221.125	330
221.191	895
221.258	-75
221.324	36
221.391	-160
221.457	-491
221.524	-426
221.590	59
221.657	745
221.723	1221
221.789	-164
221.856	830
221.922	-1078
221.989	1074
222.055	-111
222.121	-670
222.188	2261
222.254	66
222.321	-260
222.387	103
222.453	-170
222.520	-134
222.586	-57
222.652	-275
222.719	-170
222.785	13
222.851	90
222.918	503
222.984	-617
223.050	-98
223.116	-1527
223.183	322
223.249	-704
223.315	-120
223.382	-452
223.448	-99
223.514	150
223.580	-129
223.647	-926
223.713	-436
223.779	143
223.845	-353
223.911	-267
223.978	-635
224.044	-557
224.110	496
224.176	-585
224.242	25
224.309	-1310
224.375	250
224.441	-195
224.507	-45
224.573	-467
224.639	656
224.705	-655
224.772	214
224.838	-865
224.904	840
224.970	-49
225.036	40
225.102	-750
225.168	589
225.234	283
225.300	78
225.366	-56
225.432	809
225.499	73
225.565	-112
225.631	-265
225.697	15
225.763	-53
225.829	10
225.895	9
225.961	342
226.027	-684
226.093	358
226.159	61
226.225	1494
226.291	-16
226.357	930
226.423	466
226.489	582
226.554	159
226.620	-25
226.686	-658
226.752	95
226.818	6
226.884	1419
226.950	838
227.016	5
227.082	235
227.148	453
227.214	718
227.279	-24
227.345	25
227.411	1506
227.477	2795
227.543	5110
227.609	5270
227.674	4231
227.740	1627
227.806	1146
227.872	525
227.938	-35
228.003	96
228.069	578
228.135	-807
228.201	-5
228.267	128
228.332	836
228.398	-1402
228.464	602
228.530	83
228.595	-16
228.661	-1556
228.727	-136
228.792	249
228.858	-227
228.924	-1970
228.990	488
229.055	-1467
229.121	173
229.187	136
229.252	-833
229.318	143
229.384	399
229.449	197
229.515	-1902
229.581	-1153
229.646	936
229.712	-679
229.777	1054
229.843	-104
229.909	375
229.974	-346
230.040	-213
230.105	-563
230.171	-56
230.236	252
230.302	-222
230.368	-363
230.433	-698
230.499	-173
230.564	484
230.630	-963
230.695	917
230.761	791
230.826	-1754
230.892	733
230.957	-82
231.023	-693
231.088	-142
231.154	-906
231.219	350
231.284	-671
231.350	711
231.415	-1611
231.481	468
231.546	-515
231.612	-89
231.677	-1102
231.742	-1434
231.808	1324
231.873	-565
231.939	-2106
232.004	86
232.069	432
232.135	-487
232.200	-1070
232.265	98
232.331	-809
232.396	-422
232.461	-624
232.527	-262
232.592	-883
232.657	616
232.723	128
232.788	204
232.853	-74
232.918	358
232.984	-575
233.049	-397
233.114	-1381
233.179	-180
233.245	154
233.310	22
233.375	-1347
233.440	125
233.506	-1632
233.571	-288
233.636	-547
233.701	211
233.766	-875
233.832	599
233.897	-863
233.962	-914
234.027	448
234.092	53
234.157	-143
234.222	-62
234.288	185
234.353	-585
234.418	342
234.483	884
234.548	-538
234.613	-672
234.678	-542
234.743	-964
234.808	1068
234.873	-702
234.938	-337
235.004	-620
235.069	-329
235.134	-700
235.199	-30
235.264	585
235.329	-1665
235.394	-42
235.459	-320
235.524	-1467
235.589	196
235.654	-287
235.719	-1517
235.784	61
235.849	-1451
235.913	354
235.978	-996
236.043	-161
236.108	-585
236.173	-1061
236.238	-199
236.303	-1807
236.368	-652
236.433	113
236.498	-956
236.563	368
236.627	-349
236.692	1475
236.757	1058
236.822	-357
236.887	-1254
236.952	45
237.017	-1387
237.081	1020
237.146	-1473
237.211	640
237.276	1443
237.341	3720
237.405	980
237.470	81
237.535	-780
237.600	-314
237.664	-261
237.729	-1607
237.794	-838
237.859	71
237.923	-804
237.988	-1199
238.053	-703
238.118	-510
238.182	-419
238.247	1387
238.312	-1372
238.376	600
238.441	-2293
238.506	453
238.570	-1411
238.635	240
238.700	-594
238.764	-110
238.829	-521
238.893	-501
238.958	87
239.023	-157
239.087	-643
239.152	452
239.216	-237
239.281	605
239.346	50
239.410	-356
239.475	-825
239.539	725
239.604	-67
239.668	977
239.733	1271
239.797	5164
239.862	10633
239.926	9322
239.991	3876
240.055	2454
240.120	50
240.184	920
240.249	-482
240.313	768
240.378	-184
240.442	445
240.507	107
240.571	-418
240.635	-1481
240.700	-99
240.764	-173
240.829	-220
240.893	-1801
240.957	318
241.022	-54
241.086	861
241.151	-1367
241.215	-1654
241.279	545
241.344	-766
241.408	49
241.472	-162
241.537	-135
241.601	-93
241.665	-1009
241.730	-825
241.794	543
241.858	-150
241.922	-680
241.987	403
242.051	-1723
242.115	-1245
242.179	-202
242.244	-786
242.308	539
242.372	-298
242.436	-469
242.501	-417
242.565	-1368
242.629	-535
242.693	77
242.757	-782
242.822	-602
242.886	90
242.950	144
243.014	-905
243.078	-194
243.142	-521
243.206	-1523
243.271	-254
243.335	-1624
243.399	-121
243.463	72
243.527	3630
243.591	-354
243.655	-324
243.719	-1017
243.783	527
243.847	-1582
243.911	-57
243.975	-1467
244.040	-1663
244.104	251
244.168	-597
244.232	-1250
244.296	-1136
244.360	-605
244.424	-1530
244.488	-655
244.552	96
244.615	-2159
244.679	-739
244.743	-964
244.807	-1213
244.871	-861
244.935	-147
244.999	-2414
245.063	-1223
245.127	-356
245.191	-316
245.255	-1287
245.319	-439
245.383	-2071
245.446	506
245.510	-957
245.574	-925
245.638	576
245.702	-1844
245.766	-199
245.829	845
245.893	-1544
245.957	-964
246.021	-622
246.085	-529
246.149	-1233
246.212	1529
246.276	465
246.340	-426
246.404	-652
246.467	835
246.531	-2296
246.595	639
246.659	-843
246.722	-1680
246.786	-1492
246.850	-574
246.913	21
246.977	-1431
247.041	-651
247.104	-406
247.168	-723
247.232	462
247.295	1725
247.359	-38
247.423	-872
247.486	252
247.550	-376
247.614	-1430
247.677	-1247
247.741	-672
247.804	-872
247.868	771
247.932	-589
247.995	1756
248.059	-571
248.122	-2317
248.186	-442
248.249	494
248.313	2650
248.376	4464
248.440	1338
248.503	-1266
248.567	885
248.630	-354
248.694	246
248.757	1270
248.821	3141
248.884	2408
248.948	481
249.011	2761
249.075	4090
249.138	4749
249.202	429
249.265	-191
249.328	68
249.392	-919
249.455	-241
249.519	-5
249.582	-555
249.645	1076
249.709	708
249.772	-473
249.835	-1057
249.899	-123
249.962	-1036
250.025	-769
250.089	219
250.152	1682
250.215	-392
250.279	-967
250.342	-138
250.405	91
250.468	-737
250.532	-431
250.595	423
250.658	3006
250.721	8888
250.785	2513
250.848	1753
250.911	-736
250.974	-229
251.038	-64
251.101	1796
251.164	45
251.227	660
251.290	-54
251.354	1090
251.417	5535
251.480	7297
251.543	3513
251.606	13362
251.669	10363
251.732	2395
251.795	1746
251.859	2989
251.922	7900
251.985	4747
252.048	1442
252.111	-302
252.174	-475
252.237	1842
252.300	4897
252.363	2643
252.426	11698
252.489	3243
252.552	999
252.615	-737
252.678	1433
252.741	2748
252.804	3260
252.867	11752
252.930	5908
252.993	2326
253.056	923
253.119	-739
253.182	-147
253.245	-819
253.308	752
253.371	-892
253.434	-292
253.497	39
253.559	1951
253.622	59
253.685	456
253.748	-389
253.811	-567
253.874	229
253.937	-827
254.000	-902
254.062	555
254.125	1256
254.188	1346
254.251	-256
254.314	-547
254.376	-989
254.439	786
254.502	-380
254.565	-528
254.628	2375
254.690	-386
254.753	-500
254.816	-492
254.878	-242
254.941	1160
255.004	160
255.067	74
255.129	-1401
255.192	-773
255.255	-1830
255.317	-1287
255.380	-62
255.443	321
255.505	424
255.568	-1229
255.631	-1072
255.693	-112
255.756	-792
255.819	605
255.881	-1222
255.944	172
256.006	-1074
256.069	-531
256.132	-1675
256.194	-494
256.257	-647
256.319	-603
256.382	-459
256.444	1585
256.507	1078
256.569	-410
256.632	-911
256.694	-1315
256.757	256
256.819	2768
256.882	-926
256.944	170
257.007	-176
257.069	-1625
257.132	-1286
257.194	-34
257.257	-1185
257.319	-397
257.381	-872
257.444	132
257.506	3400
257.569	4681
257.631	2329
257.693	417
257.756	-828
257.818	-1021
257.880	-856
257.943	-64
258.005	-1335
258.067	-1176
258.130	-1153
258.192	-620
258.254	-1354
258.317	-631
258.379	-735
258.441	962
258.503	395
258.566	-415
258.628	-19
258.690	-704
258.753	-737
258.815	-488
258.877	-848
258.939	-650
259.001	-1038
259.064	-780
259.126	-1666
259.188	-497
259.250	-516
259.312	-669
259.375	181
259.437	423
259.499	-784
259.561	-594
259.623	-355
259.685	35
259.747	-860
259.809	-349
259.872	-121
259.934	2123
259.996	1308
260.058	474
260.120	-871
260.182	50
260.244	-735
260.306	-780
260.368	-783
260.430	-809
260.492	-261
260.554	1206
260.616	-567
260.678	314
260.740	95
260.802	-824
260.864	-266
260.926	-764
260.988	-99
261.050	-122
261.112	-731
261.174	1639
261.236	-687
261.298	52
261.359	-320
261.421	1118
261.483	-1457
261.545	791
261.607	-1882
261.669	-204
261.731	6
261.793	611
261.854	-756
261.916	396
261.978	-397
262.040	-208
262.102	-880
262.164	-1432
262.225	193
262.287	-68
262.349	-972
262.411	-229
262.472	36
262.534	-859
262.596	-664
262.658	344
262.719	-1072
262.781	166
262.843	-1160
262.904	468
262.966	-445
263.028	-348
263.090	194
263.151	3048
263.213	971
263.275	-625
263.336	-85
263.398	349
263.459	-915
263.521	-468
263.583	94
263.644	159
263.706	-787
263.767	-491
263.829	-709
263.891	-600
263.952	-1412
264.014	-361
264.075	-1034
264.137	-699
264.198	-89
264.260	-701
264.321	-1220
264.383	-431
264.444	931
264.506	-1268
264.567	-1020
264.629	392
264.690	-1364
264.752	-351
264.813	-1115
264.875	-1412
264.936	398
264.998	-693
265.059	-546
265.120	60
265.182	-1105
265.243	-698
265.305	250
265.366	283
265.427	157
265.489	924
265.550	-1435
265.611	176
265.673	-230
265.734	-465
265.795	259
265.857	-1313
265.918	-1388
265.979	186
266.040	1085
266.102	1418
266.163	-940
266.224	-451
266.286	-310
266.347	-1419
266.408	-733
266.469	253
266.530	-533
266.592	-889
266.653	-689
266.714	-299
266.775	-498
266.836	-97
266.898	-1045
266.959	-494
267.020	-1437
267.081	229
267.142	-354
267.203	-402
267.264	-1054
267.326	852
267.387	-1001
267.448	7
267.509	-799
267.570	-443
267.631	-305
267.692	-1310
267.753	-533
267.814	-1028
267.875	-143
267.936	357
267.997	-1085
268.058	-271
268.119	-1676
268.180	-441
268.241	-1329
268.302	-419
268.363	-1215
268.424	-305
268.485	-613
268.546	-1208
268.607	-878
268.668	-607
268.729	-892
268.790	-654
268.851	-872
268.912	-215
268.972	85
269.033	-696
269.094	-1347
269.155	4
269.216	-854
269.277	-883
269.338	-930
269.398	-537
269.459	-912
269.520	99
269.581	-983
269.642	-116
269.702	-1387
269.763	31
269.824	-2075
269.885	-604
269.945	36
270.006	105
270.067	-1615
270.128	-351
270.188	-800
270.249	-984
270.310	-1396
270.370	-623
270.431	-1027
270.492	-910
270.553	-805
270.613	-559
270.674	-9
270.734	-170
270.795	-48
270.856	-276
270.916	-1201
270.977	-775
271.038	-359
271.098	-293
271.159	-900
271.219	-464
271.280	-470
271.340	-1
271.401	-1342
271.462	-586
271.522	-730
271.583	-664
271.643	-586
271.704	304
271.764	-602
271.825	565
271.885	2485
271.946	5323
272.006	880
272.066	2844
272.127	5448
272.187	8344
272.248	3804
272.308	1066
272.369	3320
272.429	1601
272.489	268
272.550	-392
272.610	-292
272.671	360
272.731	-417
272.791	135
272.852	-258
272.912	-183
272.972	203
273.033	-171
273.093	-575
273.153	482
273.214	-130
273.274	-204
273.334	218
273.394	3352
273.455	428
273.515	849
273.575	1177
273.635	511
273.696	1197
273.756	3776
273.816	877
273.876	441
273.936	16
273.997	767
274.057	-458
274.117	-590
274.177	-9
274.237	2853
274.297	2985
274.358	1008
274.418	2037
274.478	1598
274.538	-600
274.598	36
274.658	161
274.718	641
274.778	-239
274.838	-234
274.898	-444
274.958	896
275.018	2643
275.078	2118
275.138	147
275.198	621
275.258	-233
275.318	723
275.378	-212
275.438	323
275.498	243
275.558	588
275.618	1376
275.678	2268
275.738	1741
275.798	662
275.858	-597
275.918	-172
275.978	-148
276.038	-76
276.098	392
276.157	402
276.217	1094
276.277	1488
276.337	2
276.397	-561
276.457	136
276.517	-89
276.576	-200
276.636	45
276.696	-258
276.756	977
276.815	105
276.875	569
276.935	-436
276.995	960
277.055	358
277.114	899
277.174	256
277.234	1392
277.293	-199
277.353	18
277.413	-403
277.472	-795
277.532	-945
277.592	-191
277.651	739
277.711	4050
277.771	977
277.830	4770
277.890	4250
277.950	2516
278.009	10428
278.069	4358
278.128	1915
278.188	4498
278.248	2026
278.307	4836
278.367	3946
278.426	682
278.486	337
278.545	-609
278.605	-1247
278.664	-119
278.724	-1110
278.783	1009
278.843	5032
278.902	623
278.962	25
279.021	432
279.081	649
279.140	-12
279.199	357
279.259	304
279.318	275
279.378	1107
279.437	2564
279.496	12947
279.556	26473
279.615	21012
279.675	4587
279.734	3001
279.793	3698
279.853	11032
279.912	3794
279.971	2473
280.031	1166
280.090	4169
280.149	9306
280.208	4048
280.268	13859
280.327	18789
280.386	3679
280.445	1920
280.505	1356
280.564	614
280.623	-396
280.682	695
280.742	2019
280.801	993
280.860	359
280.919	199
280.978	9
281.037	-411
281.097	-263
281.156	58
281.215	-900
281.274	610
281.333	2033
281.392	1878
281.451	60
281.510	-257
281.569	-893
281.628	486
281.688	-684
281.747	196
281.806	-608
281.865	214
281.924	-871
281.983	-574
282.042	-902
282.101	-200
282.160	-429
282.219	751
282.278	-333
282.337	903
282.396	671
282.454	288
282.513	-164
282.572	1696
282.631	46
282.690	-197
282.749	-159
282.808	469
282.867	-222
282.926	291
282.985	456
283.043	-154
283.102	203
283.161	987
283.220	740
283.279	2259
283.338	-45
283.396	534
283.455	-864
283.514	-122
283.573	-84
283.631	925
283.690	35
283.749	-136
283.808	166
283.866	1072
283.925	-177
283.984	456
284.043	606
284.101	576
284.160	-18
284.219	1367
284.277	-184
284.336	55
284.395	2365
284.453	2274
284.512	307
284.570	1031
284.629	319
284.688	1117
284.746	684
284.805	1742
284.863	1659
284.922	2834
284.981	3788
285.039	6507
285.098	9400
285.156	23198
285.215	50464
285.273	51731
285.332	28915
285.390	13848
285.449	8355
285.507	5442
285.566	4159
285.624	2968
285.683	1911
285.741	1081
285.799	973
285.858	1401
285.916	-248
285.975	797
286.033	694
286.091	344
286.150	-897
286.208	133
286.267	141
286.325	569
286.383	-285
286.442	701
286.500	62
286.558	336
286.616	96
286.675	1209
286.733	131
286.791	460
286.850	314
286.908	270
286.966	886
287.024	229
287.083	1102
287.141	289
287.199	556
287.257	523
287.315	290
287.374	-41
287.432	447
287.490	914
287.548	256
287.606	621
287.664	289
287.723	885
287.781	948
287.839	10
287.897	-680
287.955	572
288.013	466
288.071	3373
288.129	8618
288.187	34018
288.245	15259
288.303	4112
288.361	1501
288.419	1824
288.477	1700
288.535	1382
288.593	728
288.651	350
288.709	-417
288.767	473
288.825	158
288.883	-181
288.941	430
288.999	702
289.057	-486
289.115	192
289.173	-66
289.231	259
289.289	-159
289.346	-186
289.404	529
289.462	843
289.520	783
289.578	519
289.636	364
289.694	-66
289.751	-163
289.809	36
289.867	971
289.925	1437
289.983	-160
290.040	874
290.098	493
290.156	241
290.214	404
290.271	253
290.329	1038
290.387	457
290.444	-427
290.502	1142
290.560	-154
290.617	681
290.675	335
290.733	591
290.790	778
290.848	619
290.906	332
290.963	832
291.021	143
291.078	831
291.136	-266
291.194	569
291.251	1479
291.309	378
291.366	359
291.424	-12
291.481	-151
291.539	513
291.596	524
291.654	300
291.711	279
291.769	1125
291.826	-4
291.884	543
291.941	-438
291.999	474
292.056	936
292.114	505
292.171	-168
292.228	1375
292.286	213
292.343	710
292.401	735
292.458	1917
292.515	79
292.573	1313
292.630	49
292.687	932
292.745	22
292.802	103
292.859	33
292.917	1796
292.974	997
293.031	1152
293.089	7
293.146	-55
293.203	228
293.260	365
293.318	-84
293.375	12
293.432	-397
293.489	850
293.546	-67
293.604	171
293.661	1017
293.718	6065
293.775	2122
293.832	1257
293.889	511
293.947	1718
294.004	464
294.061	-153
294.118	1094
294.175	1689
294.232	1123
294.289	580
294.346	960
294.403	795
294.460	-3
294.517	871
294.574	-372
294.631	961
294.688	171
294.745	1075
294.802	4294
294.859	3299
294.916	978
294.973	829
295.030	18
295.087	-471
295.144	293
295.201	-41
295.258	-66
295.315	-165
295.372	1703
295.429	4378
295.486	1929
295.542	-289
295.599	200
295.656	1309
295.713	418
295.770	3964
295.827	354
295.883	553
295.940	-203
295.997	362
296.054	212
296.111	-87
296.167	-22
296.224	504
296.281	-208
296.338	366
296.394	-97
296.451	-88
296.508	1280
296.564	2383
296.621	1435
296.678	3983
296.734	6827
296.791	1689
296.848	879
296.904	739
296.961	2090
297.018	4273
297.074	2004
297.131	1042
297.187	-246
297.244	1293
297.301	3252
297.357	10225
297.414	2859
297.470	1071
297.527	222
297.583	-227
297.640	246
297.696	-203
297.753	-467
297.809	-473
297.866	-1150
297.922	262
297.979	-395
298.035	-349
298.092	-733
298.148	1647
298.204	2778
298.261	669
298.317	1900
298.374	5465
298.430	3960
298.486	1448
298.543	-697
298.599	-142
298.656	-301
298.712	460
298.768	1158
298.824	1027
298.881	730
298.937	502
298.993	-217
299.050	-256
299.106	-184
299.162	-602
299.218	-141
299.275	534
299.331	668
299.387	2225
299.443	6904
299.500	17249
299.556	14048
299.612	4906
299.668	4182
299.724	11711
299.780	16957
299.837	6339
299.893	3678
299.949	10832
300.005	17991
300.061	12167
300.117	21423
300.173	10993
300.229	3385
300.285	2319
300.341	2163
300.397	1868
300.453	760
300.510	1539
300.566	2059
300.622	4707
300.678	18463
300.734	27342
300.790	13114
300.845	10241
300.901	10826
300.957	18904
301.013	9230
301.069	3764
301.125	1860
301.181	856
301.237	799
301.293	844
301.349	466
301.405	415
301.461	261
301.516	1097
301.572	-161
301.628	58
301.684	212
301.740	1049
301.796	1540
301.851	1016
301.907	1271
301.963	2644
302.019	3754
302.074	15405
302.130	15769
302.186	6669
302.242	2194
302.297	705
302.353	619
302.409	2047
302.464	1788
302.520	1523
302.576	3575
302.631	5933
302.687	1858
302.743	476
302.798	143
302.854	304
302.910	-690
302.965	171
303.021	1221
303.076	377
303.132	189
303.187	1007
303.243	-91
303.299	513
303.354	-324
303.410	94
303.465	-180
303.521	-117
303.576	669
303.632	708
303.687	744
303.743	4291
303.798	3601
303.853	2160
303.909	-82
303.964	496
304.020	-99
304.075	1033
304.130	407
304.186	1617
304.241	2512
304.297	1330
304.352	311
304.358	313
304.407	329
304.449	591
304.463	680
304.518	451
304.539	371
304.573	231
304.629	427
304.630	417
304.684	10
304.720	1797
304.739	2689
304.794	5106
304.811	4307
304.850	2378
304.902	912
304.905	817
304.960	111
304.992	-17
305.015	-96
305.071	-287
305.083	-144
305.126	362
305.173	250
305.181	234
305.236	-469
305.264	15
305.292	479
305.347	402
305.354	360
305.402	161
305.445	371
305.457	401
305.512	-100
305.535	-149
305.567	-120
305.622	791
305.626	777
305.678	796
305.716	2471
305.733	3044
305.788	3876
305.807	3335
305.843	2570
305.897	4182
305.898	4199
305.953	5489
305.988	3204
306.008	1920
306.063	1609
306.078	1350
306.118	770
306.168	197
306.173	144
306.228	140
306.259	313
306.283	537
306.338	-136
306.349	-18
306.393	213
306.440	399
306.448	443
306.503	441
306.530	158
306.558	114
306.613	1269
306.620	1364
306.668	2129
306.711	3452
306.723	3576
306.778	2745
306.801	2357
306.833	2118
306.888	586
306.892	596
306.943	822
306.982	381
306.997	260
307.052	618
307.072	710
307.107	635
307.162	-267
307.163	-270
307.217	393
307.253	487
307.272	318
307.327	153
307.343	177
307.381	424
307.434	284
307.436	293
307.491	758
307.524	1154
307.546	1413
307.600	2541
307.614	2354
307.655	1254
307.704	420
307.710	405
307.765	306
307.795	637
307.819	804
307.874	1028
307.885	944
307.929	997
307.975	1694
307.984	1760
308.038	1880
308.065	2039
308.093	3987
308.148	9320
308.156	10633
308.202	17293
308.246	22437
308.257	22078
308.312	10204
308.336	6133
308.366	4015
308.421	2417
308.426	2284
308.475	1673
308.517	836
308.530	576
308.585	880
308.607	788
308.639	743
308.694	1067
308.697	1053
308.748	947
308.787	1259
308.803	1329
308.857	669
308.877	740
308.912	1116
308.967	1270
308.967	1270
309.021	2090
309.058	2556
309.076	3128
309.130	5684
309.148	6549
309.185	14531
309.238	28862
309.239	28952
309.293	33795
309.328	29984
309.348	25398
309.402	10778
309.418	7411
309.457	5218
309.508	3480
309.511	3449
309.566	4021
309.598	4347
309.620	4561
309.674	5349
309.688	5460
309.729	5176
309.778	4884
309.783	4843
309.837	3625
309.868	3252
309.892	3523
309.946	4068
309.959	4271
310.001	4953
310.049	5819
310.055	5686
310.109	3688
310.139	2466
310.163	2074
310.218	1638
310.229	1546
310.272	1803
310.319	2145
310.326	2121
310.381	1672
310.409	1667
310.435	1777
310.489	1633
310.499	1607
310.543	1521
310.589	1421
310.598	1450
310.652	1773
310.679	1755
310.706	1804
310.760	1878
310.769	1900
310.814	1885
310.859	1901
310.868	1944
310.923	1949
310.948	2035
310.977	2433
311.031	2942
311.038	3042
311.085	2688
311.128	1992
311.139	2105
311.193	2919
311.218	3183
311.247	3062
311.301	2901
311.308	2859
311.356	2392
311.398	2024
311.410	2052
311.464	1979
311.488	2010
311.518	2160
311.572	2309
311.578	2321
311.626	2550
311.668	2695
311.680	2798
311.734	3170
311.758	3326
311.788	3036
311.842	2479
311.847	2411
311.896	2641
311.937	2807
311.950	2761
312.004	2499
312.027	2389
312.058	2361
312.112	2274
312.117	2258
312.165	2677
312.207	3020
312.297	2360
312.386	2385
312.476	1986
312.566	3242
312.656	3423
312.745	2429
312.835	2426
312.925	2496
313.015	3519
313.104	2517
313.194	3696
313.284	3737
313.374	3575
313.463	3682
313.553	4461
313.643	4011
313.732	4192
313.822	3886
313.912	5586
314.001	5099
314.091	6152
314.180	5096
314.270	5995
314.360	4395
314.449	5733
314.539	4398
314.628	6015
314.718	5255
314.808	6033
314.897	6271
314.987	7513
315.076	8117
315.166	6253
315.255	6562
315.345	6301
315.434	5160
315.524	5349
315.613	6384
315.703	7335
315.792	15331
315.881	50058
315.971	15737
316.060	7693
316.150	5210
316.239	5223
316.328	5201
316.418	5598
316.507	6375
316.597	7025
316.686	7520
316.775	6168
316.865	6048
316.954	5859
317.043	5080
317.133	4939
317.222	3445
317.311	4413
317.400	2683
317.490	5236
317.579	5069
317.668	5170
317.757	8380
317.847	24825
317.936	73780
318.025	23021
318.114	20528
318.203	10785
318.293	7786
318.382	14667
318.471	12550
318.560	12061
318.649	6552
318.738	4808
318.828	4415
318.917	3100
319.006	3410
319.095	3818
319.184	5186
319.273	4672
319.362	4576
319.451	2944
319.540	3076
319.629	4236
319.718	5304
319.807	4075
319.896	3960
319.985	6620
320.074	4623
320.163	4478
320.252	4045
320.341	4084
320.430	3629
320.519	5410
320.608	5993
320.697	6853
320.786	6588
320.875	9525
320.964	10018
321.053	10314
321.142	10314
321.230	13219
321.319	13396
321.408	16671
321.497	15820
321.586	12885
321.675	10378
321.764	10048
321.852	9308
321.941	10457
322.030	10468
322.119	11269
322.207	14287
322.296	15920
322.385	18155
322.474	22066
322.562	24171
322.651	16909
322.740	12782
322.829	12433
322.917	9461
323.006	9219
323.095	7829
323.183	6746
323.272	6336
323.361	6298
323.449	7091
323.538	5524
323.626	6119
323.715	6311
323.804	4657
323.892	5842
323.981	4780
324.069	5100
324.158	5400
324.246	4841
324.335	5038
324.424	5518
324.512	3815
324.601	5013
324.689	4358
324.778	4857
324.866	4460
324.954	3614
325.043	3672
325.131	3680
325.220	4161
325.308	3824
325.397	5021
325.485	3623
325.574	3971
325.662	4163
325.750	3461
325.839	4208
325.927	3715
326.015	4200
326.104	3806
326.192	3532
326.280	3468
326.369	4231
326.457	3922
326.545	3698
326.634	3618
326.722	4013
326.810	4419
326.898	5461
326.987	4997
327.075	4609
327.163	4699
327.251	3873
327.340	4335
327.428	7243
327.516	8075
327.604	6513
327.692	4102
327.781	4304
327.869	3848
327.957	3280
328.045	2554
328.133	4302
328.221	2584
328.309	3402
328.397	3728
328.485	4829
328.574	8325
328.662	11846
328.750	6719
328.838	4822
328.926	3690
329.014	4543
329.102	3502
329.190	3589
329.278	3120
329.366	4373
329.454	3942
329.542	4147
329.630	3793
329.718	4102
329.806	3213
329.893	4061
329.981	2554
330.069	4045
330.157	3262
330.245	4121
330.333	4368
330.421	2856
330.509	2835
330.597	4869
330.684	4058
330.772	3714
330.860	3526
330.948	3631
331.036	3666
331.123	2888
331.211	3249
331.299	3286
331.387	3545
331.475	4116
331.562	3402
331.650	3815
331.738	3128
331.825	4481
331.913	3546
332.001	4067
332.089	3721
332.176	4008
332.264	4187
332.352	3487
332.439	3866
332.527	3492
332.614	2958
332.702	3632
332.790	3355
332.877	3886
332.965	4526
333.052	3939
333.140	3696
333.228	5211
333.315	4111
333.403	3218
333.490	4344
333.578	4111
333.665	7288
333.753	6444
333.840	4479
333.928	6818
334.015	6492
334.103	9277
334.190	11910
334.278	15965
334.365	23188
334.452	24596
334.540	14521
334.627	14245
334.715	17539
334.802	26241
334.889	41938
334.977	60345
335.064	40454
335.151	19194
335.239	13422
335.326	10319
335.413	11033
335.501	11477
335.588	10918
335.675	13105
335.762	15760
335.850	20981
335.937	30728
336.024	50809
336.111	81716
336.199	77390
336.286	35967
336.373	19383
336.460	12438
336.547	10532
336.635	8431
336.722	7455
336.809	6647
336.896	5369
336.983	6411
337.070	7381
337.157	6801
337.245	6852
337.332	5963
337.419	6352
337.506	6037
337.593	5693
337.680	5047
337.767	6856
337.854	4829
337.941	4458
338.028	4273
338.115	4081
338.202	5588
338.289	4760
338.376	4538
338.463	4902
338.550	4342
338.637	5252
338.724	3909
338.811	4399
338.898	3816
338.984	3985
339.071	3338
339.158	3982
339.245	4036
339.332	4546
339.419	4617
339.506	4235
339.593	3527
339.679	3774
339.766	2604
339.853	2932
339.940	3987
340.027	4239
340.113	3570
340.200	3614
340.287	3697
340.374	3535
340.460	3380
340.547	3069
340.634	4365
340.720	5888
340.807	4008
340.894	4213
340.980	3791
341.067	4253
341.154	3635
341.240	4481
341.327	4231
341.414	4668
341.500	3777
341.587	4704
341.674	4357
341.760	4356
341.847	4007
341.933	4050
342.020	2316
342.106	4078
342.193	3858
342.279	4396
342.366	3786
342.452	4651
342.539	4318
342.625	4261
342.712	4469
342.798	4067
342.885	2971
342.971	3564
343.058	3202
343.144	3533
343.230	3418
343.317	3764
343.403	3048
343.490	4126
343.576	2775
343.662	3824
343.749	2851
343.835	4072
343.921	4540
344.008	14512
344.094	26998
344.180	7423
344.267	3920
344.353	7650
344.439	6532
344.525	4028
344.612	3502
344.698	3524
344.784	3254
344.870	3506
344.957	3203
345.043	4389
345.129	2928
345.215	4203
345.301	3665
345.387	3483
345.474	2775
345.560	3551
345.646	3407
345.732	3862
345.818	3158
345.904	3254
345.990	3248
346.076	3636
346.162	3170
346.249	4671
346.335	3631
346.421	4081
346.507	4772
346.593	10629
346.679	3546
346.765	5455
346.851	7921
346.937	5782
347.023	4924
347.108	3815
347.194	3774
347.280	4564
347.366	5772
347.452	17037
347.538	25772
347.624	13834
347.710	8261
347.796	4462
347.882	3902
347.967	4287
348.053	3454
348.139	3726
348.225	3127
348.311	3510
348.397	3899
348.482	3987
348.568	4717
348.654	7676
348.740	23848
348.825	23647
348.911	9373
348.997	9701
349.083	14168
349.168	5193
349.254	4519
349.340	4288
349.425	3706
349.511	4311
349.597	3678
349.682	5383
349.768	7996
349.854	6081
349.939	3978
350.025	4603
350.110	4238
350.196	4233
350.282	2913
350.367	5221
350.453	3687
350.538	4630
350.624	2811
350.709	4977
350.795	3103
350.880	3592
350.966	4441
351.051	3927
351.137	2994
351.222	4323
351.308	4165
351.393	6481
351.479	3006
351.564	2944
351.649	4321
351.735	3032
351.820	3295
351.906	3122
351.991	3219
352.076	5472
352.162	5962
352.247	3982
352.332	4076
352.418	3768
352.503	4138
352.588	7467
352.673	4731
352.759	4198
352.844	2906
352.929	2941
353.014	3472
353.100	4323
353.185	5454
353.270	4112
353.355	3691
353.441	4464
353.526	2556
353.611	3929
353.696	2617
353.781	4148
353.866	2795
353.952	3932
354.037	2870
354.122	4774
354.207	3606
354.292	3953
354.377	3200
354.462	3894
354.547	2941
354.632	4199
354.717	4663
354.802	5927
354.887	3226
354.972	3444
355.057	2961
355.142	3109
355.227	3574
355.312	3865
355.397	2972
355.482	5189
355.567	3771
355.652	5337
355.737	4614
355.822	8248
355.907	4920
355.991	4502
356.076	2336
356.161	3604
356.246	3716
356.331	3647
356.416	4792
356.501	15086
356.585	12849
356.670	4777
356.755	6195
356.840	5160
356.924	12174
357.009	30584
357.094	12378
357.179	4463
357.263	3679
357.348	4438
357.433	3798
357.517	4396
357.602	4247
357.687	4276
357.771	5659
357.856	9055
357.941	5826
358.025	10259
358.110	32412
358.195	14378
358.279	4370
358.364	4383
358.448	6458
358.533	12004
358.617	7771
358.702	9734
358.787	5011
358.871	5314
358.956	4246
359.040	4342
359.125	4151
359.209	4537
359.294	6611
359.378	11212
359.462	7473
359.547	5025
359.631	4615
359.716	3833
359.800	3742
359.885	5387
359.969	3533
360.053	3839
360.138	3623
360.222	3484
360.306	3796
360.391	4091
360.475	5312
360.559	7651
360.644	5737
360.728	4288
360.812	10110
360.896	19732
360.981	7939
361.065	4912
361.149	4971
361.233	4064
361.318	4466
361.402	4929
361.486	5759
361.570	5017
361.654	6039
361.739	7503
361.823	14496
361.907	23370
361.991	8772
362.075	10280
362.159	12635
362.243	25887
362.327	60882
362.411	92348
362.495	35422
362.580	17053
362.664	14815
362.748	17922
362.832	26979
362.916	54591
363.000	147643
363.084	204702
363.168	91798
363.252	28171
363.336	16213
363.420	13286
363.503	10762
363.587	10783
363.671	8951
363.755	9692
363.839	11743
363.923	11655
364.007	15379
364.091	20782
364.175	31034
364.258	68952
364.342	159665
364.426	277198
364.510	154591
364.594	50125
364.677	24744
364.761	26675
364.845	19249
364.929	9684
365.013	7393
365.096	7161
365.180	6065
365.264	6001
365.347	8391
365.431	5595
365.515	4057
365.598	4049
365.682	6420
365.766	4563
365.849	4767
365.933	5610
366.017	6803
366.100	4228
366.184	5013
366.267	6625
366.351	5433
366.435	5171
366.518	4544
366.602	5949
366.685	5086
366.769	5043
366.852	5578
366.936	6467
367.019	5203
367.103	5041
367.186	6262
367.270	5209
367.353	4844
367.436	7339
367.520	6611
367.603	7629
367.687	5142
367.770	5971
367.853	7528
367.937	10374
368.020	10903
368.104	5925
368.187	5135
368.270	5825
368.353	5099
368.437	5493
368.520	4719
368.603	5022
368.687	6173
368.770	10330
368.853	5252
368.936	6106
369.020	4631
369.103	4149
369.186	4023
369.269	4070
369.352	4824
369.436	4388
369.519	4739
369.602	3513
369.685	5351
369.768	3537
369.851	4416
369.934	4092
370.018	3285
370.101	3729
370.184	5154
370.267	5327
370.350	5400
370.433	6700
370.516	15938
370.599	34270
370.682	12622
370.765	8638
370.848	8195
370.931	11348
371.014	7091
371.097	2660
371.180	4505
371.263	4676
371.346	2539
371.429	4236
371.511	2883
371.594	3473
371.677	4687
371.760	5310
371.843	4320
371.926	14966
372.009	28266
372.091	12199
372.174	6751
372.257	14589
372.340	6115
372.423	5227
372.505	5782
372.588	4231
372.671	6705
372.754	11049
372.836	7173
372.919	5088
373.002	5975
373.085	3612
373.167	5407
373.250	7458
373.332	13925
373.415	19859
373.498	36009
373.580	19280
373.663	48555
373.746	49166
373.828	10550
373.911	7222
373.993	4863
374.076	6936
374.159	5600
374.241	7061
374.324	11587
374.406	9433
374.489	14094
374.571	30868
374.654	12858
374.736	9606
374.819	21626
374.901	29122
374.983	29471
375.066	9922
375.148	7753
375.231	8329
375.313	9175
375.395	8716
375.478	7916
375.560	8212
375.643	7556
375.725	11216
375.807	24631
375.890	17999
375.972	5306
376.054	6845
376.136	5197
376.219	5386
376.301	9329
376.383	18550
376.465	8785
376.548	5151
376.630	6072
376.712	14869
376.794	8351
376.877	4857
376.959	3487
377.041	4071
377.123	3357
377.205	4090
377.287	3171
377.369	5042
377.452	3998
377.534	5065
377.616	5045
377.698	4360
377.780	3478
377.862	4447
377.944	5672
378.026	3415
378.108	5030
378.190	4302
378.272	4997
378.354	4571
378.436	3306
378.518	3877
378.600	4406
378.682	5382
378.764	7688
378.846	7077
378.928	4456
379.010	4656
379.091	4354
379.173	3760
379.255	3682
379.337	4131
379.419	4771
379.501	10927
379.583	5663
379.664	3939
379.746	3078
379.828	8662
379.910	8511
379.991	9443
380.073	3266
380.155	4100
380.237	3254
380.318	3283
380.400	3791
380.482	5101
380.564	3751
380.645	5006
380.727	4736
380.809	5885
380.890	3249
380.972	3317
381.053	3880
381.135	3894
381.217	4463
381.298	8664
381.380	4714
381.461	6025
381.543	13315
381.624	16272
381.706	4952
381.787	4462
381.869	5124
381.951	8674
382.032	27669
382.113	18916
382.195	4427
382.276	5960
382.358	8120
382.439	15416
382.521	16803
382.602	25691
382.684	11285
382.765	16946
382.846	16963
382.928	26950
383.009	14910
383.090	13071
383.172	40054
383.253	56519
383.334	21381
383.416	21961
383.497	12925
383.578	8282
383.659	10920
383.741	36059
383.822	89417
383.903	41145
383.984	15715
384.066	24500
384.147	13754
384.228	8856
384.309	7763
384.390	9144
384.471	8525
384.553	6726
384.634	5990
384.715	6750
384.796	5714
384.877	5431
384.958	8588
385.039	9006
385.120	5524
385.201	6220
385.282	5412
385.363	6666
385.444	7193
385.525	10331
385.606	17249
385.687	15404
385.768	7116
385.849	8300
385.930	18777
386.011	28022
386.092	11467
386.173	8673
386.254	8029
386.335	7980
386.416	7716
386.496	9780
386.577	11284
386.658	8950
386.739	6872
386.820	8517
386.901	7153
386.981	10285
387.062	11828
387.143	12577
387.224	17145
387.304	18762
387.385	16141
387.466	14992
387.547	17975
387.627	18974
387.708	18277
387.789	24469
387.869	22849
387.950	15663
388.031	10445
388.111	8590
388.192	10767
388.273	10696
388.353	8004
388.434	7925
388.514	8678
388.595	19164
388.676	19059
388.756	10834
388.837	9359
388.917	7677
388.998	4712
389.078	7015
389.159	6344
389.239	5142
389.320	7577
389.400	4312
389.480	7875
389.561	10785
389.641	8059
389.722	6911
389.802	5902
389.883	7752
389.963	13050
390.043	8722
390.124	6186
390.204	8037
390.284	10342
390.365	7051
390.445	7172
390.525	9413
390.605	10747
390.686	6759
390.766	6636
390.846	7467
390.927	6465
391.007	5317
391.087	7082
391.167	5691
391.247	5333
391.328	7681
391.408	7809
391.488	7565
391.568	5899
391.648	7490
391.728	8843
391.808	9449
391.888	8334
391.969	11868
392.049	13798
392.129	11978
392.209	12097
392.289	18964
392.369	14120
392.449	14728
392.529	15307
392.609	18591
392.689	21110
392.769	28158
392.849	32465
392.929	38115
393.009	55492
393.089	77816
393.169	137120
393.248	293923
393.328	535324
393.408	522176
393.488	283464
393.568	128045
393.648	69188
393.728	45146
393.807	29351
393.887	25171
393.967	20789
394.047	17473
394.127	14164
394.206	14598
394.286	18787
394.366	54934
394.446	55102
394.525	15288
394.605	9908
394.685	10114
394.764	11848
394.844	24014
394.924	31825
395.003	13108
395.083	8556
395.163	7997
395.242	7369
395.322	8340
395.402	6168
395.481	9503
395.561	10948
395.640	37588
395.720	75671
395.799	35323
395.879	13365
395.958	12244
396.038	20266
396.117	71579
396.197	74414
396.276	24310
396.356	18226
396.435	22967
396.515	32190
396.594	51133
396.673	103077
396.753	264727
396.832	485762
396.912	372167
396.991	142965
397.070	63699
397.150	36753
397.229	34299
397.308	61952
397.388	113733
397.467	52648
397.546	18150
397.625	10699
397.705	13404
397.784	11009
397.863	8909
397.942	9122
398.022	8191
398.101	7179
398.180	8306
398.259	6370
398.338	7158
398.417	5514
398.497	5084
398.576	6471
398.655	4623
398.734	5614
398.813	5700
398.892	5718
398.971	6163
399.050	4087
399.129	4317
399.208	5249
399.287	5133
399.366	3354
399.445	3547
399.524	3667
399.603	3667
399.682	4320
399.761	4571
399.840	5546
399.919	5717
399.998	3591
400.077	2614
400.156	2132
400.235	5421
400.313	2931
400.392	2846
400.471	4826
400.550	6216
400.629	2923
400.708	3748
400.786	1751
400.865	2900
400.944	1528
401.023	4713
401.102	2455
401.180	3085
401.259	3064
401.338	2554
401.416	2655
401.495	2069
401.574	3137
401.652	2566
401.731	3632
401.810	1627
401.888	2547
401.967	2229
402.046	1895
402.124	2641
402.203	1177
402.281	2606
402.360	1543
402.438	2483
402.517	1295
402.596	2484
402.674	1444
402.753	2591
402.831	2319
402.910	3934
402.988	8011
403.066	28808
403.145	16152
403.223	10676
403.302	24227
403.380	19326
403.459	19317
403.537	8107
403.615	4075
403.694	2878
403.772	3674
403.850	3735
403.929	2224
404.007	2380
404.085	5932
404.164	4197
404.242	2753
404.320	3382
404.398	3245
404.477	4343
404.555	17911
404.633	14557
404.711	3782
404.789	2870
404.868	2090
404.946	2198
405.024	2079
405.102	1899
405.180	1149
405.258	649
405.336	2659
405.415	838
405.493	3013
405.571	3283
405.649	1996
405.727	1537
405.805	3193
405.883	3912
405.961	3301
406.039	2513
406.117	1726
406.195	2809
406.273	3379
406.351	12563
406.429	7643
406.507	2010
406.585	1699
406.663	2613
406.740	2913
406.818	1482
406.896	579
406.974	2749
407.052	1192
407.130	8058
407.208	9098
407.285	4077
407.363	1464
407.441	2687
407.519	1946
407.596	3091
407.674	11036
407.752	48115
407.830	32536
407.907	5689
407.985	2140
408.063	2524
408.141	830
408.218	2278
408.296	1498
408.373	2585
408.451	3083
408.529	3258
408.606	2712
408.684	3935
408.762	3676
408.839	4166
408.917	4223
408.994	4920
409.072	4802
409.149	7288
409.227	15053
409.304	23176
409.382	23407
409.459	27126
409.537	37375
409.614	30590
409.692	22565
409.769	23555
409.846	37481
409.924	44983
410.001	29816
410.079	20500
410.156	13651
410.233	10851
410.311	7565
410.388	8597
410.465	7848
410.543	6445
410.620	6740
410.697	6983
410.775	6830
410.852	5806
410.929	8461
411.006	9745
411.083	7159
411.161	7992
411.238	7761
411.315	5426
411.392	5045
411.469	6021
411.547	4993
411.624	3345
411.701	3555
411.778	3570
411.855	3464
411.932	3108
412.009	2551
412.086	3667
412.163	2581
412.240	3047
412.317	3687
412.394	3460
412.471	3207
412.548	2557
412.625	2222
412.702	2456
412.779	3119
412.856	4032
412.933	1570
413.010	2870
413.087	2327
413.164	3781
413.241	4799
413.318	2255
413.395	2046
413.471	2464
413.548	2327
413.625	2288
413.702	879
413.779	2074
413.855	1517
413.932	2311
414.009	410
414.086	1478
414.162	2556
414.239	2519
414.316	2550
414.393	5992
414.469	1598
414.546	1781
414.623	906
414.699	1234
414.776	667
414.853	1828
414.929	1593
415.006	1269
415.082	1315
415.159	1578
415.236	1334
415.312	1505
415.389	1253
415.465	848
415.542	1393
415.618	429
415.695	1794
415.771	1678
415.848	1049
415.924	1328
416.000	1220
416.077	2593
416.153	-39
416.230	420
416.306	278
416.383	1153
416.459	1320
416.535	695
416.612	1059
416.688	1169
416.764	1477
416.841	-186
416.917	811
416.993	1179
417.069	625
417.146	1129
417.222	1008
417.298	1275
417.374	570
417.451	1560
417.527	244
417.603	1231
417.679	734
417.755	971
417.831	-527
417.908	1319
417.984	611
418.060	-477
418.136	1278
418.212	1438
418.288	652
418.364	1978
418.440	520
418.516	1288
418.592	1278
418.668	1991
418.744	1807
418.820	2293
418.896	2109
418.972	1141
419.048	1363
419.124	2799
419.200	723
419.276	2232
419.352	1366
419.428	2246
419.504	1272
419.579	2716
419.655	2874
419.731	3233
419.807	3003
419.883	3432
419.959	3767
420.034	4233
420.110	3800
420.186	5671
420.262	6122
420.337	4836
420.413	5143
420.489	5922
420.565	7070
420.640	6779
420.716	7382
420.792	7235
420.867	8388
420.943	7704
421.019	8731
421.094	9246
421.170	9178
421.245	11625
421.321	12090
421.397	14816
421.472	24385
421.548	44719
421.623	32596
421.699	23239
421.774	24644
421.850	29153
421.925	33939
422.001	42017
422.076	49594
422.152	61603
422.227	81440
422.302	110481
422.378	153252
422.453	221080
422.529	292179
422.604	267035
422.679	188906
422.755	258193
422.830	285568
422.905	221977
422.981	162228
423.056	119725
423.131	90300
423.207	69636
423.282	54150
423.357	47205
423.432	38251
423.508	33120
423.583	28098
423.658	25376
423.733	21779
423.808	21025
423.883	18833
423.959	19766
424.034	23871
424.109	21455
424.184	14422
424.259	13060
424.334	11364
424.409	9985
424.484	8699
424.559	8470
424.634	7307
424.709	6250
424.784	6981
424.859	5583
424.934	5141
425.009	6314
425.084	7339
425.159	5379
425.234	5129
425.309	3590
425.384	5279
425.459	5964
425.534	3779
425.609	3282
425.683	2678
425.758	3185
425.833	3244
425.908	3770
425.983	2731
426.058	5530
426.132	3127
426.207	2813
426.282	3804
426.357	1756
426.431	3057
426.506	2565
426.581	2469
426.655	3246
426.730	1474
426.805	1595
426.879	2687
426.954	2206
427.029	2660
427.103	5190
427.178	9647
427.253	5494
427.327	1718
427.402	2659
427.476	3476
427.551	2007
427.625	1724
427.700	2133
427.774	1475
427.849	2339
427.923	1702
427.998	2644
428.072	3306
428.147	9766
428.221	42245
428.296	120292
428.370	63885
428.444	11233
428.519	3879
428.593	3817
428.667	3107
428.742	4980
428.816	15837
428.890	74793
428.965	107624
429.039	27745
429.113	5138
429.188	3304
429.262	2117
429.336	3092
429.410	2118
429.485	3008
429.559	2815
429.633	3400
429.707	4497
429.781	15133
429.855	69419
429.930	95589
430.004	26937
430.078	16433
430.152	51893
430.226	159683
430.300	148456
430.374	38270
430.448	11556
430.522	7771
430.596	7794
430.670	24027
430.744	94413
430.818	96091
430.892	19534
430.966	3405
431.040	1840
431.114	676
431.188	5
431.262	909
431.336	-303
431.410	1295
431.484	375
431.557	2933
431.631	2310
431.705	6381
431.779	33656
431.853	114663
431.927	72161
432.000	11832
432.074	2761
432.148	1530
432.222	128
432.295	-86
432.369	-440
432.443	-236
432.516	2041
432.590	8583
432.664	1939
432.737	-725
432.811	-1164
432.885	-462
432.958	-1085
433.032	-1425
433.106	-978
433.179	-699
433.253	-1017
433.326	-857
433.400	-1517
433.473	-206
433.547	-1606
433.620	-477
433.694	-940
433.767	-584
433.841	-716
433.914	-162
433.988	-932
434.061	-359
434.134	-145
434.208	-442
434.281	-1393
434.355	-1299
434.428	-843
434.501	-1006
434.575	-1256
434.648	-1266
434.721	-1154
434.795	-1131
434.868	-550
434.941	-340
435.014	-152
435.088	-334
435.161	1121
435.234	2105
435.307	1456
435.381	3605
435.454	7647
435.527	16221
435.600	17990
435.673	13684
435.746	8837
435.819	5127
435.892	4080
435.966	2497
436.039	597
436.112	1516
436.185	359
436.258	98
436.331	-660
436.404	-322
436.477	-702
436.550	-621
436.623	-793
436.696	-569
436.769	-1199
436.842	-958
436.915	-730
436.987	-957
437.060	-548
437.133	-392
437.206	-1689
437.279	-532
437.352	-1136
437.425	-450
437.498	-1124
437.570	-665
437.643	-1610
437.716	-749
437.789	-766
437.861	492
437.934	2428
438.007	104
438.080	-1432
438.152	-378
438.225	-501
438.298	4562
438.370	16196
438.443	6634
438.516	1911
438.588	615
438.661	-1708
438.734	-509
438.806	-434
438.879	-285
438.951	-384
439.024	1256
439.096	-474
439.169	-330
439.241	-1278
439.314	-1202
439.386	-839
439.459	23
439.531	-257
439.604	-45
439.676	-648
439.749	-513
439.821	-1291
439.893	-733
439.966	-610
440.038	-900
440.110	-457
440.183	-608
440.255	-1188
440.327	221
440.400	1517
440.472	6478
440.544	3775
440.617	471
440.689	1553
440.761	1157
440.833	2864
440.905	2131
440.978	-521
441.050	58
441.122	-333
441.194	-529
441.266	-689
441.338	-463
441.411	-410
441.483	1382
441.555	2149
441.627	92
441.699	-574
441.771	67
441.843	-176
441.915	429
441.987	211
442.059	353
442.131	890
442.203	1851
442.275	4313
442.347	8885
442.419	22067
442.491	95601
442.563	179660
442.635	71869
442.706	15468
442.778	7763
442.850	3609
442.922	3819
442.994	3391
443.066	3946
443.137	5334
443.209	8537
443.281	14544
443.353	33893
443.425	110474
443.496	264600
443.568	266406
443.640	116996
443.711	29071
443.783	12783
443.855	7086
443.926	4164
443.998	3802
444.070	2867
444.141	1801
444.213	3249
444.285	1523
444.356	1598
444.428	970
444.499	1460
444.571	1436
444.642	1884
444.714	927
444.785	1871
444.857	2202
444.928	3892
445.000	3495
445.071	6617
445.143	8439
445.214	14587
445.285	27021
445.357	67002
445.428	189188
445.500	296610
445.571	253953
445.642	171316
445.714	62879
445.785	21570
445.856	9134
445.928	5306
445.999	4961
446.070	2984
446.141	2224
446.213	1847
446.284	737
446.355	594
446.426	-242
446.497	122
446.569	-476
446.640	46
446.711	-317
446.782	193
446.853	-716
446.924	-384
446.995	-1485
447.066	-618
447.138	-1229
447.209	-673
447.280	-1803
447.351	-1076
447.422	-1282
447.493	-756
447.564	-1709
447.635	-2385
447.706	-2466
447.777	-1467
447.847	-1493
447.918	-2453
447.989	-1979
448.060	-1450
448.131	-2550
448.202	-1237
448.273	-1733
448.344	-1380
448.414	-1336
448.485	-1646
448.556	-2124
448.627	-1761
448.698	-501
448.768	-1943
448.839	-2051
448.910	-1502
448.981	-1439
449.051	-1728
449.122	-2315
449.193	-2042
449.263	-2312
449.334	-1293
449.405	-1592
449.475	-1584
449.546	-2104
449.616	-114
449.687	-1069
449.758	-1311
449.828	-2469
449.899	-1579
449.969	-2453
450.040	-1954
450.110	-2376
450.181	-1792
450.251	-2381
450.322	-1860
450.392	-1368
450.463	-1750
450.533	-1882
450.604	-1276
450.674	-2201
450.744	-290
450.815	-544
450.885	-311
450.955	-1332
451.026	-289
451.096	-1075
451.166	-1317
451.237	-937
451.307	1444
451.377	273
451.447	-1139
451.518	-1604
451.588	-1656
451.658	-1867
451.728	-1628
451.799	-2125
451.869	-1455
451.939	-1444
452.009	-2170
452.079	-2344
452.149	-915
452.219	-2151
452.289	-1005
452.360	-878
452.430	-857
452.500	-516
452.570	2494
452.640	10944
452.710	34002
452.780	32294
452.850	14172
452.920	5198
452.990	1455
453.060	182
453.129	-272
453.199	-1488
453.269	-195
453.339	-155
453.409	-115
453.479	264
453.549	-358
453.619	-45
453.688	-1300
453.758	-1879
453.828	-1858
453.898	-2705
453.968	-1865
454.037	-2073
454.087	-2451
454.107	-2633
454.168	-1854
454.177	-1771
454.247	-1220
454.249	-1219
454.316	-1794
454.330	-1787
454.386	-1871
454.411	-1709
454.456	-1531
454.492	-1450
454.525	-1432
454.574	-1224
454.595	-1146
454.655	-2133
454.665	-2332
454.734	-983
454.736	-954
454.804	-810
454.817	-802
454.873	-1028
454.898	-1038
454.943	-1080
454.979	-1324
455.013	-1554
455.060	-1243
455.082	-1151
455.141	-1685
455.152	-1806
455.221	-638
455.222	-617
455.291	-1312
455.303	-1221
455.360	-873
455.384	-948
455.430	-1275
455.465	-915
455.499	-654
455.546	-1128
455.569	-1310
455.627	-564
455.638	-481
455.707	-1277
455.708	-1250
455.777	-1365
455.789	-1257
455.846	-823
455.869	-701
455.916	-531
455.950	-455
455.985	-466
456.031	-463
456.054	-510
456.112	-818
456.124	-885
456.193	214
456.193	191
456.262	-115
456.274	-123
456.332	-138
456.355	-314
456.401	-818
456.436	-253
456.470	168
456.516	-38
456.540	-56
456.597	167
456.609	147
456.678	929
456.678	906
456.747	171
456.759	98
456.817	-151
456.840	147
456.886	590
456.920	655
456.955	796
457.001	1053
457.024	907
457.082	842
457.093	911
457.162	1152
457.163	1180
457.232	1107
457.243	1210
457.301	1543
457.324	1466
457.370	1379
457.405	2077
457.439	2803
457.485	2649
457.508	2592
457.566	3969
457.577	4485
457.646	7016
457.647	7098
457.715	19866
457.727	22940
457.784	43784
457.808	58529
457.853	76184
457.889	87365
457.922	83004
457.969	51565
457.991	51368
458.050	67084
458.060	70459
458.129	124299
458.130	125781
458.198	120260
458.211	108393
458.267	55009
458.292	35907
458.336	23387
458.372	22403
458.405	32463
458.453	50328
458.474	65522
458.533	121432
458.543	125775
458.611	193735
458.614	194665
458.680	111877
458.694	87646
458.749	38081
458.775	25315
458.818	15130
458.855	11774
458.887	9754
458.936	7096
458.955	6346
459.016	5611
459.024	5512
459.093	4875
459.097	4860
459.162	4513
459.177	4516
459.230	4480
459.257	4566
459.299	4816
459.338	4885
459.368	4776
459.418	4382
459.437	4098
459.499	3720
459.505	3716
459.574	3158
459.579	3202
459.643	3571
459.659	3567
459.711	3655
459.740	3816
459.780	3761
459.820	3334
459.849	3200
459.900	3680
459.917	3787
459.981	3887
459.986	3856
460.054	3082
460.061	3108
460.123	3628
460.141	3783
460.191	4162
460.222	4122
460.260	4172
460.302	4575
460.328	4687
460.382	4586
460.397	4684
460.462	5565
460.465	5815
460.534	11483
460.543	12356
460.602	37373
460.623	46765
460.671	72338
460.703	96198
460.739	88451
460.783	67860
460.808	54448
460.864	12271
460.876	9381
460.944	4444
460.945	4392
461.013	4589
461.024	4495
461.081	4211
461.104	4270
461.150	3993
461.184	3681
461.218	3865
461.264	4204
461.286	4044
461.345	3506
461.355	3541
461.423	4515
461.425	4521
461.491	3701
461.505	3611
461.559	3939
461.585	4093
461.628	4248
461.665	4727
461.696	5015
461.745	4562
461.764	4338
461.825	4249
461.832	4313
461.901	4781
461.905	4821
461.969	4538
461.985	4381
462.037	4701
462.065	5045
462.105	4669
462.145	4168
462.173	4283
462.225	4515
462.241	4556
462.305	4778
462.310	4766
462.378	4735
462.385	4678
462.446	4554
462.465	4573
462.514	4722
462.545	5004
462.582	5120
462.625	4993
462.650	4879
462.705	4497
462.718	4423
462.785	4444
462.786	4453
462.854	4301
462.865	4321
462.922	4901
462.945	5124
462.990	5216
463.025	5223
463.058	5097
463.104	4943
463.126	4747
463.184	4370
463.194	4488
463.262	4716
463.264	4732
463.330	4674
463.344	4684
463.398	5416
463.424	5698
463.466	5580
463.504	5486
463.533	5332
463.583	4967
463.601	4979
463.663	4910
463.669	4871
463.737	4648
463.743	4598
463.805	5374
463.823	5631
463.873	5833
463.903	6000
463.940	5615
463.982	5022
464.008	5041
464.062	4937
464.076	4933
464.142	5138
464.144	5147
464.211	4937
464.221	4925
464.279	5179
464.301	5220
464.347	5326
464.381	5446
464.414	5126
464.461	4717
464.482	5034
464.540	5672
464.550	5713
464.617	5962
464.620	5960
464.685	5600
464.699	5526
464.753	6445
464.779	6827
464.820	6360
464.859	5889
464.888	5701
464.938	5376
464.956	5591
465.018	6214
465.023	6228
465.091	6372
465.098	6373
465.158	6566
465.177	6600
465.226	6435
465.257	6277
465.293	6286
465.336	6298
465.361	6125
465.416	5643
465.428	5712
465.495	6106
465.496	6119
465.563	5826
465.575	5805
465.631	6600
465.654	6867
465.698	6407
465.734	6021
465.765	6176
465.813	6363
465.833	6371
465.893	6332
465.900	6316
465.968	6018
465.972	5986
466.035	6195
466.052	6213
466.102	6413
466.131	6522
466.170	6779
466.210	6966
466.237	6981
466.290	7037
466.304	6903
466.369	6028
466.372	6048
466.439	6323
466.449	6325
466.506	6337
466.528	6338
466.573	6361
466.607	6311
466.641	6947
466.687	7833
466.708	8246
466.766	9320
466.775	9131
466.842	7498
466.845	7400
466.909	7191
466.925	7122
466.977	6995
467.004	6909
467.044	7710
467.083	8441
467.111	8399
467.163	8274
467.178	8404
467.242	8840
467.245	8876
467.312	9161
467.321	9177
467.379	8794
467.400	8624
467.446	8730
467.480	8771
467.559	8749
467.638	8829
467.717	8217
467.796	10029
467.875	9910
467.955	9302
468.034	11218
468.113	13196
468.192	16534
468.271	19353
468.350	26482
468.429	39102
468.508	42942
468.588	28165
468.667	16250
468.746	12055
468.825	11434
468.904	10509
468.983	9449
469.062	9782
469.141	9036
469.220	7886
469.299	9259
469.378	7894
469.456	9645
469.535	9035
469.614	8736
469.693	7670
469.772	9428
469.851	9559
469.930	8063
470.009	8678
470.088	8677
470.166	8937
470.245	10226
470.324	10046
470.403	10123
470.482	9422
470.560	9368
470.639	9060
470.718	8309
470.797	8395
470.875	8552
470.954	8226
471.033	8674
471.111	8409
471.190	7202
471.269	8273
471.347	8199
471.426	8266
471.505	8152
471.583	9044
471.662	8896
471.740	8973
471.819	7851
471.898	7985
471.976	8551
472.055	8558
472.133	9887
472.212	12151
472.290	9061
472.369	7746
472.447	8876
472.526	7630
472.604	9019
472.683	9040
472.761	9336
472.839	9064
472.918	9769
472.996	8718
473.075	9297
473.153	9567
473.231	8874
473.310	9976
473.388	8699
473.466	9440
473.545	9206
473.623	10080
473.701	9717
473.780	10240
473.858	8381
473.936	11339
474.014	9214
474.093	10376
474.171	12820
474.249	11168
474.327	9852
474.405	9689
474.484	8767
474.562	9264
474.640	7844
474.718	8859
474.796	7988
474.874	9265
474.952	7845
475.030	8784
475.108	8433
475.187	9261
475.265	8923
475.343	12378
475.421	11924
475.499	9743
475.577	8894
475.655	9557
475.733	8663
475.811	9292
475.889	8548
475.966	8781
476.044	7945
476.122	10084
476.200	10810
476.278	10171
476.356	7212
476.434	9145
476.512	9509
476.590	10908
476.667	10303
476.745	8409
476.823	8955
476.901	9065
476.979	8716
477.056	7928
477.134	7686
477.212	8137
477.290	8545
477.367	8918
477.445	8807
477.523	8093
477.601	7842
477.678	8273
477.756	8736
477.834	8455
477.911	7672
477.989	8321
478.066	7965
478.144	8094
478.222	9893
478.299	13163
478.377	14389
478.454	11097
478.532	8616
478.609	8961
478.687	9408
478.764	7950
478.842	7376
478.919	8868
478.997	8340
479.074	7553
479.152	8061
479.229	8489
479.307	7463
479.384	7473
479.461	8630
479.539	8350
479.616	8656
479.694	8194
479.771	8143
479.848	8321
479.926	6589
480.003	8533
480.080	8138
480.157	8483
480.235	8194
480.312	8505
480.389	8552
480.467	8225
480.544	9956
480.621	9835
480.698	10341
480.775	9658
480.853	8984
480.930	9218
481.007	9199
481.084	13007
481.161	19014
481.238	14338
481.315	7574
481.392	8771
481.470	8692
481.547	9546
481.624	9086
481.701	9409
481.778	9920
481.855	10145
481.932	10310
482.009	11502
482.086	11798
482.163	13590
482.240	16224
482.317	21260
482.393	16401
482.470	12595
482.547	12370
482.624	10968
482.701	11304
482.778	11364
482.855	10237
482.932	11320
483.009	11702
483.085	15462
483.162	19987
483.239	20361
483.316	16750
483.393	16966
483.469	14773
483.546	12090
483.623	10952
483.699	9935
483.776	9720
483.853	9041
483.930	9399
484.006	8427
484.083	11574
484.160	11558
484.236	13929
484.313	13300
484.389	12802
484.466	15453
484.543	16448
484.619	22387
484.696	26191
484.772	17640
484.849	12954
484.925	12212
485.002	11829
485.078	12024
485.155	11575
485.231	10043
485.308	9175
485.384	10491
485.461	10891
485.537	10258
485.614	11201
485.690	8944
485.766	9062
485.843	9066
485.919	10473
485.995	9415
486.072	9457
486.148	9331
486.224	8797
486.301	9694
486.377	10089
486.453	11299
486.530	10772
486.606	11026
486.682	12082
486.758	11169
486.835	11804
486.911	12205
486.987	13178
487.063	14921
487.139	18623
487.215	23314
487.292	23391
487.368	22032
487.444	28193
487.520	42190
487.596	60992
487.672	132110
487.748	427128
487.824	689245
487.900	253095
487.976	65640
488.052	34723
488.128	28293
488.204	17927
488.280	16280
488.356	13898
488.432	13886
488.508	13593
488.584	11120
488.660	11358
488.736	11648
488.812	10033
488.888	10803
488.964	10221
489.039	12248
489.115	15662
489.191	13740
489.267	10731
489.343	9288
489.418	9315
489.494	9024
489.570	8372
489.646	10267
489.722	9185
489.797	9891
489.873	9614
489.949	9818
490.024	9878
490.100	10416
490.176	9978
490.251	9753
490.327	10001
490.403	8908
490.478	9466
490.554	9162
490.629	9344
490.705	10198
490.781	9440
490.856	8454
490.932	9078
491.007	8451
491.083	8818
491.158	8926
491.234	8645
491.309	8751
491.385	8392
491.460	8118
491.536	9000
491.611	8092
491.686	7768
491.762	8301
491.837	9489
491.913	10638
491.988	12646
492.063	12961
492.139	8802
492.214	8354
492.289	8237
492.365	7277
492.440	8117
492.515	7467
492.590	7837
492.666	7610
492.741	7441
492.816	7447
492.891	7241
492.967	7620
493.042	7403
493.117	7790
493.192	8064
493.267	8043
493.342	8869
493.418	9556
493.493	7926
493.568	7583
493.643	7440
493.718	7563
493.793	7021
493.868	7359
493.943	8243
494.018	6772
494.093	7436
494.168	6903
494.243	6447
494.318	7470
494.393	8001
494.468	7135
494.543	7320
494.618	7804
494.693	7045
494.768	6686
494.842	6029
494.917	6353
494.992	6930
495.067	7781
495.142	6302
495.217	7247
495.292	7393
495.366	7048
495.441	6337
495.516	7354
495.591	7231
495.665	11730
495.740	19324
495.815	11275
495.890	7432
495.964	5771
496.039	9383
496.114	10495
496.188	17019
496.263	14566
496.338	7317
496.412	6523
496.487	7064
496.561	7029
496.636	7259
496.710	8309
496.785	8254
496.860	7912
496.934	6737
497.009	7643
497.083	6287
497.158	6986
497.232	7260
497.307	7646
497.381	6927
497.455	6389
497.530	7357
497.604	7702
497.679	6527
497.753	6924
497.827	7267
497.902	6400
497.976	7897
498.050	8635
498.125	16781
498.199	15629
498.273	7791
498.348	7254
498.422	6818
498.496	7360
498.570	7537
498.645	6562
498.719	4820
498.793	7144
498.867	6616
498.941	7054
499.016	10210
499.090	15952
499.164	10054
499.238	7328
499.312	5869
499.386	8322
499.460	7296
499.534	7808
499.609	7562
499.683	6685
499.757	7916
499.831	7625
499.905	12529
499.979	12056
500.053	6760
500.127	7522
500.201	6858
500.275	7445
500.349	7103
500.422	7018
500.496	7975
500.570	8629
500.644	11555
500.718	12835
500.792	7997
500.866	7455
500.940	7968
501.013	7211
501.087	7249
501.161	7700
501.235	6253
501.309	10532
501.382	11497
501.456	12428
501.530	7641
501.603	7607
501.677	7040
501.751	6602
501.825	8477
501.898	7116
501.972	8432
502.046	7605
502.119	6871
502.193	7273
502.266	7668
502.340	6939
502.413	7249
502.487	8761
502.561	6850
502.634	7329
502.708	8021
502.781	7399
502.855	8435
502.928	6166
503.002	7094
503.075	6396
503.149	7272
503.222	7795
503.295	6643
503.369	8094
503.442	8435
503.516	11455
503.589	13789
503.662	15111
503.736	16606
503.809	22250
503.882	26430
503.956	41011
504.029	83569
504.102	248848
504.175	399132
504.249	162323
504.322	53369
504.395	28282
504.468	19355
504.542	14098
504.615	11182
504.688	11354
504.761	7603
504.834	10246
504.907	8216
504.980	7867
505.053	7617
505.127	4881
505.200	9060
505.273	6239
505.346	6032
505.419	5692
505.492	7536
505.565	5252
505.638	5838
505.711	5563
505.784	5326
505.857	5913
505.930	6888
506.003	4559
506.076	6357
506.149	4794
506.221	3253
506.294	6766
506.367	4648
506.440	7533
506.513	7409
506.586	6167
506.659	4636
506.731	5034
506.804	5352
506.877	4513
506.950	4834
507.022	6705
507.095	3376
507.168	5243
507.241	4947
507.313	5568
507.386	3407
507.459	6244
507.531	4574
507.604	3982
507.677	5583
507.749	2963
507.822	5863
507.894	6264
507.967	6971
508.040	5413
508.112	5712
508.185	5720
508.257	4148
508.330	7418
508.402	4918
508.475	4886
508.547	5753
508.620	5214
508.692	5114
508.765	6112
508.837	4759
508.909	5775
508.982	4977
509.054	6096
509.127	5767
509.199	5354
509.271	4504
509.344	5262
509.416	4606
509.488	5528
509.560	5785
509.633	5137
509.705	4925
509.777	4772
509.849	5670
509.922	4115
509.994	4939
510.066	5933
510.138	3974
510.210	7903
510.283	5537
510.355	6518
510.427	5844
510.499	5710
510.571	4970
510.643	3862
510.715	6563
510.787	4314
510.859	6569
510.931	5146
511.003	5375
511.076	7151
511.148	4280
511.219	4278
511.291	6004
511.363	6404
511.435	4514
511.507	4687
511.579	5600
511.651	6602
511.723	4558
511.795	4515
511.867	4423
511.939	5353
512.010	4394
512.082	5878
512.154	4701
512.226	5047
512.298	7468
512.369	5847
512.441	6646
512.513	6756
512.585	4592
512.656	7203
512.728	5527
512.800	5212
512.871	5524
512.943	6459
513.015	4469
513.086	5988
513.158	5675
513.230	4835
513.301	5396
513.373	6652
513.444	5088
513.516	5516
513.588	4916
513.659	6160
513.731	6447
513.802	4744
513.874	6789
513.945	6691
514.016	5292
514.088	5387
514.159	4782
514.231	6606
514.302	5362
514.374	6639
514.445	4112
514.516	7291
514.588	5122
514.659	5183
514.730	5421
514.802	7011
514.873	3799
514.944	7696
515.016	6138
515.087	5049
515.158	5801
515.229	6939
515.301	4114
515.372	6435
515.443	5128
515.514	5419
515.585	5377
515.656	7487
515.728	6592
515.799	5467
515.870	6580
515.941	6976
516.012	4525
516.083	8090
516.154	5284
516.225	7506
516.296	7877
516.367	6744
516.438	6947
516.509	7816
516.580	8854
516.651	21081
516.722	56190
516.793	29164
516.864	9526
516.935	9461
517.006	10616
517.077	12036
517.148	19579
517.219	73606
517.289	119468
517.360	20613
517.431	9810
517.502	7309
517.573	7969
517.643	7945
517.714	7115
517.785	8820
517.856	9354
517.926	11559
517.997	13108
518.068	13384
518.138	17223
518.209	21559
518.280	57953
518.350	203311
518.421	93304
518.492	31660
518.562	36861
518.633	48883
518.703	72701
518.774	170651
518.845	462839
518.915	478805
518.986	138577
519.056	51510
519.127	31841
519.197	23432
519.268	18381
519.338	16372
519.408	11862
519.479	10721
519.549	9595
519.620	9715
519.690	8025
519.760	8378
519.831	7820
519.901	7787
519.971	7896
520.042	6176
520.112	6065
520.182	8142
520.253	7108
520.323	6909
520.393	6991
520.463	10905
520.534	4421
520.604	12312
520.674	8925
520.744	6848
520.814	10370
520.885	10738
520.955	6639
521.025	8585
521.095	7094
521.165	7116
521.235	5599
521.305	5482
521.375	6190
521.445	6947
521.515	6277
521.585	7779
521.655	5137
521.725	7235
521.795	6283
521.865	4807
521.935	8358
522.005	5982
522.075	5959
522.145	7900
522.215	6121
522.285	7634
522.355	6265
522.424	7768
522.494	7746
522.564	8320
522.634	7715
522.704	14338
522.774	8017
522.843	7109
522.913	7369
522.983	7383
523.053	6540
523.122	7578
523.192	7571
523.262	9061
523.331	9319
523.401	8477
523.471	7250
523.540	7970
523.610	7305
523.680	8051
523.749	7504
523.819	9896
523.888	9040
523.958	7992
524.027	8201
524.097	7588
524.166	6726
524.236	6645
524.305	9610
524.375	6353
524.444	6154
524.514	9459
524.583	6900
524.653	8048
524.722	9449
524.791	6468
524.861	9564
524.930	8583
524.999	7884
525.069	10116
525.138	8863
525.207	8184
525.277	11015
525.346	11398
525.415	12506
525.484	14523
525.554	14344
525.623	20503
525.692	26895
525.761	30151
525.830	37019
525.900	47466
525.969	73740
526.038	144112
526.107	281864
526.176	825357
526.245	699975
526.314	202071
526.383	393983
526.452	582537
526.522	717587
526.591	725071
526.660	136355
526.729	72783
526.797	74040
526.867	102312
526.935	289029
527.004	1010287
527.073	735221
527.142	115318
527.211	44719
527.280	30186
527.349	22875
527.418	16646
527.487	16410
527.555	12482
527.624	11221
527.693	10720
527.762	12754
527.831	9324
527.899	11291
527.968	9579
528.037	7811
528.106	10067
528.174	9947
528.243	9809
528.312	9138
528.380	9386
528.449	7337
528.518	9992
528.586	6370
528.655	9542
528.723	8057
528.792	8930
528.861	7208
528.929	7680
528.998	8955
529.066	9868
529.135	12276
529.203	11033
529.272	11571
529.340	15718
529.409	16106
529.477	12450
529.545	12718
529.614	15581
529.682	13285
529.751	17515
529.819	19908
529.887	19554
529.956	17151
530.024	17931
530.092	15547
530.161	16758
530.229	17732
530.297	17509
530.365	18445
530.434	18872
530.502	18662
530.570	18383
530.638	15797
530.707	16027
530.775	16250
530.843	15253
530.911	17580
530.979	17072
531.047	18183
531.115	18952
531.183	17854
531.252	17334
531.320	16894
531.388	15044
531.456	18653
531.524	17138
531.592	19110
531.660	22500
531.728	18440
531.796	18661
531.864	18268
531.932	18735
532.000	17750
532.067	19665
532.135	20330
532.203	23392
532.271	21992
532.339	24245
532.407	24216
532.475	23615
532.542	22917
532.610	21755
532.678	22815
532.746	28726
532.814	40687
532.881	27857
532.949	23386
533.017	22845
533.084	22067
533.152	20900
533.220	20095
533.287	20406
533.355	21319
533.423	22218
533.490	21672
533.558	22404
533.625	21706
533.693	20731
533.761	21338
533.828	20722
533.896	19921
533.963	23904
534.031	23271
534.098	29292
534.166	30393
534.233	28560
534.300	31145
534.368	31379
534.435	29715
534.503	31889
534.570	34457
534.637	37711
534.705	41275
534.772	48832
534.840	83148
534.907	340660
534.974	475125
535.041	77972
535.109	36457
535.176	29866
535.243	28145
535.310	27769
535.378	27027
535.445	26851
535.512	28054
535.579	26080
535.646	24868
535.714	25454
535.781	27738
535.848	28447
535.915	26860
535.982	26193
536.049	25957
536.116	26793
536.183	23985
536.250	23362
536.317	23506
536.384	26046
536.451	26976
536.518	27987
536.585	25980
536.652	28434
536.719	27512
536.786	25291
536.853	25868
536.920	27705
536.987	27186
537.053	25422
537.120	33328
537.187	34991
537.254	28871
537.321	28242
537.388	28885
537.454	27604
537.521	27529
537.588	28194
537.654	27345
537.721	28798
537.788	30420
537.855	26906
537.921	27809
537.988	28410
538.055	26363
538.121	25095
538.188	23496
538.254	24492
538.321	24675
538.388	27566
538.454	29794
538.521	31309
538.587	29718
538.654	29368
538.720	28762
538.787	28069
538.853	28055
538.920	26440
538.986	24554
539.053	23936
539.119	25418
539.185	26038
539.252	27501
539.318	28494
539.385	31434
539.451	28585
539.517	29362
539.583	28635
539.650	28787
539.716	32028
539.782	26725
539.849	25247
539.915	27419
539.981	26917
540.047	25495
540.114	26537
540.180	27584
540.246	28938
540.312	30474
540.378	29679
540.444	29100
540.510	30928
540.576	33841
540.643	29865
540.709	26250
540.775	27417
540.841	26719
540.907	26377
540.973	27737
541.039	27014
541.105	26829
541.171	28319
541.237	30305
541.303	29951
541.369	31560
541.435	30135
541.500	28499
541.566	25417
541.632	25960
541.698	26586
541.764	29002
541.830	28196
541.896	27403
541.961	28207
542.027	27401
542.093	29566
542.159	30615
542.224	26075
542.290	29739
542.356	27668
542.421	28415
542.487	26116
542.553	25341
542.618	26367
542.684	25492
542.750	28153
542.815	27740
542.881	26829
542.947	32615
543.012	33034
543.078	26600
543.143	25856
543.209	27078
543.274	26333
543.340	27416
543.405	28058
543.471	30638
543.536	28706
543.602	28575
543.667	26703
543.732	27922
543.798	27806
543.863	29667
543.928	28598
543.994	28938
544.059	30013
544.124	30263
544.190	29735
544.255	30920
544.320	30224
544.386	30563
544.451	32171
544.516	32266
544.581	30700
544.646	34711
544.712	39462
544.777	33295
544.842	32901
544.907	31588
544.972	33825
545.037	34254
545.102	35140
545.168	35107
545.233	35382
545.298	37285
545.363	34361
545.428	38609
545.493	39933
545.558	40960
545.623	39258
545.688	38214
545.753	40042
545.818	41237
545.883	45226
545.947	44271
546.012	45788
546.077	46915
546.142	51155
546.207	53376
546.272	55663
546.337	55055
546.401	57483
546.466	60168
546.531	62257
546.596	68161
546.661	70967
546.725	74082
546.790	78291
546.855	86368
546.919	93635
546.984	106016
547.049	112074
547.113	127772
547.178	143499
547.243	161080
547.307	185883
547.372	207714
547.436	210140
547.501	219932
547.565	236679
547.630	221063
547.695	209183
547.759	210971
547.823	211488
547.888	216034
547.952	224537
548.017	230183
548.081	240760
548.146	233790
548.210	238001
548.274	259314
548.339	258438
548.403	231964
548.468	217811
548.532	214936
548.596	220006
548.660	221555
548.725	241056
548.789	258706
548.853	254451
548.917	245880
548.982	239074
549.046	215782
549.110	195896
549.174	197841
549.238	230646
549.303	256870
549.367	264835
549.431	251772
549.495	235001
549.559	231708
549.623	266735
549.687	297251
549.751	285973
549.815	338386
549.879	348442
549.943	333445
550.007	348125
550.071	350589
550.135	317001
550.199	295505
550.263	294869
550.327	276517
550.391	279327
550.455	312450
550.519	328541
550.582	344476
550.646	389089
550.710	396155
550.774	390877
550.838	393713
550.901	401712
550.965	421596
551.029	436774
551.093	461473
551.156	494646
551.220	532280
551.284	580780
551.347	486791
551.411	420334
551.475	401174
551.538	417991
551.602	398439
551.666	373519
551.729	354043
551.793	344791
551.856	338224
551.920	333903
551.983	333430
552.047	327512
552.110	331247
552.174	334468
552.237	345393
552.301	321844
552.364	306644
552.428	298080
552.491	305668
552.554	312087
552.618	309367
552.681	315830
552.745	304076
552.808	307505
552.871	325829
552.934	322021
552.998	311488
553.061	305848
553.124	294573
553.187	291087
553.251	301480
553.314	298699
553.377	300768
553.440	320745
553.503	326565
553.567	327405
553.630	325000
553.693	324882
553.756	325491
553.819	321282
553.882	307571
553.945	307866
554.008	310210
554.071	312761
554.134	314884
554.197	299809
554.260	289864
554.323	294238
554.386	298462
554.449	311242
554.512	311157
554.575	296498
554.638	293155
554.701	293455
554.764	292312
554.827	281536
554.889	272057
554.952	254594
555.015	249172
555.078	255946
555.141	258023
555.203	251889
555.266	250960
555.329	251422
555.391	239865
555.454	237117
555.517	231343
555.580	221808
555.642	214774
555.705	212215
555.768	209544
555.830	205423
555.893	194966
555.955	188393
556.018	185116
556.080	185607
556.143	191157
556.206	190642
556.268	185221
556.330	181593
556.393	175037
556.455	172940
556.518	168648
556.580	162936
556.643	157217
556.705	154644
556.767	151807
556.830	148216
556.892	146030
556.955	143316
557.017	139704
557.079	138827
557.142	135445
557.204	133228
557.266	131990
557.328	125108
557.391	116374
557.453	115052
557.515	112889
557.577	114233
557.639	116299
557.701	114949
557.764	113222
557.826	113366
557.888	115606
557.950	117956
558.012	124820
558.074	147719
558.136	264942
558.198	595750
558.260	271639
558.322	121856
558.384	117635
558.446	120066
558.508	126016
558.570	136797
558.632	150694
558.694	181070
558.756	275291
558.818	651425
558.880	1316832
558.942	668118
559.003	630532
559.065	356269
559.127	146366
559.189	134584
559.251	142330
559.312	186325
559.374	374681
559.436	998638
559.498	611731
559.559	169607
559.621	132485
559.683	143945
559.744	206938
559.806	552148
559.868	842873
559.929	245351
559.991	145533
560.052	209651
560.114	546953
560.176	395244
560.237	316733
560.299	530050
560.360	153054
560.422	65876
560.483	58171
560.545	54789
560.606	53638
560.667	51074
560.729	49814
560.790	46317
560.852	45495
560.913	45077
560.974	43914
561.036	42743
561.097	44410
561.158	42332
561.220	42641
561.281	40424
561.342	40694
561.403	41041
561.465	39589
561.526	40844
561.587	41029
561.648	37474
561.709	37811
561.771	35726
561.832	35510
561.893	34588
561.954	36207
562.015	34378
562.076	33152
562.137	33636
562.198	33518
562.259	33670
562.320	33574
562.381	33669
562.442	34150
562.503	33901
562.564	31761
562.625	31043
562.686	32149
562.747	32689
562.808	31050
562.869	30735
562.930	30221
562.991	28638
563.051	29344
563.112	28756
563.173	27037
563.234	28878
563.294	27974
563.355	27661
563.416	27935
563.477	28404
563.537	28463
563.598	27239
563.659	27631
563.720	27658
563.780	26391
563.841	27314
563.901	27183
563.962	27690
564.023	26655
564.083	26867
564.144	26010
564.204	26143
564.265	25769
564.325	26671
564.386	25824
564.446	25320
564.507	25086
564.567	24115
564.628	24031
564.688	24451
564.749	24512
564.809	25191
564.869	24857
564.930	24361
564.990	25498
565.050	24298
565.111	25343
565.171	25202
565.231	24786
565.292	25376
565.352	23900
565.412	24137
565.472	24789
565.532	23563
565.593	25475
565.653	24196
565.713	23622
565.773	24760
565.833	25324
565.893	26986
565.953	24178
566.013	22692
566.074	22464
566.134	22703
566.194	21939
566.254	23086
566.314	22808
566.374	23164
566.434	22199
566.494	22349
566.554	22415
566.614	22248
566.673	24619
566.733	24062
566.793	23448
566.853	24182
566.913	23971
566.973	24394
567.033	24198
567.092	23576
567.152	24091
567.212	23687
567.272	24405
567.331	24763
567.391	23599
567.451	25686
567.511	26202
567.570	24099
567.630	25620
567.690	24006
567.749	22796
567.809	24876
567.868	23496
567.928	23036
567.988	23519
568.047	23812
568.107	24097
568.166	24330
568.226	23664
568.285	24415
568.345	24269
568.404	25116
568.464	23888
568.523	24062
568.582	23578
568.642	24727
568.701	22639
568.761	21844
568.820	23170
568.879	22635
568.939	22755
568.998	23939
569.057	23022
569.116	23595
569.176	23279
569.235	23273
569.294	23464
569.353	23151
569.413	22366
569.472	21472
569.531	21441
569.590	21863
569.649	21872
569.708	22071
569.767	22464
569.827	24748
569.886	23055
569.945	21870
570.004	23770
570.063	22157
570.122	22902
570.181	24051
570.240	24276
570.299	25538
570.358	24988
570.417	24929
570.475	23043
570.534	24584
570.593	24868
570.652	24177
570.711	25640
570.770	23891
570.829	23267
570.887	23624
570.946	23613
571.005	24319
571.064	23772
571.122	25637
571.181	22359
571.240	23221
571.299	22091
571.357	22567
571.416	22769
571.475	23686
571.533	23434
571.592	25023
571.650	24426
571.709	24492
571.768	26228
571.826	28335
571.885	26634
571.943	24439
572.002	22655
572.060	23362
572.119	22453
572.177	23227
572.236	23445
572.294	23567
572.352	23859
572.411	25089
572.469	23717
572.528	22804
572.586	22597
572.644	23507
572.703	24293
572.761	23030
572.819	22066
572.877	19775
572.936	19353
572.994	21127
573.052	21204
573.110	21186
573.169	22811
573.227	22980
573.285	21767
573.343	21445
573.401	21817
573.459	20911
573.517	21228
573.576	21453
573.634	21327
573.692	22497
573.750	21893
573.808	20582
573.866	20367
573.924	19871
573.982	21526
574.040	21128
574.098	20468
574.155	20109
574.213	19908
574.271	20124
574.329	22066
574.387	20246
574.445	18363
574.503	19179
574.560	18314
574.618	18147
574.676	19330
574.734	19303
574.792	17970
574.849	18083
574.907	16921
574.965	16794
575.022	16145
575.080	16166
575.138	15253
575.195	16563
575.253	16063
575.311	16078
575.368	16252
575.426	15834
575.483	16407
575.541	17827
575.598	16296
575.656	15855
575.713	16348
575.771	16710
575.828	16589
575.886	15681
575.943	15588
576.001	14946
576.058	14212
576.115	15074
576.173	15747
576.230	15819
576.287	16001
576.345	16362
576.402	15014
576.459	16599
576.517	15674
576.574	15436
576.631	14886
576.688	15194
576.746	13890
576.803	14116
576.860	13527
576.917	15165
576.974	15486
577.031	14907
577.089	14175
577.146	14454
577.203	14101
577.260	14218
577.317	13738
577.374	14037
577.431	13836
577.488	13808
577.545	13838
577.602	14600
577.659	13970
577.716	14983
577.773	14513
577.830	14425
577.886	13770
577.943	13837
578.000	13615
578.057	13685
578.114	14268
578.171	13760
578.227	12289
578.284	12869
578.341	13467
578.398	13709
578.454	14329
578.511	14384
578.568	14497
578.625	14523
578.681	14263
578.738	13657
578.794	13484
578.851	14677
578.908	14321
578.964	14248
579.021	14574
579.077	14208
579.134	14520
579.190	14101
579.247	14597
579.303	14170
579.360	13346
579.416	13924
579.473	14451
579.529	14832
579.586	13440
579.642	14635
579.698	13695
579.755	14710
579.811	14135
579.867	14041
579.924	14640
579.980	14489
580.036	14714
580.093	15391
580.149	14895
580.205	15245
580.261	15530
580.317	15230
580.374	16059
580.430	16130
580.486	15630
580.542	14859
580.598	15818
580.619	15917
580.654	16108
580.692	16295
580.710	16415
580.765	17085
580.767	17121
580.823	16697
580.838	16609
580.879	16438
580.911	16474
580.935	16523
580.984	15938
580.991	15875
581.047	17105
581.057	16748
581.103	15216
581.130	15516
581.159	15854
581.203	16016
581.215	16075
581.270	15911
581.276	15856
581.326	15383
581.349	15260
581.382	15134
581.422	15918
581.438	16260
581.494	16414
581.494	16401
581.550	15983
581.567	15744
581.606	15273
581.640	15401
581.661	15480
581.713	16806
581.717	16924
581.773	16445
581.786	16463
581.829	16511
581.859	16621
581.885	16765
581.932	16205
581.940	16104
581.996	16843
582.004	16897
582.052	17248
582.077	17021
582.107	16721
582.150	16473
582.163	16411
582.219	15837
582.223	15847
582.274	16043
582.296	16270
582.330	16702
582.368	16269
582.386	16109
582.441	17039
582.441	17043
582.497	15706
582.514	16013
582.552	16916
582.587	17047
582.608	17121
582.659	16917
582.663	16888
582.719	17609
582.732	17420
582.774	16954
582.805	17183
582.830	17318
582.877	17667
582.885	17759
582.941	18884
582.950	18857
582.996	18606
583.023	19211
583.052	20014
583.095	19889
583.107	19768
583.162	18635
583.168	18645
583.218	18857
583.240	18447
583.273	17717
583.313	17195
583.328	17162
583.384	17104
583.385	17159
583.439	18154
583.458	17662
583.494	16918
583.531	17161
583.549	17309
583.603	16999
583.605	16990
583.660	17088
583.676	17187
583.715	17330
583.748	17504
583.770	17718
583.820	18293
583.825	18305
583.881	17132
583.893	17066
583.936	17201
583.965	17118
583.991	17032
584.038	17596
584.046	17649
584.101	16920
584.110	17062
584.156	18017
584.183	18252
584.211	18455
584.255	18518
584.266	18556
584.321	19037
584.328	18959
584.376	18276
584.400	18512
584.431	18927
584.472	19656
584.486	19860
584.541	20608
584.545	20603
584.596	20636
584.617	20746
584.651	20892
584.689	21176
584.706	21240
584.761	21822
584.762	21820
584.816	22160
584.834	22828
584.871	23921
584.906	24195
584.926	24381
584.978	24910
584.980	24954
585.035	26908
585.051	27679
585.090	29713
585.123	31611
585.145	32913
585.195	35308
585.200	35597
585.254	39209
585.267	40542
585.309	45161
585.340	48120
585.364	51214
585.412	60099
585.419	61551
585.473	74417
585.484	78186
585.528	100240
585.556	122824
585.583	163464
585.628	258550
585.637	291948
585.692	575954
585.700	625442
585.747	796293
585.772	698911
585.801	477074
585.845	200960
585.856	160742
585.910	83130
585.917	76162
585.965	58119
585.989	51195
586.019	46067
586.061	41715
586.074	40820
586.128	37863
586.133	37636
586.183	36304
586.205	35898
586.237	35253
586.277	34187
586.292	33869
586.346	32959
586.349	32933
586.401	33250
586.421	33262
586.455	33043
586.493	32697
586.509	32837
586.564	33191
586.565	33205
586.618	35375
586.637	36294
586.672	39828
586.709	45028
586.727	47117
586.781	51567
586.781	51582
586.835	42103
586.853	39646
586.889	36283
586.925	34042
586.944	33545
586.996	33730
586.998	33767
587.052	33484
587.068	33312
587.106	33496
587.140	33920
587.161	33907
587.212	33920
587.215	33982
587.269	34930
587.284	35172
587.323	35732
587.356	36341
587.377	36782
587.427	37241
587.431	37286
587.485	38318
587.499	38271
587.539	38586
587.571	39388
587.593	40201
587.643	41809
587.648	41986
587.702	43483
587.715	43680
587.755	43672
587.786	43468
587.810	43480
587.858	44391
587.864	44456
587.917	43864
587.930	43664
587.971	43849
588.001	44087
588.025	44136
588.073	43987
588.079	43943
588.133	43521
588.145	43358
588.187	43674
588.217	43970
588.241	44568
588.288	45521
588.295	45667
588.348	46371
588.360	46530
588.402	46360
588.431	46101
588.456	46317
588.503	47072
588.510	47439
588.564	49627
588.575	50181
588.617	51706
588.646	52746
588.671	53742
588.718	55410
588.725	55893
588.778	61022
588.789	62252
588.832	76322
588.861	88522
588.886	117142
588.932	182825
588.939	190196
588.993	252796
589.004	250162
589.047	139500
589.075	80257
589.100	66381
589.147	52802
589.154	52612
589.207	52233
589.218	52078
589.261	52022
589.290	52475
589.314	53091
589.361	54318
589.368	55155
589.421	63339
589.433	65402
589.475	91050
589.504	112203
589.528	141679
589.576	210534
589.582	206151
589.635	118540
589.647	101589
589.689	69079
589.718	53118
589.742	52367
589.790	51088
589.795	51056
589.849	50193
589.861	49953
589.902	49577
589.932	49312
589.955	49676
590.004	50049
590.009	50088
590.062	49914
590.075	49788
590.115	50267
590.146	50705
590.168	50623
590.218	49750
590.222	49872
590.275	51037
590.289	51264
590.328	52448
590.360	53280
590.381	53481
590.431	53331
590.435	53479
590.488	54988
590.503	55365
590.541	56009
590.574	56400
590.594	56965
590.645	57839
590.647	58008
590.700	60670
590.716	61320
590.753	62838
590.787	64142
590.806	64699
590.859	65693
590.859	65806
590.912	66526
590.930	66769
590.965	67636
591.001	68397
591.018	68277
591.071	67188
591.072	67077
591.124	65941
591.143	65466
591.177	66614
591.214	67796
591.230	67955
591.283	68161
591.285	68054
591.336	68073
591.356	68038
591.389	68142
591.427	68001
591.442	68037
591.495	67693
591.498	67563
591.547	68162
591.569	68370
591.600	68980
591.640	69357
591.653	69676
591.706	70617
591.711	70608
591.759	72874
591.782	73894
591.811	75230
591.853	76823
591.864	77141
591.917	77983
591.924	77982
591.969	79036
591.995	79390
592.022	79528
592.066	79536
592.075	80077
592.127	82459
592.137	82772
592.180	83509
592.208	83716
592.233	84752
592.279	86360
592.285	86759
592.338	88820
592.350	89136
592.390	88573
592.421	87881
592.443	89289
592.491	91874
592.495	92199
592.548	94337
592.562	94748
592.600	94247
592.633	93497
592.653	93677
592.704	93188
592.705	93763
592.775	95830
592.846	98312
592.916	100128
592.987	99709
593.058	100919
593.128	103115
593.199	104487
593.270	103706
593.341	104868
593.411	109172
593.482	112495
593.553	116476
593.623	117765
593.694	121410
593.764	123567
593.835	123319
593.906	122571
593.976	127036
594.047	128982
594.117	136668
594.188	138734
594.258	138129
594.329	138802
594.399	145513
594.470	148882
594.540	152795
594.611	154422
594.681	154699
594.751	152969
594.822	160423
594.892	167130
594.963	171363
595.033	175372
595.103	182412
595.174	182706
595.244	186289
595.314	191326
595.384	196622
595.455	202352
595.525	209597
595.595	216112
595.665	217725
595.736	212355
595.806	213333
595.876	217693
595.946	220871
596.016	230056
596.087	236351
596.157	236734
596.227	239227
596.297	250719
596.367	268443
596.437	282326
596.507	279588
596.577	280436
596.647	288022
596.717	302312
596.787	310157
596.857	307505
596.927	311332
596.997	311986
597.067	314363
597.137	318999
597.207	320609
597.277	322849
597.347	308779
597.417	302373
597.487	300384
597.557	308084
597.626	317684
597.696	319522
597.766	318795
597.836	297289
597.906	285075
597.975	280158
598.045	282555
598.115	296618
598.185	318378
598.254	354423
598.324	381031
598.394	388882
598.464	376890
598.533	370350
598.603	348008
598.672	332672
598.742	343749
598.812	345593
598.881	355384
598.951	350293
599.020	359725
599.090	370518
599.159	377353
599.229	360461
599.299	355675
599.368	366202
599.437	361023
599.507	332766
599.576	320422
599.646	315910
599.715	310824
599.785	307865
599.854	300831
599.924	296297
599.993	294359
600.062	303760
600.132	312794
600.201	326395
600.270	378347
600.340	398942
600.409	388080
600.478	383933
600.547	396782
600.617	358845
600.686	289316
600.755	262913
600.824	248861
600.894	244080
600.963	246642
601.032	241234
601.101	235558
601.170	223078
601.239	219778
601.308	218100
601.378	219297
601.447	221274
601.516	222510
601.585	225864
601.654	228559
601.723	227855
601.792	236201
601.861	244879
601.930	251393
601.999	254469
602.068	254858
602.137	258482
602.206	262419
602.275	266838
602.343	268140
602.412	271171
602.481	273407
602.550	276464
602.619	284018
602.688	284475
602.756	287402
602.825	289187
602.894	298919
602.963	303657
603.032	307652
603.100	309568
603.169	308733
603.238	311514
603.307	312083
603.375	316011
603.444	319804
603.513	326147
603.581	330771
603.650	338292
603.719	326528
603.787	334379
603.856	342724
603.924	350733
603.993	363491
604.061	377637
604.130	391405
604.198	397071
604.267	404806
604.335	410940
604.404	417908
604.472	421926
604.541	427717
604.609	434090
604.678	437110
604.746	435291
604.815	451207
604.883	455637
604.951	451434
605.020	463227
605.088	467412
605.156	476213
605.225	482497
605.293	480739
605.361	483524
605.429	488858
605.498	496746
605.566	509002
605.634	529890
605.702	547621
605.771	561751
605.839	560616
605.907	552107
605.975	534473
606.043	525633
606.111	524551
606.180	527716
606.248	517659
606.316	510203
606.384	514706
606.452	512081
606.520	519889
606.588	537479
606.656	543310
606.724	530020
606.792	499288
606.860	453297
606.928	418790
606.996	401115
607.064	393509
607.132	406822
607.200	428838
607.267	443325
607.335	453265
607.403	459454
607.471	445435
607.539	430959
607.607	435191
607.674	383903
607.742	383807
607.810	378998
607.878	381307
607.946	388978
608.013	409275
608.081	413523
608.149	418896
608.216	434541
608.284	445462
608.352	446499
608.419	439515
608.487	431179
608.555	426417
608.622	438724
608.690	466094
608.757	510022
608.825	519492
608.893	503350
608.960	477101
609.028	455874
609.095	457476
609.163	456882
609.230	409025
609.298	375263
609.365	399347
609.432	427303
609.500	462894
609.567	525262
609.635	592633
609.702	615148
609.769	581814
609.837	457607
609.904	403539
609.971	411163
610.039	435563
610.106	505483
610.173	741406
610.241	1260279
610.308	859493
610.375	492490
610.442	436714
610.509	417064
610.577	419597
610.644	425873
610.711	439990
610.778	452795
610.845	469970
610.912	497438
610.980	512560
611.047	512813
611.114	505385
611.181	491116
611.248	491617
611.315	518096
611.382	528082
611.449	544083
611.516	549463
611.583	545314
611.650	545362
611.717	551814
611.784	559043
611.851	573870
611.918	593498
611.984	650721
612.051	773396
612.118	1093409
612.185	1712089
612.252	1348170
612.319	785410
612.386	695642
612.452	641970
612.519	614477
612.586	603022
612.653	614296
612.719	635435
612.786	611761
612.853	571565
612.919	562058
612.986	569084
613.053	538662
613.120	511160
613.186	491009
613.253	495470
613.319	498848
613.386	497693
613.453	505340
613.519	506287
613.586	500057
613.652	505021
613.719	498564
613.785	508090
613.852	513659
613.918	510365
613.985	511239
614.051	532075
614.118	525234
614.184	503369
614.250	506413
614.317	519812
614.383	511877
614.449	521320
614.516	514553
614.582	520683
614.648	510071
614.715	505265
614.781	493914
614.847	494805
614.914	493174
614.980	480352
615.046	480118
615.112	496294
615.179	495153
615.245	502118
615.311	492660
615.377	500670
615.443	506923
615.509	510441
615.575	525065
615.642	523867
615.708	531908
615.774	545217
615.840	570760
615.906	585326
615.972	647635
616.038	808207
616.104	1226827
616.170	1832913
616.236	1615765
616.302	950155
616.368	804707
616.434	642239
616.500	596473
616.565	636543
616.631	751747
616.697	656967
616.763	656192
616.829	852552
616.895	1282791
616.961	1197546
617.026	692897
617.092	549063
617.158	521375
617.224	508925
617.289	471521
617.355	451533
617.421	448932
617.487	445862
617.552	423099
617.618	423499
617.684	419470
617.749	424007
617.815	406744
617.880	397015
617.946	395792
618.012	407169
618.077	414652
618.143	395709
618.208	397445
618.274	429478
618.339	427276
618.405	358109
618.470	357673
618.536	353583
618.601	350937
618.667	325553
618.732	309848
618.798	304335
618.863	304565
618.928	302602
618.994	307228
619.059	301502
619.124	305836
619.190	303849
619.255	301285
619.320	302210
619.386	303361
619.451	301740
619.516	290625
619.581	295458
619.647	302052
619.712	304365
619.777	290117
619.842	292205
619.907	297281
619.972	302352
620.038	299580
620.103	289317
620.168	290081
620.233	293895
620.298	296972
620.363	301123
620.428	311767
620.493	316076
620.558	320412
620.623	326520
620.688	324569
620.753	322891
620.818	327576
620.883	328758
620.948	331017
621.013	324060
621.078	318766
621.143	323431
621.207	328589
621.272	320066
621.337	311588
621.402	308480
621.467	306247
621.532	303665
621.596	307003
621.661	295712
621.726	296703
621.791	298217
621.855	295842
621.920	293435
621.985	301703
622.049	303444
622.114	305633
622.179	309956
622.243	318680
622.308	329260
622.373	340180
622.437	329543
622.502	313982
622.566	311379
622.631	313263
622.695	318967
622.760	313069
622.824	315378
622.889	316049
622.953	316820
623.018	335389
623.082	340002
623.147	334418
623.211	327303
623.276	329092
623.340	315021
623.404	305424
623.469	307345
623.533	309548
623.597	300032
623.662	300448
623.726	278122
623.790	262820
623.854	255454
623.919	259686
623.983	264834
624.047	268202
624.111	271166
624.176	275690
624.240	278906
624.304	286624
624.368	277426
624.432	274345
624.496	283752
624.560	297482
624.625	303075
624.689	298762
624.753	314638
624.817	298791
624.881	291264
624.945	261563
625.009	253437
625.073	260479
625.137	269293
625.201	279544
625.265	280801
625.329	269886
625.393	270769
625.456	276190
625.520	285283
625.584	288958
625.648	294877
625.712	303264
625.776	298377
625.839	282191
625.903	241921
625.967	223454
626.031	239187
626.095	285250
626.158	265141
626.222	208726
626.286	195073
626.349	185055
626.413	174053
626.477	171561
626.540	176091
626.604	173819
626.668	171101
626.731	169235
626.795	171462
626.858	171789
626.922	168430
626.986	166403
627.049	167622
627.113	176051
627.176	170140
627.240	163802
627.303	164834
627.366	164549
627.430	167571
627.493	164877
627.557	161036
627.620	164213
627.684	172038
627.747	172406
627.810	158654
627.874	142248
627.937	136729
628.000	143862
628.064	137241
628.127	123244
628.190	121612
628.253	118662
628.317	113638
628.380	108057
628.443	105450
628.506	104191
628.569	100550
628.632	96606
628.696	94838
628.759	94263
628.822	90100
628.885	90313
628.948	87028
629.011	86394
629.074	83364
629.137	81378
629.200	78778
629.263	79974
629.326	76666
629.389	78902
629.452	77360
629.515	76153
629.578	73721
629.641	76113
629.704	77535
629.767	75407
629.830	73591
629.892	70993
629.955	71284
630.018	74928
630.081	72238
630.144	72795
630.207	70945
630.269	72577
630.332	67986
630.395	69454
630.458	66510
630.520	63296
630.583	65191
630.646	67706
630.708	68149
630.771	69798
630.834	73681
630.896	70943
630.959	71476
631.021	66969
631.084	70137
631.146	69720
631.209	69635
631.272	68814
631.334	70522
631.397	71615
631.459	70710
631.522	73283
631.584	74064
631.646	78517
631.709	79432
631.771	79425
631.834	75846
631.896	74908
631.958	70256
632.021	70864
632.083	66420
632.145	67797
632.208	66152
632.270	66470
632.332	66321
632.395	65272
632.457	66981
632.519	64546
632.581	65491
632.643	63841
632.706	64553
632.768	63192
632.830	65901
632.892	66883
632.954	67268
633.016	68879
633.078	65456
633.141	67733
633.203	65748
633.265	66236
633.327	64958
633.389	66000
633.451	65261
633.513	64867
633.575	67825
633.637	66272
633.698	67859
633.760	70470
633.822	73474
633.884	73987
633.946	74008
634.008	76648
634.070	75244
634.132	79549
634.193	84551
634.255	91606
634.317	90815
634.379	90030
634.441	82156
634.502	76731
634.564	71840
634.626	67268
634.687	64446
634.749	63092
634.811	62644
634.873	61409
634.934	63498
634.996	63107
635.057	62695
635.119	64279
635.181	64027
635.242	64840
635.304	63567
635.365	65760
635.427	62796
635.488	63285
635.550	62362
635.611	62868
635.673	60745
635.734	67303
635.796	69413
635.857	73710
635.918	77555
635.980	84512
636.041	87180
636.102	91094
636.164	91019
636.225	87973
636.286	77527
636.348	72191
636.409	65989
636.470	64109
636.531	62967
636.593	60157
636.654	59365
636.715	57399
636.776	56705
636.838	55546
636.899	55259
636.960	54668
637.021	54731
637.082	53207
637.143	51934
637.204	50785
637.265	50621
637.326	53975
637.387	54629
637.448	51739
637.509	53016
637.570	53553
637.631	51576
637.692	49588
637.753	47549
637.814	49888
637.875	47791
637.936	49502
637.997	48459
638.058	48684
638.119	48845
638.179	47877
638.240	49049
638.301	49285
638.362	46052
638.423	46876
638.483	47467
638.544	44506
638.605	45917
638.666	45913
638.726	45871
638.787	46144
638.848	45414
638.908	45282
638.969	43862
639.030	42628
639.090	41851
639.151	42968
639.211	43928
639.272	45053
639.332	43600
639.393	44673
639.453	46772
639.514	47700
639.574	41828
639.635	40748
639.695	40938
639.756	39419
639.816	39079
639.877	39198
639.937	40808
639.997	40716
640.058	39904
640.118	38993
640.178	40200
640.239	39513
640.299	38777
640.359	39734
640.420	42734
640.480	46546
640.540	52545
640.600	50636
640.661	46449
640.721	45865
640.781	48868
640.841	46918
640.901	41534
640.961	40178
641.021	42039
641.082	43155
641.142	40176
641.202	40504
641.262	36826
641.322	38537
641.382	35835
641.442	39085
641.502	36843
641.562	37195
641.622	36751
641.682	41452
641.742	44098
641.802	41043
641.861	38304
641.921	36550
641.981	36200
642.041	34770
642.101	34691
642.161	33393
642.221	34416
642.280	34038
642.340	35286
642.400	35261
642.460	35279
642.519	36141
642.579	35338
642.639	37473
642.698	34084
642.758	38701
642.818	37421
642.877	36264
642.937	36265
642.997	36817
643.056	36786
643.116	35332
643.175	37385
643.235	38160
643.294	38692
643.354	41630
643.414	42712
643.473	48791
643.532	56229
643.592	69055
643.651	95892
643.711	149883
643.770	264040
643.830	557781
643.889	909424
643.948	340144
644.008	102564
644.067	64635
644.126	51157
644.186	45480
644.245	41101
644.304	37616
644.363	39269
644.423	35411
644.482	35817
644.541	39214
644.600	38883
644.659	48341
644.719	54543
644.778	76955
644.837	118934
644.896	230977
644.955	465362
645.014	170962
645.073	56438
645.132	44139
645.191	41050
645.250	39854
645.309	41896
645.368	46257
645.427	59082
645.486	97086
645.545	159331
645.604	54443
645.663	37562
645.722	37014
645.781	38442
645.840	43041
645.898	50197
645.957	64720
646.016	88834
646.075	141660
646.134	252064
646.192	572184
646.251	728314
646.310	192638
646.369	75968
646.427	63013
646.486	48335
646.545	39892
646.603	36448
646.662	34925
646.721	33573
646.779	34918
646.838	34329
646.896	41647
646.955	51833
647.014	77095
647.072	140294
647.131	342875
647.189	170300
647.248	40872
647.306	32926
647.365	30569
647.423	26111
647.481	28590
647.540	25751
647.598	26460
647.657	26183
647.715	27385
647.773	25356
647.832	26154
647.890	22004
647.948	22300
648.007	23788
648.065	22258
648.123	22161
648.181	23116
648.240	21986
648.298	20354
648.356	20322
648.414	21452
648.472	21022
648.531	21246
648.589	20288
648.647	19997
648.705	20040
648.763	20880
648.821	20741
648.879	21391
648.937	24290
648.995	28178
649.053	33077
649.111	46857
649.169	70236
649.227	115580
649.285	232155
649.343	548910
649.401	284482
649.459	58694
649.516	35111
649.574	27611
649.632	29479
649.690	31618
649.748	40357
649.806	55044
649.863	99243
649.921	258567
649.979	169423
650.037	32314
650.094	20505
650.152	19667
650.210	17491
650.268	20101
650.325	19923
650.383	21043
650.440	14975
650.498	16393
650.556	16683
650.613	15092
650.671	15935
650.728	15821
650.786	16340
650.843	23317
650.901	17132
650.958	14457
651.016	13793
651.073	14023
651.131	13340
651.188	12968
651.246	12718
651.303	12233
651.360	13105
651.418	12908
651.475	12388
651.532	11782
651.590	13325
651.647	12132
651.704	12307
651.762	12614
651.819	12263
651.876	11849
651.933	11023
651.990	12578
652.048	10611
652.105	11892
652.162	11400
652.219	10893
652.276	11947
652.333	11971
652.390	10324
652.448	10903
652.505	10082
652.562	11477
652.619	10716
652.676	10866
652.733	12864
652.790	10995
652.847	9538
652.904	11044
652.961	9282
653.017	10503
653.074	10560
653.131	10796
653.188	9114
653.245	9799
653.302	10263
653.359	10993
653.415	10059
653.472	10102
653.529	10400
653.586	9317
653.642	9212
653.699	10782
653.756	9076
653.813	9821
653.869	11120
653.926	10570
653.983	9058
654.039	10943
654.096	9729
654.152	10604
654.209	8420
654.266	10149
654.322	8663
654.379	9718
654.435	9440
654.492	8929
654.548	9372
654.605	9011
654.661	10281
654.717	10387
654.774	9988
654.830	9731
654.887	9515
654.943	9844
655.000	11140
655.056	10117
655.112	10059
655.168	8166
655.225	10114
655.281	9907
655.337	9532
655.394	8806
655.450	8848
655.506	8960
655.562	9452
655.618	9528
655.675	8466
655.731	8862
655.787	7901
655.843	9209
655.899	8095
655.955	9245
656.011	9120
656.067	8447
656.123	8611
656.179	8568
656.235	10375
656.291	8696
656.347	10170
656.403	9206
656.459	8286
656.515	8882
656.571	8291
656.627	8872
656.683	8336
656.739	8632
656.795	8677
656.850	9268
656.906	9991
656.962	10602
657.018	10944
657.074	13009
657.129	17210
657.185	27474
657.241	61750
657.297	34744
657.352	11217
657.408	9220
657.464	9327
657.519	8159
657.575	6927
657.630	8001
657.686	7877
657.742	7654
657.797	8016
657.853	8282
657.908	8773
657.964	7481
658.019	7630
658.075	7852
658.130	8262
658.186	6655
658.241	8283
658.297	7084
658.352	7823
658.407	8004
658.463	6764
658.518	8140
658.573	7370
658.629	7128
658.684	7300
658.739	8770
658.795	7066
658.850	7264
658.905	6705
658.960	7475
659.016	6716
659.071	6801
659.126	6626
659.181	6997
659.236	7529
659.291	7839
659.346	6076
659.401	7543
659.457	6796
659.512	6974
659.567	8691
659.622	7479
659.677	6689
659.732	6545
659.787	6531
659.842	6456
659.897	6901
659.952	7292
660.007	7217
660.061	7024
660.116	6128
660.171	6225
660.226	6301
660.281	7578
660.336	6744
660.391	6869
660.445	5683
660.500	6261
660.555	7132
660.610	6828
660.664	6664
660.719	5728
660.774	6573
660.828	6719
660.883	6152
660.938	7092
660.992	5187
661.047	6919
661.101	5963
661.156	6741
661.211	5306
661.265	6181
661.320	5989
661.374	6640
661.429	6112
661.483	6734
661.538	5892
661.592	6596
661.647	7164
661.701	9201
661.755	6380
661.810	7081
661.864	6298
661.919	5668
661.973	6514
662.027	5795
662.081	5891
662.136	6417
662.190	5509
662.244	6497
662.299	6252
662.353	6388
662.407	5578
662.461	6224
662.515	6225
662.569	5326
662.624	6216
662.678	6253
662.732	5891
662.786	5906
662.840	5833
662.894	5965
662.948	5865
663.002	6463
663.056	5978
663.110	5330
663.164	6564
663.218	5983
663.272	6218
663.326	6043
663.380	5529
663.434	6668
663.488	5456
663.542	5923
663.595	6090
663.649	6460
663.703	6226
663.757	6208
663.811	5279
663.864	5944
663.918	5860
663.972	5636
664.026	5551
664.079	5768
664.133	6912
664.187	6970
664.240	6272
664.294	6235
664.348	6124
664.401	6221
664.455	4959
664.508	5753
664.562	6505
664.615	5586
664.669	4886
664.722	5976
664.776	4987
664.829	6104
664.883	5858
664.936	5766
664.990	5686
665.043	6058
665.097	6071
665.150	7369
665.203	5706
665.257	6074
665.310	6237
665.363	6639
665.417	6547
665.470	5939
665.523	6517
665.576	6317
665.630	5629
665.683	7261
665.736	6271
665.789	5971
665.842	5530
665.895	5859
665.949	6846
666.002	7352
666.055	6829
666.108	7257
666.161	7395
666.214	6778
666.267	6754
666.320	7301
666.373	6945
666.426	7769
666.479	6697
666.532	7413
666.585	6502
666.638	8204
666.691	6547
666.744	6964
666.796	6019
666.849	6584
666.902	6711
666.955	7260
667.008	6298
667.060	6268
667.113	7450
667.166	7060
667.219	8149
667.271	8065
667.324	7530
667.377	6983
667.430	6998
667.482	7586
667.535	7096
667.587	7513
667.640	7495
667.693	7688
667.745	7414
667.798	7343
667.850	7031
667.903	7334
667.955	8072
668.008	7789
668.060	6386
668.113	7219
668.165	7547
668.218	6945
668.270	7479
668.322	6974
668.375	6746
668.427	7051
668.479	6443
668.532	7756
668.584	7016
668.636	6440
668.689	6254
668.741	6095
668.793	6620
668.845	6504
668.898	7038
668.950	6582
669.002	6476
669.054	5942
669.106	6070
669.158	7028
669.211	6947
669.263	6267
669.315	6299
669.367	6621
669.419	6027
669.471	7337
669.523	6580
669.575	7438
669.627	6128
669.679	6832
669.731	6772
669.783	5957
669.835	7027
669.886	5465
669.938	6461
669.990	6696
670.042	5354
670.094	6642
670.146	6463
670.197	6414
670.249	6805
670.301	6018
670.353	6836
670.404	7773
670.456	6850
670.508	9462
670.560	12297
670.611	15894
670.663	23118
670.715	49245
670.766	74250
670.818	25462
670.869	9113
670.921	8139
670.972	8052
671.024	6695
671.075	7019
671.127	6625
671.178	7842
671.230	8931
671.281	8746
671.333	9770
671.384	11396
671.436	15245
671.487	20235
671.538	27960
671.590	43555
671.641	70818
671.692	124441
671.744	227400
671.795	159303
671.846	57898
671.897	28313
671.949	19338
672.000	14177
672.051	11245
672.102	9509
672.153	8230
672.204	7235
672.256	8639
672.307	7018
672.358	6960
672.409	5978
672.460	6784
672.511	5244
672.562	5487
672.613	4878
672.664	4564
672.715	6503
672.766	5843
672.817	4220
672.868	4317
672.919	4734
672.970	4595
673.021	4766
673.071	4259
673.122	4632
673.173	4548
673.224	4500
673.275	5345
673.326	4151
673.376	4902
673.427	4673
673.478	5107
673.528	4772
673.579	4846
673.630	4613
673.680	5347
673.731	3959
673.782	4788
673.832	4189
673.883	5029
673.934	4485
673.984	4482
674.035	4718
674.085	4545
674.136	4880
674.186	5313
674.237	4294
674.287	5150
674.338	4242
674.388	5595
674.438	4888
674.489	4852
674.539	5821
674.589	5778
674.640	4661
674.690	5255
674.740	5069
674.791	5097
674.841	5772
674.891	3997
674.942	3899
674.992	4780
675.042	4472
675.092	4141
675.142	3244
675.193	3750
675.243	4141
675.293	4241
675.343	4422
675.393	4474
675.443	4678
675.493	4355
675.543	3465
675.593	4300
675.643	4607
675.693	3722
675.743	4600
675.793	3658
675.843	3266
675.893	3250
675.943	2850
675.993	3186
676.043	2859
676.093	4554
676.142	3018
676.192	3812
676.242	3337
676.292	3736
676.341	3489
676.391	3989
676.441	3211
676.491	3987
676.540	2790
676.590	3617
676.640	2518
676.689	3454
676.739	2371
676.789	4085
676.838	2949
676.888	3291
676.937	2651
676.987	3772
677.037	3551
677.086	3298
677.136	3806
677.185	3258
677.235	3617
677.284	3033
677.333	3178
677.383	3044
677.432	2370
677.482	3114
677.531	3052
677.580	3292
677.630	2728
677.679	2854
677.728	2540
677.778	3664
677.827	2715
677.876	2925
677.925	2826
677.975	3372
678.024	3215
678.073	3953
678.122	3117
678.171	3279
678.220	3251
678.269	4973
678.319	4912
678.368	5135
678.417	4431
678.466	4041
678.515	3342
678.564	2536
678.613	2309
678.662	2702
678.711	3533
678.760	2456
678.809	2489
678.857	4020
678.906	3626
678.955	3181
679.004	2949
679.053	3441
679.102	3339
679.151	3387
679.199	1916
679.248	2838
679.297	2681
679.346	2868
679.394	1972
679.443	2896
679.492	3269
679.540	2607
679.589	2588
679.638	2827
679.686	2765
679.735	3476
679.784	4290
679.832	4835
679.881	4170
679.929	2607
679.978	2625
680.026	2926
680.075	3260
680.123	2381
680.172	1891
680.220	2420
680.268	2800
680.317	2047
680.365	2039
680.414	2552
680.462	2231
680.510	3809
680.559	2440
680.607	2313
680.655	2535
680.703	2206
680.752	1937
680.800	2162
680.848	1682
680.896	2486
680.945	1943
680.993	1869
681.041	2231
681.089	2304
681.137	2040
681.185	1996
681.233	2150
681.258	2346
681.281	2510
681.329	1932
681.377	2046
681.380	2086
681.425	2454
681.473	3422
681.502	3153
681.521	2933
681.569	2932
681.617	2962
681.624	3063
681.665	3513
681.713	3135
681.745	3103
681.761	3060
681.809	2420
681.857	3457
681.867	3346
681.904	2863
681.952	3095
681.989	3507
682.000	3608
682.048	3136
682.096	3197
682.111	3199
682.143	3109
682.191	2508
682.233	3552
682.239	3693
682.286	2832
682.334	3096
682.354	3202
682.382	3254
682.430	4277
682.476	3980
682.477	3957
682.525	3477
682.572	2707
682.598	3534
682.620	4189
682.667	3429
682.715	4379
682.720	4301
682.763	3418
682.810	3637
682.841	3917
682.857	4021
682.905	3359
682.952	3552
682.963	3524
683.000	3347
683.047	3071
683.085	4764
683.095	5199
683.142	3290
683.190	4348
683.206	4142
683.237	3772
683.284	3899
683.328	3537
683.332	3481
683.379	4141
683.426	4445
683.449	4318
683.473	4221
683.521	4759
683.568	4703
683.571	4662
683.615	3803
683.662	4822
683.693	4427
683.709	4170
683.757	4215
683.804	3994
683.814	4039
683.851	4148
683.898	4249
683.936	4204
683.945	4198
683.992	4251
684.039	4494
684.057	4269
684.086	3810
684.133	4374
684.179	3854
684.180	3825
684.227	4199
684.274	4131
684.300	4242
684.321	4357
684.368	4107
684.415	5009
684.422	5029
684.462	4988
684.509	4712
684.543	4319
684.556	4157
684.603	4904
684.649	4744
684.665	4942
684.696	5347
684.743	5321
684.786	5428
684.790	5421
684.837	4510
684.883	5555
684.908	5733
684.930	5962
684.977	5415
685.023	5771
685.029	5773
685.070	5559
685.117	5923
685.150	5128
685.164	4824
685.210	5064
685.257	6170
685.272	6116
685.303	5919
685.350	5990
685.393	5399
685.396	5342
685.443	5105
685.490	5354
685.514	5328
685.536	5313
685.583	4620
685.629	5031
685.636	5014
685.675	4918
685.722	5571
685.757	5510
685.768	5483
685.815	5780
685.861	6095
685.878	6001
685.908	5886
685.954	5495
686.000	6211
686.000	6216
686.047	6186
686.093	6574
686.121	6130
686.139	5826
686.185	7120
686.232	5715
686.242	5951
686.278	6623
686.324	6060
686.363	6276
686.370	6332
686.416	6292
686.463	6303
686.484	6353
686.509	6325
686.555	6236
686.601	6013
686.606	6041
686.647	6520
686.693	6599
686.727	6621
686.739	6542
686.785	6282
686.831	6686
686.848	6585
686.877	6546
686.923	6095
686.969	6906
686.969	6910
687.015	6421
687.061	6613
687.090	7393
687.107	7752
687.153	8065
687.199	7566
687.211	7314
687.245	6525
687.291	7203
687.332	6087
687.336	6026
687.382	6969
687.428	7398
687.453	7805
687.474	7970
687.520	7710
687.565	7753
687.574	7695
687.611	7870
687.657	9177
687.695	9396
687.702	9493
687.748	10530
687.794	12495
687.816	12527
687.839	11707
687.885	9783
687.931	9332
687.937	9146
687.976	8551
688.022	8665
688.058	7999
688.067	7895
688.113	8073
688.158	7647
688.179	7779
688.204	7976
688.249	7981
688.295	8005
688.300	7947
688.340	7642
688.386	8899
688.421	7939
688.431	7683
688.477	7379
688.522	7866
688.542	8235
688.567	8805
688.613	9130
688.658	8957
688.663	8984
688.703	8936
688.749	9193
688.784	8925
688.794	8870
688.839	8828
688.884	8914
688.905	8864
688.930	8803
688.975	9018
689.020	8554
689.026	8563
689.065	8852
689.110	9093
689.146	9191
689.155	9207
689.201	9419
689.246	9814
689.267	9678
689.291	9401
689.336	8658
689.381	8904
689.388	8780
689.426	8411
689.471	8867
689.509	8718
689.516	8723
689.561	9061
689.606	8998
689.630	9187
689.651	9166
689.696	8596
689.741	8554
689.750	8499
689.785	8711
689.830	8928
689.871	8553
689.875	8501
689.920	8857
689.965	8421
689.992	8684
690.010	8931
690.054	8842
690.099	8848
690.112	8861
690.144	8832
690.189	8970
690.233	8377
690.233	8386
690.278	8663
690.323	8882
690.354	9125
690.367	9216
690.412	8809
690.457	8979
690.474	9086
690.501	9226
690.546	9251
690.590	8855
690.595	8777
690.635	8113
690.680	8216
690.716	8101
690.724	8142
690.769	8153
690.813	8494
690.836	8450
690.857	8547
690.902	8767
690.946	9064
690.957	9167
690.991	9250
691.035	8840
691.077	9179
691.080	9225
691.124	9361
691.168	9419
691.198	9453
691.213	9371
691.257	9307
691.301	8920
691.318	8951
691.346	9143
691.390	8532
691.434	8992
691.439	8935
691.478	8879
691.522	9309
691.559	9432
691.567	9473
691.611	10051
691.655	10566
691.680	10526
691.699	10327
691.743	10175
691.787	10323
691.800	10139
691.831	9786
691.875	9860
691.919	9332
691.921	9317
691.964	9623
692.008	9501
692.041	9578
692.052	9628
692.096	9611
692.139	9789
692.162	9916
692.183	10074
692.227	10050
692.271	10241
692.282	10165
692.315	9831
692.359	9643
692.402	9740
692.403	9759
692.447	9316
692.490	9094
692.523	9307
692.534	9415
692.578	9366
692.622	8967
692.643	9058
692.666	9376
692.709	9445
692.753	9696
692.763	9798
692.797	9989
692.840	10278
692.884	9910
692.884	9927
692.928	10135
692.971	9777
693.004	9851
693.015	9881
693.059	9585
693.102	9737
693.124	9561
693.146	9501
693.189	9524
693.233	9460
693.245	9446
693.276	9698
693.320	10173
693.363	10464
693.365	10448
693.407	10167
693.450	10161
693.485	9802
693.493	9740
693.537	9908
693.580	9516
693.605	9523
693.624	9710
693.667	9853
693.710	10149
693.725	10184
693.753	10121
693.797	9952
693.840	10183
693.845	10118
693.883	10001
693.926	10178
693.966	10165
693.970	10152
694.013	9789
694.056	9513
694.086	9467
694.099	9704
694.142	10121
694.185	10524
694.206	10721
694.229	10747
694.272	10779
694.315	10844
694.326	10772
694.358	10616
694.401	10473
694.444	10591
694.446	10565
694.487	10537
694.530	10297
694.566	10283
694.573	10354
694.616	10515
694.659	10826
694.686	11012
694.702	11097
694.745	11208
694.787	11167
694.806	11130
694.830	11209
694.873	11435
694.916	11572
694.926	11596
694.959	11761
695.002	11962
695.044	12025
695.046	12011
695.087	12495
695.130	12733
695.166	12984
695.172	12972
695.215	12427
695.258	12342
695.286	12091
695.301	12382
695.343	13244
695.386	13897
695.406	14306
695.428	14798
695.471	15572
695.514	16483
695.526	16666
695.556	18070
695.599	20220
695.641	21948
695.646	22111
695.684	20816
695.726	19155
695.766	17944
695.769	17963
695.811	17232
695.854	16758
695.886	16258
695.896	16327
695.938	16589
695.981	16747
696.005	16905
696.023	17641
696.065	19042
696.108	20778
696.125	21391
696.150	21528
696.192	21865
696.235	21805
696.245	21774
696.277	21816
696.319	21836
696.361	21826
696.365	21785
696.404	21554
696.446	21066
696.485	20630
696.488	20688
696.530	20899
696.572	20994
696.604	21060
696.614	21063
696.656	20837
696.698	20602
696.724	20413
696.740	20664
696.783	21191
696.825	21873
696.844	22089
696.867	22068
696.909	21895
696.951	21625
696.964	21550
696.992	21728
697.034	21681
697.076	21807
697.083	21778
697.118	22788
697.160	23972
697.202	25027
697.203	24999
697.244	24449
697.286	23884
697.323	23126
697.327	23187
697.369	23406
697.411	23540
697.442	23631
697.453	23754
697.494	23949
697.536	24217
697.562	24320
697.578	24302
697.620	24051
697.661	23858
697.682	23735
697.703	24441
697.744	25568
697.786	26863
697.801	27230
697.828	26874
697.869	26247
697.911	25599
697.921	25381
697.952	25307
697.994	25131
698.035	24964
698.040	24881
698.077	25397
698.118	25919
698.160	26503
698.160	26441
698.201	27140
698.243	27793
698.279	28344
698.284	28431
698.325	28574
698.367	28730
698.399	28761
698.408	28981
698.449	29714
698.491	30385
698.518	30804
698.532	30879
698.573	30841
698.614	30826
698.638	30732
698.656	30827
698.697	30907
698.738	30936
698.757	30898
698.779	31100
698.820	31313
698.862	31529
698.877	31533
698.903	31557
698.944	31473
698.985	31391
698.996	31294
699.026	31267
699.067	31124
699.116	30880
699.235	30786
699.354	30029
699.474	28498
699.593	27299
699.713	29311
699.832	27675
699.951	30462
700.070	29563
700.190	27807
700.309	25813
700.428	25447
700.547	24429
700.667	25249
700.786	24864
700.905	24468
701.024	24998
701.143	24389
701.262	25453
701.381	26139
701.500	26496
701.619	27098
701.738	26741
701.857	26090
701.976	23362
702.095	26092
702.214	26285
702.333	24500
702.452	25901
702.571	27485
702.690	25310
702.809	26436
702.928	24151
703.047	22842
703.165	24232
703.284	23416
703.403	21913
703.522	21895
703.640	21763
703.759	21735
703.878	21775
703.997	21825
704.115	21955
704.234	21321
704.353	22532
704.471	20248
704.590	20082
704.708	20723
704.827	19627
704.946	19590
705.064	19725
705.183	19448
705.301	20380
705.420	19791
705.538	19164
705.656	17330
705.775	16974
705.893	18357
706.012	17599
706.130	17525
706.249	19341
706.367	17030
706.485	17270
706.604	16872
706.722	16794
706.840	21410
706.958	29643
707.077	20541
707.195	17057
707.313	17165
707.431	15649
707.549	16314
707.668	14630
707.786	18097
707.904	15594
708.022	16972
708.140	15638
708.258	15430
708.376	16723
708.494	15101
708.612	15913
708.730	16259
708.848	16088
708.966	16895
709.084	16087
709.202	15715
709.320	13676
709.438	15186
709.556	14677
709.674	12977
709.791	13789
709.909	13370
710.027	13624
710.145	13405
710.263	13365
710.380	14152
710.498	12604
710.616	13582
710.733	11377
710.851	13262
710.969	12771
711.086	12781
711.204	13115
711.322	13084
711.439	13039
711.557	12008
711.674	12598
711.792	12543
711.909	11807
712.027	12139
712.144	11564
712.262	11241
712.379	11861
712.497	12615
712.614	11399
712.732	11962
712.849	11569
712.966	13126
713.084	12409
713.201	10487
713.318	12569
713.436	12880
713.553	11599
713.670	13288
713.787	13549
713.905	12073
714.022	13734
714.139	14449
714.256	17962
714.373	30186
714.490	59069
714.608	168307
714.725	633557
714.842	491330
714.959	56992
715.076	23971
715.193	18208
715.310	15757
715.427	11154
715.544	12689
715.661	11673
715.778	11926
715.895	11821
716.011	11477
716.128	10756
716.245	11341
716.362	9779
716.479	8452
716.596	9072
716.713	10646
716.829	9381
716.946	8912
717.063	8644
717.180	8559
717.296	8357
717.413	9051
717.530	8323
717.646	8462
717.763	8622
717.880	9161
717.996	7321
718.113	7757
718.229	8218
718.346	7938
718.462	7394
718.579	8450
718.695	8756
718.812	8520
718.928	8180
719.045	8126
719.161	7763
719.277	8533
719.394	9075
719.510	9148
719.626	10092
719.743	14006
719.859	24829
719.975	58557
720.092	247846
720.208	434547
720.324	49335
720.440	15032
720.557	11095
720.673	11493
720.789	8751
720.905	9349
721.021	7857
721.137	6830
721.253	6444
721.369	6784
721.486	7486
721.602	7092
721.718	5933
721.834	6489
721.950	6569
722.066	5887
722.181	5695
722.297	6997
722.413	6607
722.529	6939
722.645	5880
722.761	6344
722.877	6270
722.993	8190
723.108	10910
723.224	8830
723.340	6567
723.456	6620
723.571	5312
723.687	5585
723.803	6735
723.918	6287
724.034	5176
724.150	5738
724.265	5973
724.381	5711
724.497	5385
724.612	6014
724.728	6152
724.843	4876
724.959	5752
725.074	6872
725.190	5875
725.305	4987
725.421	5169
725.536	5620
725.651	6410
725.767	6424
725.882	5181
725.997	5578
726.113	5508
726.228	5518
726.343	4729
726.459	5399
726.574	5301
726.689	5473
726.804	4394
726.920	5543
727.035	5217
727.150	6111
727.265	5389
727.380	5945
727.495	5954
727.610	5932
727.725	4345
727.841	4491
727.956	5225
728.071	5743
728.186	5411
728.301	5621
728.416	5485
728.531	5660
728.645	4378
728.760	5711
728.875	5587
728.990	5645
729.105	4615
729.220	5010
729.335	4247
729.449	4978
729.564	4792
729.679	5263
729.794	4398
729.908	6064
730.023	4895
730.138	6119
730.253	6182
730.367	5363
730.482	4659
730.596	6188
730.711	7588
730.826	11740
730.940	10876
731.055	8245
731.169	8127
731.284	8464
731.398	7833
731.513	9379
731.627	9742
731.742	14107
731.856	17360
731.970	17819
732.085	22836
732.199	34514
732.313	64782
732.428	177286
732.542	468836
732.656	229189
732.771	48678
732.885	28460
732.999	25008
733.113	26318
733.227	24907
733.342	21987
733.456	22262
733.570	21391
733.684	20363
733.798	19126
733.912	18736
734.026	19638
734.140	18784
734.254	18926
734.368	17697
734.482	19077
734.596	18487
734.710	17302
734.824	17857
734.938	18332
735.052	17350
735.166	17757
735.280	16700
735.393	16364
735.507	16633
735.621	15686
735.735	15407
735.849	17235
735.962	15330
736.076	17638
736.190	15412
736.303	15874
736.417	15761
736.531	14903
736.644	14730
736.758	15444
736.872	13803
736.985	14901
737.099	14551
737.212	14675
737.326	13832
737.439	14757
737.553	12170
737.666	15020
737.780	12698
737.893	13988
738.007	13052
738.120	13956
738.233	12279
738.347	13620
738.460	11906
738.573	14351
738.687	11789
738.800	12302
738.913	14055
739.026	13237
739.140	12054
739.253	12709
739.366	11928
739.479	12121
739.592	12135
739.705	11420
739.818	13649
739.932	11502
740.045	12419
740.158	11644
740.271	12863
740.384	12218
740.497	10446
740.610	11386
740.723	11483
740.836	11342
740.949	11896
741.062	13492
741.174	10587
741.287	11362
741.400	11192
741.513	10428
741.626	11516
741.739	10650
741.851	10297
741.964	11809
742.077	10286
742.189	9056
742.302	10946
742.415	10349
742.527	10023
742.640	10507
742.753	8565
742.865	11143
742.978	9800
743.090	9349
743.203	10737
743.316	9608
743.428	9286
743.541	10119
743.653	7735
743.766	9710
743.878	9480
743.990	8185
744.103	9378
744.215	9628
744.327	8675
744.440	11465
744.552	9300
744.664	9035
744.777	10005
744.889	8627
745.001	8261
745.113	9417
745.226	8328
745.338	8368
745.450	9905
745.562	7920
745.674	6844
745.786	9344
745.898	8403
746.010	8380
746.122	8619
746.234	8510
746.347	7493
746.459	8264
746.570	6702
746.682	9138
746.794	9632
746.906	7557
747.018	8228
747.130	9520
747.242	6290
747.354	8163
747.466	8112
747.577	7522
747.689	7803
747.801	8467
747.913	6758
748.024	8152
748.136	7064
748.248	6969
748.359	7155
748.471	7100
748.583	6351
748.694	6631
748.806	7691
748.918	7323
749.029	5884
749.141	7673
749.252	7174
749.364	7099
749.475	6392
749.587	6032
749.698	5325
749.809	7447
749.921	6358
750.032	5720
750.144	5622
750.255	5889
750.366	6576
750.478	6247
750.589	6045
750.700	5665
750.811	6619
750.923	5644
751.034	5628
751.145	7702
751.256	5173
751.367	5790
751.479	5525
751.590	5838
751.701	4947
751.812	5199
751.923	4221
752.034	6756
752.145	5944
752.256	6719
752.367	5542
752.478	6151
752.589	5861
752.700	5841
752.811	5250
752.922	5725
753.032	6400
753.143	5843
753.254	4680
753.365	7349
753.476	6511
753.586	6323
753.697	5887
753.808	5774
753.919	5095
754.029	6221
754.140	4919
754.251	5004
754.361	5355
754.472	5081
754.582	4715
754.693	5030
754.804	5814
754.914	5239
755.025	4396
755.135	5237
755.246	5619
755.356	4880
755.466	3531
755.577	4729
755.687	4929
755.798	5151
755.908	4164
756.018	5433
756.129	4736
756.239	4945
756.349	5838
756.460	5478
756.570	5751
756.680	5375
756.790	5050
756.900	4554
757.011	4167
757.121	4529
757.231	3935
757.341	5582
757.451	2860
757.561	4511
757.671	4658
757.781	4654
757.891	3986
758.001	4078
758.111	4465
758.221	5644
758.331	6087
758.441	5682
758.551	4729
758.661	5301
758.771	5715
758.880	5366
758.990	4448
759.100	5953
759.210	4416
759.320	6143
759.429	4690
759.539	6935
759.649	6115
759.758	7189
759.868	7593
759.978	7116
760.087	8354
760.197	8562
760.307	7639
760.416	6850
760.526	5191
760.635	7008
760.745	7821
760.854	8349
760.964	9931
761.073	9014
761.182	8575
761.292	7057
761.401	6349
761.511	5774
761.620	4292
761.729	5375
761.839	4167
761.948	4283
762.057	4204
762.166	5229
762.276	2904
762.385	5187
762.494	4157
762.603	4107
762.712	4741
762.822	3944
762.931	2949
763.040	2957
763.149	2761
763.258	3648
763.367	3807
763.476	3351
763.585	3216
763.694	3684
763.803	2785
763.912	4319
764.021	3203
764.130	3858
764.238	3765
764.347	4319
764.456	3981
764.565	4040
764.674	2355
764.783	4225
764.891	2546
765.000	5075
765.109	2938
765.217	2689
765.326	3504
765.435	3788
765.543	2641
765.652	2765
765.761	2644
765.869	2604
765.978	3400
766.086	3935
766.195	3830
766.303	7425
766.412	19835
766.520	13429
766.629	2664
766.737	3790
766.846	3775
766.954	2455
767.062	3374
767.171	3782
767.279	3480
767.387	2554
767.496	2239
767.604	2995
767.712	2477
767.820	2732
767.928	3228
768.037	2507
768.145	3398
768.253	2367
768.361	2267
768.469	3597
768.577	2044
768.685	3273
768.793	2948
768.901	3015
769.009	2403
769.117	3265
769.225	2714
769.333	3253
769.441	2614
769.549	3157
769.657	3803
769.765	8144
769.873	14837
769.981	4775
770.088	3177
770.196	4265
770.304	3881
770.412	4346
770.519	3660
770.627	5161
770.735	4446
770.842	5085
770.950	4403
771.058	5406
771.165	7221
771.273	7691
771.380	7522
771.488	13069
771.595	13883
771.703	11692
771.810	10645
771.918	11373
772.025	14494
772.133	16590
772.240	15830
772.348	18914
772.455	16465
772.562	14580
772.670	14434
772.777	15435
772.884	15127
772.991	13934
773.099	15106
773.206	13893
773.313	13670
773.420	15130
773.528	12958
773.635	13352
773.742	14460
773.849	13284
773.956	13988
774.063	13060
774.170	12964
774.277	14626
774.384	12752
774.491	12565
774.598	13673
774.705	12538
774.812	13423
774.919	13806
775.026	12730
775.133	13256
775.239	11985
775.346	11944
775.453	12711
775.560	11644
775.667	12146
775.773	10536
775.880	12283
775.987	11562
776.093	12282
776.200	13276
776.307	8654
776.413	11072
776.520	13420
776.627	10382
776.733	10214
776.840	9211
776.946	13903
777.053	9966
777.159	10618
777.266	8783
777.372	10910
777.478	12421
777.585	10943
777.691	8394
777.798	11727
777.904	10091
778.010	8914
778.117	11433
778.223	9673
778.329	9968
778.435	8868
778.542	11473
778.648	8412
778.754	8752
778.860	10210
778.966	10206
779.072	8742
779.178	9673
779.284	7157
779.391	9338
779.497	8421
779.603	10664
779.708	7284
779.815	8579
779.920	9558
780.026	6666
780.132	9590
780.238	7754
780.344	7188
780.450	11444
780.556	6752
780.661	7108
780.767	9265
780.873	5840
780.979	7008
781.085	8438
781.190	7753
781.296	7342
781.402	8518
781.507	8149
781.613	5753
781.719	8058
781.824	7828
781.930	7245
782.035	8524
782.141	8634
782.246	5132
782.352	7310
782.457	6727
782.563	8098
782.668	7146
782.773	6432
782.879	5770
782.984	7204
783.090	7101
783.195	7240
783.300	8104
783.405	6113
783.511	5465
783.616	7172
783.721	6306
783.826	6374
783.932	5163
784.037	7026
784.142	6851
784.247	6386
784.352	7034
784.457	5480
784.562	6209
784.667	6970
784.772	5371
784.877	4528
784.982	6154
785.087	6855
785.192	5576
785.297	5464
785.402	6391
785.507	6056
785.611	6030
785.716	4710
785.821	6361
785.926	6228
786.031	4891
786.135	6267
786.240	5733
786.345	4452
786.450	4985
786.554	5903
786.659	4348
786.763	5183
786.868	6249
786.973	6126
787.077	4647
787.182	4665
787.286	5476
787.391	6818
787.495	3086
787.600	3894
787.704	4980
787.809	5908
787.913	4854
788.017	5229
788.122	5867
788.226	4714
788.330	2971
788.435	4888
788.539	6073
788.643	3455
788.747	2864
788.852	5042
788.956	3704
789.060	5824
789.164	4662
789.268	3540
789.372	5158
789.476	4852
789.580	3216
789.684	4299
789.788	6353
789.892	3864
789.996	2728
790.100	2904
790.204	4918
790.308	5305
790.412	3289
790.516	3094
790.620	3322
790.724	6585
790.828	3853
790.931	2182
791.035	3036
791.139	3941
791.242	3445
791.346	4496
791.450	3278
791.554	3236
791.657	1590
791.761	4292
791.864	4044
791.968	5463
792.072	4151
792.175	3330
792.279	3061
792.382	3211
792.486	2478
792.589	3413
792.693	4509
792.796	2516
792.899	4369
793.003	4316
793.106	3005
793.209	3284
793.313	3047
793.416	1860
793.519	3059
793.623	5354
793.726	4141
793.829	2749
793.932	2270
794.035	2056
794.138	4442
794.242	5295
794.345	2267
794.448	2116
794.551	1686
794.654	5266
794.757	3466
794.860	3350
794.963	3248
795.066	2732
795.169	3596
795.272	2353
795.375	4033
795.477	2291
795.580	2321
795.683	1997
795.786	3939
795.889	2287
795.991	3343
796.094	3870
796.197	2298
796.300	5035
796.402	3023
796.505	1971
796.608	1125
796.710	3080
796.813	3295
796.915	3915
797.018	3820
797.120	3420
797.223	802
797.326	4268
797.428	1948
797.530	2047
797.633	2075
797.735	3979
797.838	2168
797.940	3972
798.042	1994
798.145	2214
798.247	1914
798.349	1095
798.452	2679
798.554	2204
798.656	2849
798.758	4445
798.860	2764
798.962	2965
799.065	1712
799.167	1816
799.269	3240
799.371	3853
799.473	4461
799.575	3070
799.677	1526
799.779	3763
799.881	795
799.983	4131
800.085	2071
800.187	3073
800.289	1189
800.390	2398
800.492	3434
800.594	3661
800.696	1811
800.798	2492
800.899	1852
801.001	2460
801.103	2620
801.205	2428
801.306	1905
801.408	2426
801.509	2629
801.611	2725
801.713	2809
801.814	1992
801.916	1697
802.017	1396
802.119	413
802.220	2435
802.322	948
802.423	3414
802.525	306
802.626	2559
802.727	3351
802.829	3044
802.930	93
803.031	2768
803.133	2299
803.234	2629
803.335	2250
803.436	1380
803.538	2261
803.639	1256
803.740	2585
803.841	1706
803.942	1919
804.043	1921
804.144	314
804.245	1819
804.346	1161
804.447	1566
804.548	382
804.649	3689
804.750	1589
804.851	973
804.952	1761
805.053	2712
805.154	640
805.255	2187
805.355	2277
805.456	1904
805.557	368
805.658	955
805.758	2550
805.859	2488
805.960	1683
806.061	1763
806.161	395
806.262	2480
806.362	1108
806.463	1456
806.564	2312
806.664	1774
806.765	521
806.865	1498
806.966	231
807.066	1275
807.166	1842
807.267	2889
807.367	613
807.468	2754
807.568	-307
807.668	2260
807.769	1971
807.869	1288
807.969	1292
808.069	1036
808.170	1692
808.270	1543
808.370	2241
808.470	1543
808.570	923
808.670	1969
808.770	2318
808.870	1300
808.970	1407
809.070	828
809.170	669
809.271	1604
809.370	1012
809.470	1692
809.570	1522
809.670	992
809.770	1498
809.870	2627
809.970	1909
810.070	969
810.169	2494
810.269	647
810.369	2364
810.469	1855
810.568	1293
810.668	935
810.768	688
810.867	1768
810.967	495
811.066	2123
811.166	918
811.265	2408
811.365	509
811.464	1381
811.564	1874
811.663	2483
811.763	140
811.862	1944
811.962	1944
812.061	915
812.160	745
812.260	477
812.359	1147
812.458	1186
812.557	1857
812.657	1841
812.756	2200
812.855	1559
812.954	1255
813.053	2261
813.153	794
813.252	1295
813.351	1592
813.450	1847
813.549	1570
813.648	1407
813.747	1130
813.846	1504
813.945	947
814.044	1786
814.143	647
814.242	2571
814.341	823
814.439	2501
814.538	2044
814.637	2441
814.736	2222
814.835	3752
814.933	1830
815.032	3620
815.131	4974
815.229	9935
815.328	13609
815.427	10388
815.525	8553
815.624	9205
815.722	7893
815.821	8785
815.919	9465
816.018	9504
816.116	8632
816.215	8048
816.313	9189
816.412	11466
816.510	11429
816.609	13896
816.707	12809
816.805	11702
816.904	10861
817.002	11588
817.100	11833
817.198	12366
817.296	10950
817.395	11435
817.493	10623
817.591	10550
817.689	10298
817.787	10356
817.885	9731
817.983	9824
818.081	9372
818.179	10263
818.277	12727
818.375	10319
818.473	9051
818.571	8768
818.669	10749
818.767	11415
818.865	8597
818.963	7847
819.061	9373
819.158	8993
819.256	10817
819.354	9183
819.452	11706
819.549	9128
819.647	10373
819.745	7932
819.842	8177
819.940	8915
820.038	8211
820.135	7782
820.233	9822
820.330	8418
820.428	7791
820.525	10249
820.623	7406
820.720	7529
820.818	8500
820.915	9238
821.012	7779
821.110	7230
821.207	8360
821.304	7432
821.402	8586
821.499	8466
821.596	6369
821.693	7787
821.791	7938
821.888	6998
821.985	9313
822.082	6896
822.179	8255
822.276	7983
822.373	6047
822.470	6843
822.567	7441
822.664	6775
822.761	6940
822.858	7866
822.955	6419
823.052	6206
823.149	6540
823.246	7892
823.343	4816
823.440	6187
823.536	7786
823.633	6980
823.730	6099
823.827	6765
823.923	6620
824.020	6005
824.117	7504
824.213	7758
824.310	6227
824.407	4584
824.503	6637
824.600	6320
824.696	4988
824.793	8566
824.889	7109
824.986	4831
825.082	3658
825.179	5526
825.275	7292
825.371	8809
825.468	3884
825.564	3047
825.660	6198
825.757	8272
825.853	5294
825.949	4545
826.045	4272
826.142	5242
826.238	6279
826.334	6424
826.430	5366
826.526	4220
826.622	3631
826.718	6587
826.814	6570
826.910	6085
827.006	2231
827.102	3125
827.198	5846
827.294	6267
827.390	6627
827.486	4647
827.582	2400
827.678	4709
827.774	7219
827.869	3960
827.965	4015
828.061	4583
828.157	5850
828.252	6164
828.348	3578
828.444	3552
828.539	4106
828.635	5579
828.731	5347
828.826	3759
828.922	5134
829.017	6120
829.113	5750
829.208	3609
829.304	4057
829.399	7322
829.495	4618
829.590	4911
829.685	4151
829.781	5710
829.876	4522
829.971	2170
830.066	2220
830.162	5118
830.257	6430
830.352	4907
830.447	2873
830.543	4148
830.638	4300
830.733	6129
830.828	3229
830.923	5501
831.018	4227
831.113	5879
831.208	2807
831.303	2309
831.398	3069
831.493	4206
831.588	6231
831.683	2662
831.778	2291
831.873	3364
831.967	4713
832.062	4457
832.157	2918
832.252	4062
832.346	3146
832.441	4801
832.536	3941
832.631	5020
832.725	2737
832.820	3186
832.914	3543
833.009	2557
833.104	2134
833.198	2950
833.293	3244
833.387	5224
833.482	3482
833.576	3559
833.670	3220
833.765	3723
833.859	4573
833.954	5009
834.048	2959
834.142	3690
834.237	1628
834.331	4605
834.425	3699
834.519	3073
834.613	2497
834.708	2828
834.802	2156
834.896	3783
834.990	2369
835.084	2610
835.178	2030
835.272	3087
835.366	3699
835.460	4084
835.554	3230
835.648	2093
835.742	696
835.836	2123
835.930	2292
836.024	3849
836.117	3768
836.211	2521
836.305	2127
836.399	2900
836.493	1331
836.586	3667
836.680	1358
836.774	2197
836.867	2075
836.961	1930
837.055	1851
837.148	2196
837.242	2663
837.335	3386
837.429	2661
837.522	1910
837.616	715
837.709	2016
837.803	2004
837.896	3697
837.989	2439
838.083	1827
838.176	811
838.269	907
838.363	2580
838.456	1684
838.549	2900
838.642	1888
838.735	1532
838.829	2906
838.922	970
839.015	2342
839.108	1550
839.201	2545
839.294	2345
839.387	2113
839.480	1023
839.573	1965
839.666	857
839.759	1571
839.852	524
839.945	2332
840.038	659
840.131	1289
840.223	1012
840.316	2464
840.409	1637
840.502	2125
840.594	2923
840.687	930
840.780	986
840.873	1406
840.965	1012
841.058	2256
841.150	2394
841.243	899
841.336	1477
841.428	1445
841.521	1366
841.613	1226
841.706	1152
841.798	1468
841.890	2405
841.983	699
842.075	1162
842.167	1339
842.260	1862
842.352	3663
842.444	652
842.537	823
842.629	525
842.721	839
842.813	823
842.905	1223
842.997	1874
843.090	1786
843.182	1146
843.274	723
843.366	879
843.458	1905
843.550	2863
843.642	913
843.734	1681
843.826	1050
843.918	1283
844.009	2279
844.101	1096
844.193	2332
844.285	1937
844.377	1957
844.469	1825
844.560	19
844.652	664
844.744	1311
844.835	1670
844.927	1752
845.019	673
845.110	1729
845.202	1495
845.293	1201
845.385	743
845.476	1689
845.568	1246
845.659	1016
845.751	740
845.842	1971
845.934	866
846.025	916
846.116	828
846.208	1805
846.299	54
846.390	469
846.482	535
846.573	1102
846.664	1385
846.755	1648
846.846	2199
846.937	-294
847.029	-464
847.120	973
847.211	1277
847.302	2824
847.393	1320
847.484	1462
847.575	-45
847.666	457
847.757	463
847.847	1577
847.938	1252
848.029	2006
848.120	865
848.211	679
848.302	374
848.392	-131
848.483	796
848.574	1262
848.664	1476
848.755	1425
848.846	367
848.936	1107
849.027	1894
849.118	1920
849.208	349
849.299	3426
849.389	5637
849.480	9071
849.570	16815
849.661	34071
849.751	50475
849.841	17080
849.932	2177
850.022	1755
850.112	2102
850.203	837
850.293	86
850.383	1204
850.474	279
850.564	1122
850.654	487
850.744	791
850.834	-165
850.924	1687
851.014	1481
851.104	853
851.194	-494
851.284	1416
851.374	109
851.464	476
851.554	1321
851.644	568
851.734	572
851.824	1099
851.914	988
852.004	1900
852.094	596
852.183	698
852.273	819
852.363	1892
852.452	30
852.542	1008
852.632	691
852.721	700
852.811	899
852.901	1336
852.990	1966
853.080	1764
853.169	1773
853.259	3061
853.348	1626
853.438	2984
853.527	3605
853.617	6003
853.706	10178
853.795	19428
853.885	39814
853.974	68756
854.063	122339
854.152	151804
854.242	62207
854.331	17612
854.420	7982
854.509	6679
854.598	4501
854.687	3786
854.777	2835
854.866	1559
854.955	1532
855.044	1671
855.133	391
855.222	1821
855.311	514
855.400	1221
855.488	634
855.577	805
855.666	320
855.755	909
855.844	649
855.933	828
856.021	743
856.110	236
856.199	357
856.288	811
856.376	-256
856.465	114
856.554	761
856.642	1518
856.731	1678
856.819	694
856.908	1038
856.996	1184
857.085	-140
857.173	227
857.262	-331
857.350	450
857.438	831
857.527	527
857.615	185
857.703	1037
857.792	338
857.880	576
857.968	-112
858.056	1009
858.145	921
858.233	540
858.321	-446
858.409	1181
858.497	1180
858.585	278
858.673	1036
858.761	331
858.849	216
858.937	780
859.025	526
859.113	1113
859.201	1265
859.289	1396
859.377	1018
859.465	1246
859.552	35
859.640	598
859.728	1333
859.816	837
859.903	87
859.991	689
860.079	681
860.166	1086
860.254	703
860.342	1248
860.429	542
860.517	-96
860.604	663
860.692	737
860.779	270
860.867	248
860.954	1043
861.042	1967
861.129	2363
861.216	1378
861.304	393
861.391	1405
861.478	729
861.565	1044
861.653	1275
861.740	748
861.827	131
861.914	1690
862.001	-136
862.089	917
862.176	808
862.263	1057
862.350	872
862.437	803
862.524	543
862.611	847
862.698	772
862.785	875
862.871	1672
862.958	1019
863.045	553
863.132	1525
863.219	1068
863.306	688
863.392	1155
863.479	1047
863.566	1182
863.652	955
863.739	-97
863.826	2301
863.912	1470
863.999	648
864.086	1440
864.172	1957
864.259	1741
864.345	2251
864.432	1754
864.518	1991
864.604	1575
864.691	2546
864.777	1829
864.863	4135
864.950	5100
865.036	8169
865.122	13443
865.209	13663
865.295	11776
865.381	11855
865.467	11564
865.553	11858
865.639	13800
865.726	18625
865.812	28773
865.898	45037
865.984	63071
866.070	106075
866.156	96603
866.242	36373
866.328	15913
866.414	12446
866.499	11124
866.585	10760
866.671	9990
866.757	10268
866.843	9526
866.928	9406
867.014	8778
867.100	9639
867.186	8053
867.271	8502
867.357	8241
867.442	8152
867.528	7895
867.614	8081
867.699	8589
867.785	9063
867.870	7660
867.956	8098
868.041	8056
868.127	7918
868.212	7620
868.297	7235
868.383	7701
868.468	7887
868.553	8192
868.639	8726
868.724	7980
868.809	7690
868.894	7454
868.979	8119
869.065	7117
869.150	5710
869.235	7122
869.320	7659
869.405	6191
869.490	8654
869.575	6683
869.660	6050
869.745	8285
869.830	8517
869.915	5977
870.000	7142
870.085	6360
870.169	8079
870.254	9531
870.339	5443
870.424	4921
870.509	7561
870.593	8357
870.678	7532
870.763	5836
870.847	5967
870.932	7405
871.016	7920
871.101	5415
871.186	7210
871.270	8203
871.355	4990
871.439	5842
871.523	7725
871.608	5101
871.692	5578
871.777	6895
871.861	7255
871.945	5863
872.030	6664
872.114	6187
872.198	5127
872.282	4550
872.367	6094
872.451	5030
872.535	5741
872.619	5261
872.703	5552
872.787	6081
872.871	6452
872.955	4310
873.039	3737
873.123	5647
873.207	7007
873.291	4070
873.375	5016
873.459	6367
873.543	5234
873.627	5038
873.711	4668
873.794	5931
873.878	5253
873.962	3952
874.045	5078
874.129	4686
874.137	4774
874.213	5659
874.245	5519
874.296	5296
874.352	4465
874.380	4058
874.460	4785
874.464	4815
874.547	4773
874.568	4818
874.631	4961
874.676	5384
874.714	5706
874.784	5635
874.798	5628
874.881	4689
874.892	4499
874.965	3324
874.999	4197
875.048	5284
875.107	4937
875.131	4801
875.215	3659
875.215	3659
875.298	3025
875.323	3665
875.381	5226
875.430	5920
875.465	6307
875.538	5290
875.548	5162
875.631	3301
875.646	3265
875.714	3124
875.753	3457
875.798	3901
875.861	5177
875.881	5521
875.964	3861
875.968	3837
876.047	3640
876.076	3739
876.130	3919
876.183	4257
876.213	4458
876.291	4857
876.296	4864
876.379	4189
876.398	4049
876.462	3649
876.506	3200
876.545	2887
876.613	3364
876.628	3473
876.711	3601
876.721	3787
876.794	5192
876.828	4985
876.877	4492
876.935	2981
876.960	2443
877.043	3662
877.043	3661
877.125	3931
877.150	4637
877.208	5678
877.258	4474
877.291	3803
877.365	3172
877.374	3097
877.456	3124
877.472	3176
877.539	3766
877.579	4228
877.622	4485
877.687	4885
877.704	5033
877.787	4231
877.794	4302
877.869	5122
877.901	4842
877.952	4023
878.008	3146
878.034	2853
878.115	2955
878.117	2965
878.199	3456
878.222	3678
878.282	4247
878.329	4672
878.364	4865
878.437	4610
878.447	4552
878.529	3871
878.544	3694
878.611	3117
878.651	3652
878.694	4368
878.758	4476
878.776	4506
878.858	5200
878.865	5141
878.941	3596
878.972	3188
879.023	3136
879.078	3442
879.105	3582
879.185	4755
879.187	4785
879.269	4800
879.292	4866
879.351	4399
879.399	3773
879.433	3565
879.506	3881
879.516	3917
879.598	3848
879.613	3740
879.680	3554
879.720	4181
879.762	4605
879.827	3969
879.844	3812
879.926	3742
879.933	3767
880.007	4224
880.040	3887
880.089	3471
880.147	4259
880.171	4542
880.253	4820
880.254	4815
880.335	4410
880.360	4535
880.417	5150
880.467	5660
880.499	5789
880.574	5501
880.580	5507
880.662	5863
880.680	5545
880.744	3528
880.787	3028
880.825	3197
880.893	3814
880.907	3853
880.989	3378
881.000	3428
881.070	4571
881.106	4640
881.152	4014
881.213	3565
881.233	3618
881.315	4132
881.319	4144
881.396	4428
881.426	4596
881.478	5118
881.532	5625
881.559	5616
881.639	4549
881.641	4514
881.722	3757
881.745	3496
881.803	4271
881.852	4853
881.885	4630
881.958	3637
881.966	3629
882.047	4183
882.064	4245
882.129	3444
882.171	2697
882.210	2508
882.277	2901
882.291	3129
882.372	4290
882.383	4503
882.454	5705
882.489	5581
882.535	5174
882.596	5711
882.616	5749
882.697	4747
882.702	4669
882.778	3337
882.808	3149
882.859	3270
882.914	3478
882.940	3788
883.020	3903
883.021	3912
883.102	4908
883.127	5135
883.183	5754
883.233	5904
883.264	4963
883.339	2616
883.345	2555
883.426	2138
883.445	2137
883.507	3168
883.551	3938
883.587	4536
883.657	5117
883.668	5141
883.749	5529
883.763	5491
883.830	3600
883.869	2763
883.910	3083
883.975	3515
883.991	3610
884.072	4139
884.081	4162
884.152	5624
884.187	6429
884.233	6349
884.292	5573
884.314	4818
884.394	2469
884.398	2351
884.475	2051
884.504	1986
884.555	2494
884.610	2805
884.636	3047
884.716	4406
884.716	4431
884.797	6799
884.821	7458
884.877	6178
884.927	4562
884.958	4138
885.033	3669
885.038	3633
885.118	2700
885.139	2598
885.199	3009
885.244	3120
885.279	3688
885.350	5114
885.359	5391
885.439	7688
885.456	7946
885.520	5156
885.561	3515
885.600	3453
885.667	3980
885.680	4135
885.760	4203
885.773	4316
885.840	3418
885.878	2659
885.920	2859
885.984	3497
886.000	3782
886.080	4648
886.089	4767
886.160	5236
886.195	5295
886.240	4852
886.300	4606
886.320	4768
886.400	4973
886.406	4980
886.480	3570
886.511	2989
886.560	3059
886.616	3173
886.640	3212
886.720	3203
886.722	3200
886.800	4074
886.827	4298
886.879	4464
886.932	4905
886.959	5269
887.038	5670
887.039	5664
887.119	4298
887.143	3934
887.198	4278
887.248	4572
887.278	4497
887.354	4133
887.358	4123
887.437	3855
887.459	3774
887.517	4711
887.564	5334
887.596	4805
887.669	3599
887.676	3541
887.755	2982
887.774	2782
887.835	2563
887.880	2507
887.914	3368
887.985	4904
887.994	5051
888.073	6582
888.090	6794
888.153	7131
888.195	7438
888.232	6275
888.300	4054
888.311	4019
888.391	3686
888.405	3621
888.470	3095
888.510	2817
888.549	3143
888.615	3543
888.628	3814
888.708	5505
888.720	5740
888.787	5527
888.825	5409
888.866	4313
888.930	2572
888.945	2824
889.024	4181
889.035	4336
889.103	4797
889.140	5104
889.182	4662
889.245	3924
889.261	4090
889.340	4846
889.349	4924
889.419	3887
889.454	3348
889.498	2976
889.559	2482
889.577	3158
889.656	6090
889.664	6367
889.735	5502
889.768	5067
889.814	5219
889.873	5385
889.978	3798
890.083	4047
890.187	5271
890.292	5285
890.397	4023
890.501	4031
890.606	3071
890.710	5022
890.815	6365
890.919	5135
891.024	4685
891.128	2363
891.233	2831
891.337	7056
891.442	4901
891.546	5257
891.650	3065
891.755	3692
891.859	6203
891.963	6677
892.068	4288
892.172	3271
892.276	2354
892.380	3855
892.484	6098
892.589	4929
892.693	3844
892.797	2102
892.901	1848
893.005	4213
893.109	6850
893.213	5490
893.317	4203
893.421	2576
893.525	1866
893.629	3233
893.733	4908
893.837	4142
893.941	3425
894.045	2797
894.148	2564
894.252	2990
894.356	5842
894.460	6150
894.564	3795
894.667	3419
894.771	2247
894.875	1711
894.978	3009
895.082	4172
895.186	4459
895.289	3695
895.393	3568
895.496	5516
895.600	2578
895.703	1628
895.807	2986
895.910	4426
896.014	3392
896.117	3118
896.221	4190
896.324	3967
896.427	2464
896.531	2831
896.634	2965
896.737	3720
896.840	3869
896.944	5119
897.047	4455
897.150	3030
897.253	1700
897.356	1369
897.460	1600
897.563	2866
897.666	4672
897.769	4367
897.872	2635
897.975	3014
898.078	2130
898.181	2694
898.284	2908
898.387	5388
898.490	4560
898.593	3271
898.695	1548
898.798	2739
898.901	2998
899.004	3278
899.107	2674
899.209	2928
899.312	4909
899.415	1779
899.518	1235
899.620	1186
899.723	2034
899.826	2782
899.928	1995
900.031	4197
900.133	4451
900.236	2790
900.338	1889
900.441	2563
900.543	2726
900.646	3090
900.748	3100
900.851	4933
900.953	2020
901.055	1969
901.158	2649
901.260	1732
901.362	1849
901.465	1868
901.567	3593
901.669	3965
901.771	3297
901.873	2693
901.976	3071
902.078	3413
902.180	1503
902.282	1975
902.384	2835
902.486	5555
902.588	3084
902.690	1808
902.792	1506
902.894	2413
902.996	3435
903.098	3193
903.200	1000
903.302	1741
903.404	1650
903.505	2698
903.607	2934
903.709	5461
903.811	4039
903.913	2720
904.014	1727
904.116	1180
904.218	1110
904.319	2800
904.421	5618
904.523	2862
904.624	2176
904.726	1986
904.827	1061
904.929	2073
905.030	2889
905.132	4369
905.233	1863
905.335	1841
905.436	1047
905.537	2554
905.639	1637
905.740	3212
905.841	3699
905.943	2501
906.044	2555
906.145	1788
906.247	730
906.348	2701
906.449	2540
906.550	4429
906.651	592
906.752	2874
906.854	1946
906.955	2372
907.056	1961
907.157	3987
907.258	3295
907.359	1840
907.460	456
907.561	1872
907.662	1338
907.762	2463
907.863	2392
907.964	3193
908.065	2003
908.166	2084
908.267	1499
908.367	2245
908.468	1843
908.569	2508
908.670	3578
908.770	3683
908.871	3191
908.971	2694
909.072	2239
909.173	1902
909.273	1629
909.374	3895
909.474	2461
909.575	1557
909.675	2337
909.776	2933
909.876	2832
909.977	2165
910.077	3144
910.177	3923
910.278	1492
910.378	1742
910.478	2040
910.579	2968
910.679	3063
910.779	3801
910.879	2921
910.980	3490
911.080	2379
911.180	1404
911.280	1184
911.380	1829
911.480	1501
911.580	2322
911.680	2439
911.780	3026
911.880	2816
911.980	1264
912.080	1829
912.180	2258
912.280	1461
912.380	1879
912.480	1501
912.580	2206
912.679	2129
912.779	3294
912.879	2467
912.979	3169
913.078	1657
913.178	1861
913.278	1884
913.377	2357
913.477	1686
913.577	2218
913.676	3515
913.776	3140
913.875	2150
913.975	2169
914.074	1810
914.174	2055
914.273	905
914.373	2728
914.472	2299
914.572	1576
914.671	1491
914.770	2893
914.870	1686
914.969	2357
915.068	2449
915.167	2760
915.267	1939
915.366	1928
915.465	1843
915.564	2428
915.663	2797
915.763	3032
915.862	4242
915.961	3704
916.060	1814
916.159	2260
916.258	1594
916.357	2381
916.456	2442
916.555	3038
916.654	2194
916.752	3025
916.851	2711
916.950	2516
917.049	1586
917.148	2568
917.247	1496
917.345	1330
917.444	1372
917.543	2655
917.642	1837
917.740	3287
917.839	4581
917.937	4599
918.036	2468
918.135	2723
918.233	2514
918.332	2172
918.430	2392
918.529	2731
918.627	2452
918.726	4092
918.824	3051
918.923	1815
919.021	2323
919.119	1788
919.218	2133
919.316	2953
919.414	2284
919.512	3770
919.611	3674
919.709	3399
919.807	3997
919.905	4179
920.003	3638
920.102	3822
920.200	4217
920.298	5460
920.396	4245
920.494	4584
920.592	3393
920.690	3521
920.788	3462
920.886	4916
920.984	5092
921.082	5951
921.180	5871
921.277	5235
921.375	7078
921.473	9826
921.571	9022
921.669	7711
921.766	7269
921.864	8243
921.962	7497
922.060	7303
922.157	7295
922.255	8457
922.352	7834
922.450	9692
922.548	9233
922.645	10769
922.743	14485
922.840	24808
922.938	25038
923.035	22155
923.133	21637
923.230	26601
923.327	29741
923.425	27379
923.522	27355
923.619	24689
923.717	21641
923.814	22377
923.911	21261
924.008	23785
924.106	20666
924.203	21596
924.300	21622
924.397	22210
924.494	21511
924.591	21055
924.688	19908
924.786	22081
924.883	21359
924.979	21651
925.077	20325
925.173	20012
925.270	20575
925.367	21261
925.464	21722
925.561	22420
925.658	21804
925.755	17824
925.852	20774
925.948	21016
926.045	19190
926.142	21766
926.239	20359
926.335	17115
926.432	19687
926.529	22026
926.625	21895
926.722	17931
926.818	19364
926.915	21596
927.011	19166
927.108	18321
927.204	18526
927.301	16667
927.397	21108
927.494	22300
927.590	14022
927.687	17935
927.783	21367
927.879	20330
927.976	16744
928.072	16476
928.168	19448
928.264	18164
928.361	17257
928.457	19887
928.553	16173
928.649	17921
928.745	17522
928.841	16508
928.937	18062
929.033	16599
929.129	18069
929.225	20255
929.321	14926
929.417	16491
929.513	18855
929.609	15178
929.705	15907
929.801	18047
929.897	14007
929.993	16512
930.089	15675
930.184	14971
930.280	17370
930.376	19952
930.471	14475
930.567	13515
930.663	14491
930.758	13682
930.854	14319
930.950	15367
931.045	12737
931.141	15709
931.236	18945
931.332	14147
931.427	14035
931.523	18082
931.618	15066
931.714	10914
931.809	14638
931.905	16346
932.000	10203
932.095	10889
932.191	17438
932.286	19590
932.381	13034
932.476	12215
932.572	13338
932.667	12205
932.762	13023
932.857	15917
932.952	16442
933.047	12600
933.142	10619
933.237	15366
933.332	14432
933.427	15302
933.522	11996
933.617	11983
933.712	11577
933.807	16445
933.902	16630
933.997	15378
934.092	10605
934.187	12593
934.282	14096
934.376	14659
934.471	14411
934.566	11817
934.661	11172
934.755	14349
934.850	13528
934.945	11987
935.039	9535
935.134	9309
935.228	12636
935.323	17826
935.417	10016
935.512	8315
935.606	9854
935.701	13409
935.795	15151
935.890	12219
935.984	10021
936.079	9227
936.173	10870
936.267	10245
936.362	9532
936.456	12622
936.550	15002
936.644	11889
936.738	9219
936.833	8898
936.927	7209
937.021	11225
937.115	12256
937.209	12063
937.303	9619
937.397	8695
937.491	10819
937.585	13521
937.679	10606
937.773	9299
937.867	6416
937.961	9593
938.055	13786
938.149	10922
938.243	7289
938.337	6568
938.430	9925
938.524	12794
938.618	8365
938.712	7625
938.805	9831
938.899	13298
938.993	12404
939.086	7638
939.180	5904
939.274	8334
939.367	11852
939.461	11027
939.554	8926
939.648	7082
939.741	7339
939.835	11288
939.928	13035
940.022	11123
940.115	8691
940.208	11154
940.302	12880
940.395	11904
940.488	7147
940.582	8533
940.675	6633
940.768	9208
940.861	11385
940.954	11217
941.048	5619
941.141	6739
941.234	7560
941.327	9444
941.420	10092
941.513	9893
941.606	7128
941.699	8552
941.792	10100
941.885	8650
941.978	8511
942.071	9164
942.164	5125
942.257	6995
942.349	7411
942.442	8897
942.535	6251
942.628	7105
942.721	7783
942.813	7603
942.906	7816
942.999	7940
943.091	6381
943.184	7888
943.277	6669
943.369	5389
943.462	4827
943.554	7805
943.647	7954
943.739	10680
943.832	9151
943.924	4510
944.017	5299
944.109	5872
944.201	6285
944.294	6416
944.386	6723
944.478	6258
944.571	5038
944.663	6634
944.755	7596
944.847	8682
944.940	5885
945.032	3463
945.124	4830
945.216	7316
945.308	7551
945.400	6994
945.492	7027
945.584	9028
945.676	8051
945.768	7957
945.860	7566
945.952	9280
946.044	6435
946.136	7043
946.228	5931
946.320	6093
946.412	7465
946.503	9167
946.595	7256
946.687	5469
946.779	4890
946.870	5762
946.962	5153
947.054	6371
947.145	7882
947.237	5413
947.329	6624
947.420	6898
947.512	4797
947.603	4331
947.695	5377
947.786	4222
947.878	4454
947.969	6981
948.061	6828
948.152	6145
948.243	3279
948.335	3782
948.426	4194
948.517	6210
948.609	6885
948.700	6672
948.791	5761
948.882	4460
948.973	4408
949.065	6285
949.156	5342
949.247	4130
949.338	4139
949.429	3640
949.520	3596
949.611	6463
949.702	7081
949.793	5881
949.884	5537
949.975	4410
950.066	3134
950.157	3877
950.247	3820
950.338	3444
950.429	4021
950.520	5903
950.611	3723
950.701	6146
950.792	6841
950.883	5757
950.973	5146
951.064	5970
951.155	5480
951.245	6344
951.336	6302
951.427	6392
951.517	7266
951.608	6216
951.698	4193
951.788	4343
951.879	2728
951.969	3761
952.060	3965
952.150	5090
952.240	6848
952.331	4776
952.421	5804
952.511	2823
952.602	2637
952.692	3627
952.782	2388
952.872	5290
952.962	4526
953.052	3959
953.143	3531
953.233	5306
953.323	4046
953.413	4756
953.503	5456
953.593	4908
953.683	3741
953.773	2227
953.863	2888
953.953	2450
954.042	4028
954.132	4442
954.222	4625
954.312	3401
954.402	4688
954.492	3681
954.581	4273
954.671	4449
954.761	4117
954.850	4923
954.940	1895
955.030	2927
955.119	2155
955.209	3588
955.298	4099
955.388	4923
955.477	4790
955.567	2100
955.656	2735
955.746	3681
955.835	2572
955.925	3687
956.014	4595
956.103	6050
956.193	6731
956.282	4965
956.371	3604
956.461	5154
956.550	3712
956.639	3757
956.728	3620
956.817	4106
956.906	3736
956.995	4558
957.085	3424
957.174	3871
957.263	2820
957.352	3664
957.441	3730
957.530	4271
957.619	2964
957.708	3281
957.796	2866
957.885	3484
957.974	2934
958.063	2066
958.152	1840
958.241	2856
958.329	3062
958.418	3257
958.507	3561
958.596	6011
958.684	3152
958.773	3450
958.861	1741
958.950	2522
959.039	3254
959.127	2453
959.216	3238
959.304	2658
959.393	2763
959.481	2791
959.570	2122
959.658	2103
959.746	2353
959.835	2806
959.923	2461
960.011	2912
960.100	3826
960.188	4350
960.276	2512
960.365	2427
960.453	1765
960.541	2753
960.629	2215
960.717	2429
960.805	552
960.893	2456
960.981	3158
961.069	5338
961.158	5402
961.245	7152
961.333	4658
961.421	3489
961.509	3330
961.597	4380
961.685	2430
961.773	3370
961.861	3436
961.949	4179
962.036	2198
962.124	2671
962.212	1780
962.299	2923
962.387	1745
962.475	3125
962.562	2028
962.650	4242
962.738	2595
962.825	1897
962.913	2309
963.000	2630
963.088	3556
963.175	2546
963.263	2142
963.350	2691
963.438	2144
963.525	2018
963.612	2241
963.700	2536
963.787	2112
963.874	3029
963.962	1116
964.049	1695
964.136	1085
964.223	1529
964.310	1998
964.398	2433
964.485	3171
964.572	3535
964.659	2708
964.746	1841
964.833	1943
964.920	1689
965.007	1997
965.094	2309
965.181	1606
965.268	3515
965.355	2110
965.441	2626
965.528	1810
965.615	3812
965.702	2772
965.789	2428
965.875	3004
965.962	3445
966.049	1984
966.136	5055
966.222	3001
966.309	5160
966.395	3160
966.482	3925
966.569	3047
966.655	3026
966.742	2940
966.828	2855
966.915	1190
967.001	1780
967.087	1075
967.174	2044
967.260	1863
967.347	2476
967.433	2271
967.519	2964
967.605	1484
967.692	2462
967.778	2380
967.864	2369
967.950	2298
968.036	3163
968.123	2686
968.209	2858
968.295	1277
968.381	3328
968.467	1615
968.553	1628
968.639	2391
968.725	2002
968.811	4064
968.897	4242
968.983	1586
969.069	1222
969.154	2339
969.240	1965
969.326	1259
969.412	1909
969.497	1794
969.583	1509
969.669	3332
969.755	3541
969.840	2284
969.926	6149
970.012	6289
970.097	7738
970.183	5876
970.268	4412
970.354	2583
970.439	1821
970.525	2293
970.610	1747
970.696	2952
970.781	2637
970.866	1746
970.952	1632
971.037	1839
971.122	2997
971.208	1961
971.293	2326
971.378	647
971.463	2228
971.549	1707
971.634	2497
971.719	1123
971.804	2283
971.889	1120
971.974	2164
972.059	2497
972.144	2303
972.229	1457
972.314	2507
972.399	1627
972.484	2140
972.569	2005
972.654	1152
972.739	2575
972.824	1444
972.908	924
972.993	1729
973.078	1651
973.163	2249
973.247	3166
973.332	1021
973.417	2455
973.501	2122
973.586	2199
973.671	2414
973.755	1265
973.840	2741
973.924	3886
974.009	4095
974.093	4487
974.178	4616
974.262	2496
974.346	3059
974.431	1656
974.515	2763
974.600	2515
974.684	3495
974.768	2300
974.852	2792
974.937	1425
975.021	3351
975.105	2741
975.189	2470
975.273	2158
975.358	1672
975.442	1846
975.526	3085
975.610	1131
975.694	2044
975.778	2438
975.862	2576
975.946	718
976.030	3542
976.114	871
976.198	2186
976.281	2054
976.365	3107
976.449	1534
976.533	2599
976.617	1379
976.700	2099
976.784	1972
976.868	2185
976.951	2107
977.035	2051
977.119	2461
977.202	2783
977.286	2888
977.369	5599
977.453	6167
977.536	4860
977.620	3791
977.703	3553
977.787	1808
977.870	4030
977.953	2141
978.037	2344
978.120	2532
978.203	3480
978.287	2424
978.370	2523
978.453	1422
978.536	2319
978.620	3089
978.703	3164
978.786	618
978.869	1423
978.952	1652
979.035	4016
979.118	2685
979.201	1236
979.284	3366
979.367	2950
979.450	3144
979.533	2282
979.616	1150
979.699	2173
979.782	2688
979.865	2864
979.948	1860
980.030	1865
980.113	2622
980.196	1743
980.279	2162
980.361	2249
980.444	2584
980.526	4360
980.609	5805
980.692	6482
980.774	4804
980.857	4102
980.939	5002
981.022	3872
981.104	3720
981.187	3025
981.269	3286
981.352	2500
981.434	2978
981.516	2781
981.599	3870
981.681	3248
981.763	2961
981.846	3775
981.928	3306
982.010	3609
982.092	2727
982.174	3751
982.256	2825
982.339	3162
982.421	2656
982.503	3206
982.585	2354
982.667	2991
982.749	2736
982.831	3150
982.913	2440
982.995	4121
983.077	2976
983.158	4822
983.240	2795
983.322	6077
983.404	7390
983.486	6132
983.568	6084
983.649	4733
983.731	4706
983.813	4762
983.894	4260
983.976	4095
984.058	3318
984.139	5065
984.221	2627
984.302	4757
984.384	4012
984.465	3409
984.547	4314
984.628	3742
984.710	4305
984.791	4425
984.872	4400
984.954	4104
985.035	4092
985.116	3689
985.198	3918
985.279	6101
985.360	3123
985.441	4161
985.522	4312
985.604	4318
985.685	1653
985.766	4729
985.847	5160
985.928	3717
986.009	4230
986.090	3887
986.171	4637
986.252	4194
986.333	3419
986.414	4028
986.495	4376
986.576	5157
986.656	4074
986.737	6383
986.818	5015
986.899	4301
986.980	4444
987.060	4649
987.141	4768
987.222	6679
987.302	6361
987.383	6961
987.464	5492
987.544	7343
987.625	4886
987.705	6890
987.786	7263
987.866	6241
987.947	6122
988.027	5418
988.108	5520
988.188	5917
988.268	5298
988.349	5928
988.429	5190
988.509	5027
988.589	4796
988.670	4487
988.750	6433
988.830	5814
988.910	5849
988.990	5443
989.070	4382
989.151	5335
989.231	4563
989.311	5484
989.391	3939
989.471	5324
989.551	4554
989.631	4281
989.711	5410
989.791	4421
989.870	3839
989.950	5119
990.030	4880
990.110	5278
990.190	3453
990.269	3985
990.349	4170
990.429	4909
990.509	3714
990.588	3104
990.668	4424
990.747	4496
990.827	4670
990.907	5198
990.986	5052
991.066	3668
991.145	3098
991.225	4215
991.304	4374
991.383	4670
991.463	3554
991.542	4149
991.622	3826
991.701	3519
991.780	2679
991.859	3357
991.939	3470
992.018	4303
992.097	3836
992.176	3564
992.256	2617
992.335	3608
992.414	3911
992.493	3298
992.572	3054
992.651	4156
992.730	3632
992.809	3504
992.888	2304
992.967	3223
993.046	3248
993.125	1810
993.203	3223
993.282	3601
993.361	2630
993.440	3087
993.519	2942
993.597	4277
993.676	1827
993.755	4632
993.834	2411
993.912	1476
993.991	3112
994.069	2780
994.148	2775
994.226	2119
994.305	2014
994.384	3791
994.462	3542
994.540	1940
994.619	1638
994.697	3103
994.776	2250
994.854	3082
994.932	1668
995.011	1915
995.089	2520
995.167	2480
995.245	1867
995.324	2121
995.402	2344
995.480	1790
995.558	1764
995.636	2107
995.714	2246
995.792	3205
995.870	1099
995.948	1749
996.026	1836
996.104	1604
996.182	2589
996.260	1240
996.338	2425
996.416	1155
996.494	1526
996.572	2270
996.649	1669
996.727	1479
996.805	1616
996.883	1818
996.960	1874
997.038	2467
997.116	1802
997.193	1699
997.271	755
997.348	1141
997.426	1886
997.504	2217
997.581	2240
997.658	2603
997.736	139
997.813	801
997.891	2610
997.968	1178
998.046	1247
998.123	1220
998.200	2084
998.277	1289
998.355	1530
998.432	-131
998.509	398
998.586	1241
998.663	991
998.741	1109
998.818	868
998.895	415
998.972	1618
999.049	2235
999.126	543
999.203	1252
999.280	965
999.357	933
999.434	454
999.511	2039
999.587	773
999.664	-291
999.741	502
999.818	1820
999.895	150
999.971	296
1000.048	1342
1000.125	1107
1000.202	311
1000.278	1989
1000.355	1242
1000.431	859
1000.508	101
1000.584	1132
1000.661	851
1000.738	1353
1000.814	974
1000.890	1792
1000.967	356
1001.043	288
1001.120	-524
1001.196	1554
1001.272	-668
1001.349	1023
1001.425	873
1001.501	1311
1001.577	145
1001.654	1134
1001.730	164
1001.806	1195
1001.882	31
1001.958	1011
1002.034	411
1002.110	-260
1002.186	-28
1002.262	134
1002.338	-692
1002.414	806
1002.490	608
1002.566	-345
1002.642	-899
1002.718	1340
1002.794	432
1002.870	134
1002.945	-422
1003.021	-155
1003.097	-143
1003.173	1119
1003.248	-558
1003.324	999
1003.400	159
1003.475	-750
1003.551	443
1003.626	665
1003.702	-264
1003.777	13
1003.853	-359
1003.928	43
1004.004	-582
1004.079	688
1004.155	-222
1004.230	-69
1004.305	555
1004.381	-724
1004.456	-551
1004.531	191
1004.607	-174
1004.682	-215
1004.757	-305
1004.832	249
1004.907	-715
1004.982	328
1005.057	-158
1005.133	-322
1005.208	-1084
1005.283	-538
1005.358	-438
1005.433	-588
1005.508	-336
1005.583	289
1005.657	-915
1005.732	995
1005.807	-357
1005.882	-1031
1005.957	-377
1006.032	-142
1006.106	-570
1006.181	-570
1006.256	-572
1006.331	-206
1006.405	-706
1006.480	-599
1006.554	-1602
1006.629	111
1006.704	-961
1006.778	-183
1006.853	-32
1006.927	-408
1007.002	-1146
1007.076	-416
1007.150	-592
1007.225	-215
1007.299	-109
1007.373	-683
1007.448	-1206
1007.522	114
1007.596	-1376
1007.671	-727
1007.745	-687
1007.819	-625
1007.893	-848
1007.967	356
1008.041	-2208
1008.115	499
1008.190	-1226
1008.264	-239
1008.338	-1754
1008.412	-1349
1008.486	-377
1008.560	-85
1008.633	-1413
1008.707	-186
1008.781	-128
1008.855	-693
1008.929	-773
1009.003	-991
1009.076	-1411
1009.150	-817
1009.224	-1341
1009.298	-15
1009.371	-1589
1009.445	-515
1009.519	-867
1009.592	-781
1009.666	-1053
1009.739	-729
1009.813	-2314
1009.886	-169
1009.960	-1901
1010.033	-313
1010.107	-1112
1010.180	-1835
1010.253	-768
1010.327	-1633
1010.400	-1089
1010.473	-1086
1010.547	-121
1010.620	-949
1010.693	-1058
1010.766	-1376
1010.840	-1106
1010.913	-854
1010.986	-1512
1011.059	-864
1011.132	-1616
1011.205	-164
1011.278	-1022
1011.351	-1034
1011.424	-1403
1011.497	-1902
1011.570	-1182
1011.643	-1309
1011.716	-1805
1011.789	-1218
1011.862	-1499
1011.934	-485
1012.007	-2618
1012.080	-1332
1012.153	-1118
1012.225	-718
1012.298	-1360
1012.371	-1225
1012.443	-1475
1012.516	-1810
1012.588	-1724
1012.661	-556
1012.733	-1170
1012.806	-1004
1012.879	-1264
1012.951	-780
1013.023	-1547
1013.096	-292
1013.168	-1186
1013.241	-288
1013.313	-1023
1013.385	-1848
1013.458	-1520
1013.530	-1166
1013.602	-1918
1013.674	-667
1013.746	-2109
1013.819	-1344
1013.891	-1170
1013.963	-1093
1014.035	-1417
1014.107	-1700
1014.179	-1689
1014.251	-2147
1014.323	-1128
1014.395	-1452
1014.467	-2042
1014.539	-1202
1014.611	-2477
1014.683	-1458
1014.754	-1272
1014.826	-2343
1014.898	-1269
1014.970	-1674
1015.042	-474
1015.113	-1001
1015.185	-520
1015.257	-2237
1015.328	-1097
1015.400	-1620
1015.471	-709
1015.543	-1652
1015.615	-1029
1015.686	-1006
1015.757	-1264
1015.829	-518
1015.901	-1792
1015.972	-2109
1016.043	-1385
1016.115	-856
1016.186	-1919
1016.257	-2110
1016.328	-1182
1016.400	-460
1016.471	-2131
1016.542	-1368
1016.613	-1783
1016.685	-1016
1016.756	-1856
1016.827	-753
1016.898	-2258
1016.969	-1608
1017.040	-1592
1017.111	-943
1017.182	-1765
1017.253	-1235
1017.324	-1822
1017.395	-1787
1017.466	-1636
1017.537	-1645
1017.608	-1953
1017.678	-1196
1017.749	-802
1017.820	-915
1017.891	-2590
1017.961	-1561
1018.032	-1623
1018.103	-1156
1018.173	-1627
1018.244	-1619
1018.315	-1692
1018.385	-950
1018.456	-1804
1018.526	-1936
1018.597	-1989
1018.667	-1343
1018.738	-2341
1018.808	-1005
1018.878	-2107
1018.949	-1324
1019.019	-1503
1019.089	-1253
1019.160	-2002
1019.230	-2088
1019.300	-2001
1019.371	-1382
1019.441	-1354
1019.511	-1445
1019.581	-2554
1019.651	-1602
1019.721	-2056
1019.791	-1922
1019.861	-1390
1019.931	-2037
1020.001	-1957
1020.071	-1544
1020.141	-1757
1020.211	-1443
1020.281	-2445
1020.351	-2066
1020.421	-2220
1020.491	-515
1020.560	-2928
1020.630	-916
1020.700	-2440
1020.770	-1537
1020.839	-1828
1020.909	-1420
1020.979	-1916
1021.048	-990
1021.118	-1808
1021.187	-1398
1021.257	-1329
1021.326	-614
1021.396	-2188
1021.465	-1241
1021.535	-2383
1021.604	-2024
1021.674	-2172
1021.743	-1222
1021.812	-2147
1021.882	-1077
1021.951	-2557
1022.020	-1308
1022.089	-1538
1022.159	-1288
1022.228	-1633
1022.297	-1227
1022.366	-1868
1022.435	-1702
1022.504	-1497
1022.573	-2146
1022.642	-1128
1022.711	-1718
1022.781	-1899
1022.849	-1576
1022.918	-2842
1022.987	-1700
1023.056	-2223
1023.125	-1358
1023.194	-2271
1023.263	-1265
1023.331	-1107
1023.400	-2099
1023.469	-1749
1023.538	-1257
1023.606	-2703
1023.675	-1491
1023.744	-2231
1023.812	-1919
1023.881	-2090
1023.949	-2079
1024.018	-1332
1024.086	-2104
1024.155	-1518
1024.223	-1149
1024.292	-1581
1024.360	-1712
1024.429	-1862
1024.497	-1499
1024.565	-2153
1024.634	-1470
1024.702	-1897
1024.770	-1406
1024.838	-1609
1024.907	-1732
1024.975	-2524
1025.043	-1548
1025.111	-2220
1025.179	-1468
1025.247	-1678
1025.315	-1936
1025.383	-2643
1025.451	-946
1025.519	-1953
1025.587	-1846
1025.655	-1853
1025.723	-1543
1025.791	-1647
1025.859	-2608
1025.927	-1529
1025.995	-1568
1026.062	-1851
1026.130	-1564
1026.198	-2328
1026.266	-1633
1026.333	-989
1026.401	-1419
1026.469	-1738
1026.536	-2391
1026.604	-2210
1026.671	-1836
1026.739	-1564
1026.806	-1796
1026.874	-1893
1026.941	-1826
1027.009	-1961
1027.076	-1993
1027.144	-1727
1027.211	-1404
1027.278	-2381
1027.345	-2323
1027.413	-2020
1027.480	-2081
1027.547	-2167
1027.614	-1527
1027.682	-1742
1027.749	-2608
1027.816	-2091
1027.883	-1909
1027.950	-2981
1028.017	-1926
1028.084	-2103
1028.151	-1044
1028.218	-2001
1028.285	-1766
1028.352	-2897
1028.419	-2172
1028.486	-2645
1028.553	-234
1028.619	-1989
1028.686	-1405
1028.753	-2128
1028.820	-724
1028.886	-2152
1028.953	-2356
1029.020	-2236
1029.086	-1681
1029.153	-2151
1029.220	-2545
1029.286	-2032
1029.353	-1467
1029.419	-2565
1029.486	-1791
1029.552	-2512
1029.619	-1657
1029.685	-2885
1029.751	-1201
1029.818	-1133
1029.884	-2063
1029.951	-1245
1030.017	-1041
1030.083	-2189
1030.149	-1786
1030.216	-2222
1030.282	-1673
1030.348	-2237
1030.414	-2534
1030.480	-2090
1030.546	-1329
1030.612	-1819
1030.678	-2193
1030.744	-2585
1030.810	-1362
1030.876	-2514
1030.942	-1169
1031.008	-1989
1031.074	-2706
1031.140	-2086
1031.206	-933
1031.272	-2112
1031.337	-1886
1031.403	-2024
1031.469	-2338
1031.534	-2152
1031.600	-1195
1031.666	-1489
1031.731	-2354
1031.797	-2155
1031.863	-2186
1031.928	-1607
1031.994	-2138
1032.059	-2713
1032.125	-2103
1032.190	-1736
1032.256	-1175
1032.321	-2237
1032.386	-2106
1032.452	-1535
1032.517	-1198
1032.582	-1523
1032.647	-1896
1032.713	-2282
1032.778	-1566
1032.843	-1549
1032.908	-1676
1032.974	-1374
1033.039	-1969
1033.104	-2139
1033.169	-2118
1033.234	-1300
1033.299	-1205
1033.364	-2543
1033.429	-2169
1033.494	-1497
1033.559	-1600
1033.624	-1976
1033.688	-1028
1033.753	-1876
1033.818	-1204
1033.883	-1802
1033.948	-31
1034.013	-979
1034.077	107
1034.142	544
1034.207	1279
1034.271	2241
1034.336	3448
1034.400	1002
1034.465	226
1034.530	-1651
1034.594	-1372
1034.658	-2221
1034.723	-1762
1034.787	-1079
1034.852	-2021
1034.916	-2166
1034.981	-2657
1035.045	-2545
1035.109	-1515
1035.173	-1958
1035.238	-2128
1035.302	-2374
1035.366	-1217
1035.430	-2607
1035.495	-1381
1035.559	-1327
1035.623	-1438
1035.687	-2022
1035.751	-986
1035.815	-2325
1035.879	-1695
1035.943	-1651
1036.007	-1216
1036.071	-2455
1036.135	-745
1036.198	-2723
1036.262	-2014
1036.326	-2406
1036.390	-1166
1036.454	-2154
1036.517	-2049
1036.581	-2501
1036.645	-2107
1036.709	-2663
1036.772	-2347
1036.836	-2011
1036.900	-1795
1036.963	-2244
1037.026	-863
1037.090	-2967
1037.154	-2067
1037.217	-2213
1037.280	-2531
1037.344	-2443
1037.407	-2585
1037.471	-2028
1037.534	-1254
1037.597	-2131
1037.661	-1053
1037.724	-1323
1037.787	-1905
1037.850	-2356
1037.913	-1385
1037.977	-969
1038.040	-1903
1038.103	-2196
1038.166	-2050
1038.229	-1774
1038.292	-2348
1038.355	-2375
1038.418	-1680
1038.481	-1632
1038.544	-1587
1038.607	-2732
1038.670	-1888
1038.732	-2242
1038.795	-1854
1038.858	-2363
1038.921	-1525
1038.984	-2258
1039.046	-2145
1039.109	-2601
1039.172	-1590
1039.234	-2555
1039.297	-2048
1039.360	-2106
1039.422	-2185
1039.485	-1663
1039.547	-2313
1039.610	-1143
1039.672	-1114
1039.734	-2353
1039.797	-2382
1039.859	-2204
1039.922	-1630
1039.984	-2534
1040.046	-1852
1040.109	-1835
1040.171	-2252
1040.233	-2403
1040.295	-1959
1040.358	-2060
1040.420	-1446
1040.482	-2498
1040.544	-1750
1040.606	-2874
1040.668	-1853
1040.730	-1942
1040.792	-1836
1040.854	-2185
1040.916	-1919
1040.978	-1702
1041.040	-1311
1041.102	-2276
1041.164	-1779
1041.225	-1882
1041.287	-2019
1041.349	-2358
1041.411	-2792
1041.472	-2685
1041.534	-1794
1041.596	-2239
1041.657	-1792
1041.719	-2338
1041.781	-2083
1041.842	-2041
1041.904	-1152
1041.965	-1466
1042.027	-2181
1042.088	-2710
1042.150	-2458
1042.211	-2340
1042.272	-177
1042.334	-2418
1042.395	-1750
1042.456	-2327
1042.518	-1873
1042.579	-1519
1042.640	-2701
1042.701	-3027
1042.763	-1836
1042.824	-2726
1042.885	-1604
1042.946	-2499
1043.007	-1695
1043.068	-1880
1043.129	-1978
1043.190	-1941
1043.251	-1584
1043.312	-2793
1043.373	-1680
1043.434	-2612
1043.495	-2050
1043.556	-2115
1043.616	-2007
1043.677	-2084
1043.738	-1658
1043.799	-2480
1043.859	-2325
1043.920	-2009
1043.981	-2312
1044.041	-2234
1044.102	-1847
1044.162	-2111
1044.223	-2123
1044.284	-2609
1044.344	-2541
1044.405	-2356
1044.465	-1633
1044.525	-2200
1044.586	-2140
1044.646	-2267
1044.707	-1433
1044.767	-2620
1044.827	-1871
1044.887	-2113
1044.948	-2489
1045.008	-2262
1045.068	-1673
1045.128	-1959
1045.188	-1473
1045.249	-1937
1045.309	-2010
1045.369	-3243
1045.429	-930
1045.489	-2141
1045.549	-1401
1045.609	-2248
1045.669	-1988
1045.729	-1953
1045.789	-2856
1045.848	-2309
1045.908	-1300
1045.968	-2154
1046.028	-2059
1046.088	-1740
1046.147	-1240
1046.207	-2184
1046.267	-1567
1046.326	-1841
1046.386	-1872
1046.446	-1224
1046.505	-1011
1046.565	-878
1046.624	-1169
1046.684	-1042
1046.743	-1451
1046.803	-821
1046.862	-306
1046.922	0
