'Start Wavelength	183.907
'End Wavelength	1046.922
'Gate Delay	5.000
'Gate Width (ms)	1.050
'Laser Output Level	0.000
'X Position	0.000
'Y Position	0.000
'Z Position	0.000
'Grid Point Number	1.000
'Shot Number	100.000
183.907	195.000
183.977	-943.000
184.047	299
184.116	-29
184.186	22
184.256	-888
184.325	-393
184.395	-1386
184.465	568
184.534	-43
184.604	-566
184.674	-66
184.743	-335
184.813	238
184.883	-94
184.952	-229
185.022	-265
185.092	-83
185.161	-545
185.231	-277
185.301	-403
185.370	219
185.440	-884
185.509	78
185.579	103
185.649	229
185.718	-99
185.788	-54
185.857	-626
185.927	-905
185.996	-96
186.066	-387
186.136	218
186.205	-601
186.275	-798
186.344	185
186.414	-354
186.483	-611
186.553	129
186.622	-242
186.692	-582
186.761	-1683
186.831	-132
186.900	-737
186.970	175
187.039	-86
187.109	-358
187.178	-298
187.248	55
187.317	-906
187.387	-535
187.456	281
187.526	-86
187.595	-472
187.664	457
187.734	-556
187.803	-459
187.873	56
187.942	-381
188.012	-370
188.081	-104
188.150	-653
188.220	-287
188.289	-535
188.358	-720
188.428	120
188.497	-1300
188.567	279
188.636	-1005
188.705	106
188.775	-327
188.844	-777
188.913	465
188.983	-617
189.052	-390
189.121	-496
189.191	20
189.260	547
189.329	-613
189.399	-702
189.468	207
189.537	-562
189.606	-868
189.676	-391
189.745	-169
189.814	30
189.883	-677
189.953	-662
190.022	-19
190.091	-1138
190.161	-731
190.230	-329
190.299	-472
190.368	-1053
190.437	-513
190.507	-259
190.576	-183
190.645	30
190.714	-275
190.783	-1154
190.853	47
190.922	-495
190.991	-282
191.060	80
191.129	-1460
191.198	689
191.268	-121
191.337	55
191.406	306
191.475	-304
191.544	-175
191.613	-546
191.682	-1093
191.752	-291
191.821	-366
191.890	-165
191.959	-246
192.028	-310
192.097	-148
192.166	-744
192.235	-982
192.304	88
192.373	-359
192.442	-543
192.511	-436
192.580	-510
192.650	279
192.719	228
192.788	163
192.857	-948
192.926	-781
192.995	-332
193.064	-342
193.133	-357
193.202	-1065
193.271	-313
193.340	-486
193.409	-649
193.478	-545
193.547	-433
193.615	-549
193.684	81
193.753	-1300
193.822	-711
193.891	-607
193.960	-662
194.029	-496
194.098	-64
194.167	-992
194.236	-63
194.305	-269
194.374	-532
194.443	-235
194.512	-864
194.580	-400
194.649	111
194.718	-667
194.787	-196
194.856	403
194.925	61
194.994	-480
195.062	-384
195.131	-336
195.200	-99
195.269	-887
195.338	-615
195.407	280
195.475	-1
195.544	409
195.613	-384
195.682	-440
195.751	-1176
195.819	-505
195.888	-149
195.957	712
196.026	-432
196.094	582
196.163	-719
196.232	-599
196.301	-899
196.369	-766
196.438	-635
196.507	-586
196.576	-1210
196.644	-331
196.713	-68
196.782	-377
196.850	-274
196.919	-551
196.988	-1289
197.056	-462
197.125	-663
197.194	-451
197.262	-1020
197.331	-167
197.400	-772
197.468	202
197.537	-998
197.606	-31
197.674	230
197.743	-387
197.812	-342
197.880	-385
197.949	-589
198.017	-61
198.086	-589
198.155	-336
198.223	-129
198.292	69
198.360	-1126
198.429	-699
198.497	-1245
198.566	-514
198.635	-791
198.703	-286
198.772	-1
198.840	-852
198.909	-748
198.977	-788
199.046	-168
199.114	-411
199.183	-1089
199.251	307
199.320	148
199.388	-969
199.457	-551
199.525	-241
199.594	-855
199.662	-91
199.731	-1005
199.799	-796
199.867	-619
199.936	-612
200.004	257
200.073	-304
200.141	-1071
200.210	117
200.278	-400
200.346	137
200.415	207
200.483	-639
200.552	-361
200.620	-489
200.688	-102
200.757	-717
200.825	-792
200.893	-142
200.962	-1103
201.030	-187
201.098	-255
201.167	-10
201.235	-539
201.303	-441
201.372	183
201.440	473
201.508	-954
201.577	-307
201.645	770
201.713	-196
201.781	-879
201.850	-286
201.918	-371
201.986	-593
202.055	-95
202.123	-8
202.191	-1024
202.259	-246
202.327	-88
202.396	-538
202.464	-995
202.532	-241
202.600	-162
202.669	-729
202.737	-975
202.805	-340
202.873	-474
202.941	-246
203.009	-574
203.078	-454
203.146	-984
203.214	166
203.282	-1391
203.350	444
203.418	-472
203.487	-110
203.555	-404
203.623	-269
203.691	-502
203.759	-701
203.827	-1089
203.895	-696
203.963	-898
204.031	-673
204.099	-1295
204.168	-964
204.236	-881
204.304	-1144
204.372	-128
204.440	-169
204.508	-853
204.576	-808
204.644	-441
204.712	-750
204.780	-562
204.848	-600
204.916	-1169
204.984	-399
205.052	-571
205.120	53
205.188	-563
205.256	-543
205.324	-319
205.392	-48
205.460	-560
205.528	-496
205.596	-442
205.664	-454
205.732	-371
205.799	291
205.867	-381
205.935	-722
206.003	516
206.071	-496
206.139	-1261
206.207	-1031
206.275	-151
206.343	-821
206.411	-338
206.478	-153
206.546	-564
206.614	0
206.682	-805
206.750	-904
206.818	-663
206.885	453
206.953	-1664
207.021	849
207.089	-427
207.157	-1078
207.225	-962
207.292	-831
207.360	-714
207.428	-1161
207.496	-1294
207.563	1
207.631	-138
207.699	-1087
207.767	-390
207.834	-108
207.902	-762
207.970	-1310
208.038	-180
208.105	86
208.173	-335
208.241	-300
208.309	2
208.376	-206
208.444	-413
208.512	-1006
208.579	-1357
208.647	116
208.715	446
208.782	-162
208.850	-509
208.918	-287
208.985	-140
209.053	-639
209.120	-306
209.188	-713
209.256	-264
209.323	-1182
209.391	-840
209.459	-150
209.526	-3
209.594	-1676
209.661	-764
209.729	-414
209.796	315
209.864	-179
209.932	-2014
209.999	1132
210.067	-392
210.134	-695
210.202	-611
210.269	21
210.337	214
210.404	-429
210.472	-1279
210.539	-78
210.607	-678
210.674	-509
210.742	-888
210.809	-1278
210.877	-434
210.944	166
211.012	-1840
211.079	530
211.146	-457
211.214	-123
211.281	-858
211.349	-353
211.416	-629
211.484	-499
211.551	-680
211.618	-737
211.686	-660
211.753	-1103
211.821	-172
211.888	-320
211.955	49
212.023	-1352
212.090	-768
212.157	-572
212.225	27
212.292	436
212.359	-874
212.427	-818
212.494	-405
212.561	-650
212.629	-98
212.696	-1057
212.763	-79
212.831	-1072
212.898	-497
212.965	-837
213.032	48
213.100	-274
213.167	-1042
213.234	-495
213.301	-1214
213.369	-136
213.436	-741
213.503	-648
213.570	-951
213.638	-585
213.705	-1434
213.772	-1068
213.839	-973
213.906	179
213.973	-968
214.041	-1066
214.108	591
214.175	-606
214.242	-1250
214.309	-958
214.376	-773
214.444	-422
214.511	-987
214.578	-985
214.645	-638
214.712	147
214.779	-569
214.846	-1510
214.913	-295
214.980	-614
215.048	-446
215.115	-850
215.182	-1095
215.249	-1085
215.316	-1199
215.383	267
215.450	-951
215.517	-1043
215.584	-825
215.651	-904
215.718	-1035
215.785	-1083
215.852	-1044
215.919	640
215.986	-968
216.053	-416
216.120	-897
216.187	-934
216.254	83
216.321	-1632
216.388	-615
216.455	-181
216.522	-643
216.589	-955
216.656	-696
216.722	-1113
216.789	-108
216.856	74
216.923	-877
216.990	-104
217.057	-467
217.124	-707
217.191	-1443
217.258	-42
217.324	-987
217.391	-693
217.458	-932
217.525	-384
217.592	-222
217.659	-1570
217.725	-42
217.792	-1243
217.859	18
217.926	-834
217.993	-1142
218.059	-488
218.126	-914
218.193	-1262
218.260	-1046
218.327	-818
218.393	-649
218.460	-1280
218.527	-652
218.594	-664
218.660	-1788
218.727	-53
218.794	-1081
218.860	86
218.927	-1067
218.994	-587
219.061	-1070
219.127	-1296
219.194	-1041
219.261	-1073
219.327	-1345
219.394	138
219.461	-1338
219.527	98
219.594	-591
219.661	-1288
219.727	-1957
219.794	74
219.860	-1742
219.927	102
219.994	-1251
220.060	-807
220.127	-731
220.193	-253
220.260	-348
220.326	-106
220.393	-901
220.460	-454
220.526	-511
220.593	-1981
220.659	419
220.726	-425
220.792	-322
220.859	-1627
220.925	-1154
220.992	-677
221.058	-262
221.125	-848
221.191	-648
221.258	-471
221.324	-559
221.391	-1199
221.457	142
221.524	-785
221.590	182
221.657	448
221.723	-1014
221.789	-1791
221.856	267
221.922	-1068
221.989	50
222.055	-430
222.121	-1754
222.188	480
222.254	10
222.321	-976
222.387	-1094
222.453	-63
222.520	-882
222.586	-586
222.652	-610
222.719	-1319
222.785	-208
222.851	-1371
222.918	-552
222.984	-854
223.050	-1342
223.116	-1862
223.183	282
223.249	-397
223.315	-544
223.382	-1006
223.448	-528
223.514	-719
223.580	-1337
223.647	-522
223.713	-1197
223.779	-282
223.845	-555
223.911	-411
223.978	-665
224.044	40
224.110	-1094
224.176	-763
224.242	-795
224.309	-2007
224.375	-300
224.441	-650
224.507	-618
224.573	-1666
224.639	-235
224.705	-811
224.772	-723
224.838	-1124
224.904	-762
224.970	-1307
225.036	-630
225.102	-1176
225.168	-821
225.234	-347
225.300	-978
225.366	-852
225.432	-852
225.499	-333
225.565	-352
225.631	-936
225.697	-574
225.763	-659
225.829	-1270
225.895	-429
225.961	-1438
226.027	-542
226.093	-1858
226.159	311
226.225	110
226.291	-711
226.357	-446
226.423	-224
226.489	-723
226.554	-720
226.620	-971
226.686	-949
226.752	-837
226.818	-517
226.884	-626
226.950	-419
227.016	-449
227.082	-202
227.148	-1038
227.214	-9
227.279	-1007
227.345	-693
227.411	-632
227.477	-914
227.543	-928
227.609	-793
227.674	-403
227.740	-1211
227.806	-138
227.872	-1076
227.938	-1001
228.003	-1146
228.069	-1170
228.135	-920
228.201	-18
228.267	-888
228.332	-1052
228.398	-1552
228.464	-281
228.530	-488
228.595	-744
228.661	-1280
228.727	-1354
228.792	-55
228.858	-1280
228.924	-2515
228.990	826
229.055	-1627
229.121	-806
229.187	-1473
229.252	-950
229.318	-969
229.384	-569
229.449	-1206
229.515	-2803
229.581	-1099
229.646	629
229.712	-626
229.777	-847
229.843	-1166
229.909	-1024
229.974	-30
230.040	-725
230.105	-371
230.171	-2087
230.236	-317
230.302	-1433
230.368	-1275
230.433	-1370
230.499	-197
230.564	-472
230.630	-1245
230.695	-778
230.761	289
230.826	-2825
230.892	606
230.957	-1643
231.023	-304
231.088	-744
231.154	-1073
231.219	557
231.284	-1033
231.350	-373
231.415	-1207
231.481	-650
231.546	-237
231.612	-928
231.677	-652
231.742	-2167
231.808	320
231.873	-584
231.939	-2498
232.004	-34
232.069	359
232.135	-1044
232.200	-959
232.265	-281
232.331	-1430
232.396	-319
232.461	-1439
232.527	-1169
232.592	-1692
232.657	-1598
232.723	-1069
232.788	-1069
232.853	-760
232.918	-1300
232.984	-1192
233.049	-1356
233.114	-1584
233.179	-913
233.245	-334
233.310	-589
233.375	-1825
233.440	-845
233.506	-1427
233.571	-1481
233.636	-695
233.701	-781
233.766	-1136
233.832	-933
233.897	-572
233.962	-2870
234.027	-267
234.092	40
234.157	-1624
234.222	-1298
234.288	-1078
234.353	-1422
234.418	-773
234.483	721
234.548	-1016
234.613	-656
234.678	-1056
234.743	-1762
234.808	402
234.873	-1736
234.938	414
235.004	-1273
235.069	-1290
235.134	-1691
235.199	-423
235.264	-931
235.329	-1769
235.394	-213
235.459	150
235.524	-2043
235.589	-224
235.654	-1818
235.719	-1332
235.784	-357
235.849	-765
235.913	-1038
235.978	-286
236.043	-360
236.108	-915
236.173	-1415
236.238	-344
236.303	-1503
236.368	-1780
236.433	30
236.498	-1270
236.563	-1082
236.627	-224
236.692	-396
236.757	-754
236.822	-563
236.887	-1387
236.952	411
237.017	-1805
237.081	357
237.146	-2003
237.211	-274
237.276	391
237.341	455
237.405	-1395
237.470	-878
237.535	-857
237.600	-758
237.664	-1172
237.729	-1401
237.794	-1959
237.859	679
237.923	137
237.988	-991
238.053	-390
238.118	-227
238.182	-1096
238.247	558
238.312	-1885
238.376	-524
238.441	-2002
238.506	471
238.570	-1964
238.635	750
238.700	-730
238.764	-1441
238.829	-729
238.893	-1722
238.958	-2
239.023	-1702
239.087	-644
239.152	-149
239.216	-1923
239.281	-692
239.346	-816
239.410	-1573
239.475	-959
239.539	-729
239.604	-2139
239.668	157
239.733	-876
239.797	-581
239.862	-1198
239.926	-1335
239.991	-136
240.055	-449
240.120	-1263
240.184	-628
240.249	-965
240.313	-1569
240.378	-595
240.442	-1602
240.507	-1296
240.571	-904
240.635	-1135
240.700	-905
240.764	-813
240.829	-1125
240.893	-2119
240.957	-20
241.022	-204
241.086	-165
241.151	-1913
241.215	-1701
241.279	-243
241.344	-1984
241.408	-437
241.472	-1478
241.537	6
241.601	-1163
241.665	-1910
241.730	-1327
241.794	443
241.858	-1434
241.922	-295
241.987	-582
242.051	-1529
242.115	-2354
242.179	-955
242.244	-1161
242.308	-310
242.372	-1030
242.436	-1451
242.501	-1105
242.565	-1571
242.629	-1478
242.693	-72
242.757	-1384
242.822	-1606
242.886	-558
242.950	742
243.014	-1931
243.078	-622
243.142	-1328
243.206	-1532
243.271	-351
243.335	-1220
243.399	312
243.463	-1961
243.527	-250
243.591	-1301
243.655	-757
243.719	-1422
243.783	-326
243.847	-1626
243.911	-708
243.975	-1323
244.040	-2442
244.104	113
244.168	-1032
244.232	-1406
244.296	-1747
244.360	-996
244.424	-1930
244.488	-282
244.552	-943
244.615	-2697
244.679	-218
244.743	-1346
244.807	-2157
244.871	-1262
244.935	-247
244.999	-2225
245.063	-1463
245.127	372
245.191	-1420
245.255	-1037
245.319	-497
245.383	-2561
245.446	-341
245.510	-1677
245.574	-540
245.638	-500
245.702	-2531
245.766	-948
245.829	-921
245.893	-1841
245.957	-1736
246.021	71
246.085	-1139
246.149	-1305
246.212	-103
246.276	-2120
246.340	-1758
246.404	-1156
246.467	-320
246.531	-2925
246.595	256
246.659	-206
246.722	-1758
246.786	-867
246.850	-1347
246.913	-1696
246.977	-1538
247.041	-717
247.104	-1705
247.168	-892
247.232	-1002
247.295	-1658
247.359	-1273
247.423	-1642
247.486	-779
247.550	-219
247.614	-1677
247.677	-1843
247.741	-1536
247.804	-953
247.868	-1311
247.932	-983
247.995	-621
248.059	-1120
248.122	-2172
248.186	-145
248.249	-1072
248.313	-312
248.376	-258
248.440	-1968
248.503	-2272
248.567	-36
248.630	-2410
248.694	-1019
248.757	-706
248.821	-888
248.884	618
248.948	-1994
249.011	-600
249.075	-530
249.138	-62
249.202	-494
249.265	-1403
249.328	-571
249.392	-2199
249.455	-315
249.519	-1004
249.582	-1046
249.645	-995
249.709	-1232
249.772	-920
249.835	-1010
249.899	-851
249.962	-906
250.025	-1373
250.089	-741
250.152	93
250.215	-1042
250.279	-992
250.342	-982
250.405	-395
250.468	-1486
250.532	-1525
250.595	-412
250.658	-2138
250.721	-57
250.785	-1642
250.848	638
250.911	-1806
250.974	-69
251.038	-2075
251.101	-364
251.164	-1347
251.227	-185
251.290	-950
251.354	-260
251.417	-742
251.480	-196
251.543	-580
251.606	783
251.669	508
251.732	-65
251.795	-420
251.859	-270
251.922	-116
251.985	-763
252.048	-193
252.111	-330
252.174	-1951
252.237	-1218
252.300	-396
252.363	-513
252.426	1362
252.489	-1256
252.552	-415
252.615	-1210
252.678	-229
252.741	-263
252.804	-1266
252.867	526
252.930	-479
252.993	-739
253.056	-711
253.119	-1505
253.182	-1508
253.245	-1232
253.308	-52
253.371	-601
253.434	-1492
253.497	-908
253.559	-255
253.622	-635
253.685	-1491
253.748	-536
253.811	-927
253.874	-200
253.937	-1073
254.000	-762
254.062	-1338
254.125	-1214
254.188	-255
254.251	-1589
254.314	-1135
254.376	-1969
254.439	-842
254.502	-1146
254.565	-1436
254.628	-823
254.690	-1124
254.753	-1667
254.816	-1095
254.878	-1184
254.941	-1065
255.004	-153
255.067	-1442
255.129	-1083
255.192	-779
255.255	-1949
255.317	-124
255.380	-1045
255.443	-1517
255.505	-1529
255.568	-1522
255.631	-1765
255.693	-1882
255.756	-1430
255.819	-622
255.881	-1511
255.944	-806
256.006	-1079
256.069	-1351
256.132	-995
256.194	-1319
256.257	-858
256.319	-709
256.382	-1744
256.444	-881
256.507	-618
256.569	-2035
256.632	-693
256.694	-2116
256.757	-48
256.819	209
256.882	-1403
256.944	-996
257.007	-642
257.069	-1448
257.132	-1444
257.194	-812
257.257	-1701
257.319	-2399
257.381	-1907
257.444	-659
257.506	-691
257.569	995
257.631	-1163
257.693	-469
257.756	-289
257.818	-1954
257.880	-1325
257.943	-832
258.005	-1440
258.067	-965
258.130	-1653
258.192	-1131
258.254	-1301
258.317	-1351
258.379	-883
258.441	-2054
258.503	-372
258.566	-1403
258.628	-845
258.690	-2456
258.753	-363
258.815	-1857
258.877	-2020
258.939	-947
259.001	-728
259.064	-1433
259.126	-1500
259.188	-1482
259.250	-998
259.312	-1310
259.375	-956
259.437	-1321
259.499	-847
259.561	-2056
259.623	-948
259.685	-1205
259.747	-1128
259.809	-1398
259.872	-1139
259.934	-671
259.996	-337
260.058	-1133
260.120	-2558
260.182	-1419
260.244	-818
260.306	-1433
260.368	-1397
260.430	-1920
260.492	-1229
260.554	-1573
260.616	-1289
260.678	-2283
260.740	-834
260.802	-1990
260.864	-953
260.926	-2033
260.988	89
261.050	-1871
261.112	-1584
261.174	-339
261.236	-618
261.298	-714
261.359	-1233
261.421	-517
261.483	-1799
261.545	-1509
261.607	-2317
261.669	-744
261.731	-776
261.793	-791
261.854	-2090
261.916	-1515
261.978	-907
262.040	-1739
262.102	-1235
262.164	-1888
262.225	-726
262.287	-1030
262.349	-2039
262.411	-1041
262.472	-673
262.534	-1847
262.596	-1861
262.658	-1887
262.719	-1070
262.781	-926
262.843	-1211
262.904	-589
262.966	-612
263.028	-1372
263.090	-1117
263.151	-1051
263.213	-830
263.275	-1458
263.336	-1750
263.398	-996
263.459	-1582
263.521	-1236
263.583	-991
263.644	-1312
263.706	-967
263.767	-1514
263.829	-369
263.891	-1875
263.952	-2138
264.014	-1549
264.075	-1293
264.137	-1246
264.198	20
264.260	-1752
264.321	-1490
264.383	-1210
264.444	-276
264.506	-1472
264.567	-1368
264.629	-1214
264.690	-2277
264.752	-587
264.813	-1530
264.875	-1523
264.936	-803
264.998	-1243
265.059	-1099
265.120	-1270
265.182	-1651
265.243	-391
265.305	-834
265.366	-1443
265.427	-1024
265.489	-629
265.550	-1967
265.611	-1444
265.673	-1566
265.734	-2353
265.795	-534
265.857	-1857
265.918	-2250
265.979	-871
266.040	-549
266.102	-972
266.163	-554
266.224	-1843
266.286	-952
266.347	-2272
266.408	-1404
266.469	-856
266.530	-1198
266.592	-1511
266.653	-1090
266.714	-1331
266.775	-1741
266.836	-1148
266.898	-1960
266.959	-1701
267.020	-1689
267.081	-169
267.142	-1980
267.203	-1636
267.264	-1391
267.326	-766
267.387	-1726
267.448	-1691
267.509	-1729
267.570	-1297
267.631	-1390
267.692	-2781
267.753	-849
267.814	-2801
267.875	-1168
267.936	-1396
267.997	-1498
268.058	-516
268.119	-2372
268.180	-1797
268.241	-1443
268.302	-1331
268.363	-1779
268.424	-1706
268.485	-975
268.546	-1898
268.607	-1338
268.668	-1667
268.729	-1218
268.790	-1701
268.851	-1551
268.912	-1246
268.972	-1789
269.033	-1965
269.094	-1706
269.155	-1952
269.216	-1533
269.277	-1236
269.338	-527
269.398	-1759
269.459	-1216
269.520	-1388
269.581	-1295
269.642	-1736
269.702	-2144
269.763	-2140
269.824	-1544
269.885	-980
269.945	-1416
270.006	-1245
270.067	-2446
270.128	-1454
270.188	-2006
270.249	-2399
270.310	-1552
270.370	-1517
270.431	-1618
270.492	-1526
270.553	-1958
270.613	-1683
270.674	-1067
270.734	-1805
270.795	-788
270.856	-2232
270.916	-2106
270.977	-2031
271.038	-500
271.098	-2090
271.159	-1584
271.219	-2221
271.280	-1308
271.340	-1078
271.401	-1228
271.462	-1649
271.522	-1773
271.583	-1316
271.643	-1830
271.704	-1226
271.764	-1365
271.825	-1797
271.885	-921
271.946	-654
272.006	-1423
272.066	-902
272.127	-967
272.187	-1792
272.248	-1341
272.308	-1912
272.369	-964
272.429	-1093
272.489	-1617
272.550	-1914
272.610	-440
272.671	-1871
272.731	-1599
272.791	-1320
272.852	-2333
272.912	-945
272.972	-1217
273.033	-1678
273.093	-1665
273.153	-764
273.214	-1157
273.274	-1364
273.334	-1404
273.394	-1268
273.455	-1089
273.515	-1820
273.575	-1469
273.635	-964
273.696	-458
273.756	-1469
273.816	-1969
273.876	-1305
273.936	-1139
273.997	-1221
274.057	-1477
274.117	-2731
274.177	-1864
274.237	-1563
274.297	-335
274.358	-1624
274.418	-1652
274.478	-798
274.538	-1805
274.598	-2778
274.658	-1186
274.718	-1050
274.778	-1161
274.838	-1639
274.898	-1751
274.958	-1774
275.018	-212
275.078	-931
275.138	-1119
275.198	-1750
275.258	-1756
275.318	-1809
275.378	-1166
275.438	-1521
275.498	-957
275.558	-1611
275.618	-804
275.678	-1157
275.738	-1149
275.798	-1848
275.858	-1587
275.918	-1507
275.978	-2148
276.038	-1052
276.098	-1653
276.157	-1736
276.217	-409
276.277	-1582
276.337	-1921
276.397	-2041
276.457	-1109
276.517	-1381
276.576	-883
276.636	-1387
276.696	-2182
276.756	-1206
276.815	-2052
276.875	-1572
276.935	-1333
276.995	-529
277.055	-1798
277.114	-1149
277.174	-918
277.234	-1147
277.293	-1476
277.353	-1866
277.413	-1092
277.472	-1147
277.532	-1331
277.592	-1148
277.651	-577
277.711	-1369
277.771	-1651
277.830	-255
277.890	-448
277.950	-885
278.009	259
278.069	-54
278.128	-997
278.188	-313
278.248	-455
278.307	-462
278.367	-290
278.426	-973
278.486	-1231
278.545	-2176
278.605	-1835
278.664	-1205
278.724	-811
278.783	-1244
278.843	-551
278.902	-1047
278.962	-1148
279.021	-1345
279.081	-1011
279.140	-1017
279.199	-1781
279.259	-1225
279.318	-478
279.378	-833
279.437	-700
279.496	-75
279.556	6231
279.615	5464
279.675	-3
279.734	-889
279.793	-723
279.853	-495
279.912	-884
279.971	-889
280.031	-581
280.090	-636
280.149	-34
280.208	-985
280.268	2968
280.327	4227
280.386	-718
280.445	-164
280.505	-1278
280.564	-767
280.623	-1431
280.682	-591
280.742	-1391
280.801	-1156
280.860	-1746
280.919	-1689
280.978	-1388
281.037	-1957
281.097	-1919
281.156	-1227
281.215	-1561
281.274	-2231
281.333	-510
281.392	-1277
281.451	-1125
281.510	-1643
281.569	-928
281.628	-466
281.688	-1361
281.747	-1411
281.806	-1063
281.865	-1722
281.924	-1235
281.983	-1430
282.042	-1362
282.101	-1224
282.160	-363
282.219	-1079
282.278	-1126
282.337	-1688
282.396	-1084
282.454	-1114
282.513	-1118
282.572	-1383
282.631	-1239
282.690	-1661
282.749	-2132
282.808	-1214
282.867	-1285
282.926	-1306
282.985	-1530
283.043	-1364
283.102	-1643
283.161	-2444
283.220	-1422
283.279	-1080
283.338	-1568
283.396	-2116
283.455	-1589
283.514	-1668
283.573	-714
283.631	-2004
283.690	-1583
283.749	-1211
283.808	-992
283.866	-608
283.925	-1905
283.984	-1398
284.043	-1803
284.101	-1028
284.160	-1294
284.219	-1401
284.277	-1764
284.336	-1832
284.395	-829
284.453	-517
284.512	-490
284.570	-834
284.629	-920
284.688	-753
284.746	-907
284.805	-1383
284.863	-142
284.922	274
284.981	721
285.039	1054
285.098	2166
285.156	4756
285.215	8236
285.273	7271
285.332	5571
285.390	3244
285.449	2136
285.507	619
285.566	766
285.624	-155
285.683	96
285.741	-384
285.799	-686
285.858	-888
285.916	-1407
285.975	-948
286.033	-1319
286.091	-1078
286.150	-1811
286.208	-1022
286.267	-932
286.325	-1425
286.383	-1516
286.442	-1724
286.500	-2068
286.558	-1100
286.616	-1363
286.675	-1233
286.733	-947
286.791	-2193
286.850	-960
286.908	-1424
286.966	-1393
287.024	-1477
287.083	-1189
287.141	-1753
287.199	-1101
287.257	-1077
287.315	-941
287.374	-1632
287.432	-1639
287.490	-1886
287.548	-1470
287.606	-1393
287.664	-800
287.723	-1507
287.781	-833
287.839	-1917
287.897	-1691
287.955	-2138
288.013	-1553
288.071	-1519
288.129	-509
288.187	5826
288.245	2490
288.303	-732
288.361	-435
288.419	-785
288.477	-1498
288.535	-1625
288.593	-938
288.651	-2286
288.709	-1678
288.767	-1480
288.825	-2246
288.883	-1401
288.941	-2040
288.999	-1390
289.057	-1346
289.115	-1662
289.173	-1998
289.231	-1752
289.289	-1734
289.346	-1087
289.404	-1729
289.462	-1636
289.520	-1263
289.578	-1484
289.636	-991
289.694	-2484
289.751	-2480
289.809	-1519
289.867	-2359
289.925	-1173
289.983	-1783
290.040	-1333
290.098	-1424
290.156	-1524
290.214	-1646
290.271	-2273
290.329	-713
290.387	-1295
290.444	-1836
290.502	-1561
290.560	-1892
290.617	-1566
290.675	-1613
290.733	-1369
290.790	-2474
290.848	-1446
290.906	-1801
290.963	-1796
291.021	-1388
291.078	-1753
291.136	-1657
291.194	-1494
291.251	-1538
291.309	-1767
291.366	-1229
291.424	-1850
291.481	-1683
291.539	-2044
291.596	-871
291.654	-1358
291.711	-1725
291.769	-2095
291.826	-2121
291.884	-1145
291.941	-1298
291.999	-1306
292.056	-1856
292.114	-1062
292.171	-1506
292.228	-1869
292.286	-1012
292.343	-1735
292.401	-1425
292.458	-1401
292.515	-1311
292.573	-2085
292.630	-1563
292.687	-1649
292.745	-1718
292.802	-1616
292.859	-961
292.917	-792
292.974	-653
293.031	-1317
293.089	-2067
293.146	-2233
293.203	-1517
293.260	-2138
293.318	-2053
293.375	-2025
293.432	-1560
293.489	-1326
293.546	-1330
293.604	-2250
293.661	-1686
293.718	-600
293.775	-576
293.832	-1895
293.889	-1608
293.947	-1319
294.004	-1621
294.061	-914
294.118	-666
294.175	-747
294.232	-935
294.289	-1383
294.346	-2041
294.403	-1111
294.460	-1526
294.517	-1828
294.574	-1820
294.631	-1955
294.688	-1126
294.745	-1386
294.802	-7
294.859	641
294.916	-468
294.973	-1677
295.030	-1696
295.087	-1398
295.144	-1128
295.201	-1578
295.258	-1514
295.315	-2447
295.372	-1513
295.429	-1079
295.486	-903
295.542	-1584
295.599	-1032
295.656	-975
295.713	-689
295.770	-612
295.827	-1291
295.883	-874
295.940	-1446
295.997	-1579
296.054	-1320
296.111	-1560
296.167	-1144
296.224	-1543
296.281	-1157
296.338	-1921
296.394	-1855
296.451	-2171
296.508	-1668
296.564	-356
296.621	-413
296.678	-460
296.734	962
296.791	-932
296.848	-1693
296.904	-1189
296.961	-1409
297.018	-321
297.074	-140
297.131	-1414
297.187	-1442
297.244	-849
297.301	-1004
297.357	1143
297.414	367
297.470	-1322
297.527	-1953
297.583	-1194
297.640	-1388
297.696	-1133
297.753	-1737
297.809	-1960
297.866	-2008
297.922	-1565
297.979	-1638
298.035	-1588
298.092	-1549
298.148	-1306
298.204	-743
298.261	-933
298.317	-1191
298.374	138
298.430	-411
298.486	-1774
298.543	-1602
298.599	-1982
298.656	-1738
298.712	-1107
298.768	-470
298.824	-1022
298.881	-2006
298.937	-1161
298.993	-963
299.050	-1483
299.106	-2513
299.162	-807
299.218	-1074
299.275	-1361
299.331	-878
299.387	-1983
299.443	-417
299.500	661
299.556	-737
299.612	-1832
299.668	-1688
299.724	-1668
299.780	-664
299.837	-1252
299.893	-1330
299.949	-1056
300.005	460
300.061	51
300.117	423
300.173	-50
300.229	-513
300.285	-1990
300.341	-644
300.397	-997
300.453	-1239
300.510	-2105
300.566	-1415
300.622	-864
300.678	-708
300.734	496
300.790	-218
300.845	-416
300.901	-1351
300.957	-46
301.013	202
301.069	-1607
301.125	-1486
301.181	-1819
301.237	-1570
301.293	-1424
301.349	-795
301.405	-1745
301.461	-1340
301.516	-1634
301.572	-1568
301.628	-1269
301.684	-1267
301.740	-1432
301.796	-280
301.851	-1308
301.907	-779
301.963	-838
302.019	-232
302.074	2105
302.130	2829
302.186	1367
302.242	0
302.297	-1189
302.353	-1500
302.409	-1474
302.464	-1023
302.520	-1345
302.576	-166
302.631	486
302.687	-204
302.743	-1322
302.798	-1481
302.854	-1662
302.910	-791
302.965	-1521
303.021	-451
303.076	-734
303.132	-1175
303.187	-1429
303.243	-1062
303.299	-1457
303.354	-1387
303.410	-1046
303.465	-2177
303.521	-1319
303.576	-1415
303.632	-1193
303.687	-778
303.743	-524
303.798	114
303.853	-780
303.909	-1151
303.964	-1535
304.020	-1695
304.075	-1915
304.130	-1167
304.186	-1491
304.241	515
304.297	-490
304.352	-1136
304.358	-1120
304.407	-991
304.449	-778
304.463	-703
304.518	-1309
304.539	-1351
304.573	-1440
304.629	-1052
304.630	-1076
304.684	-2101
304.720	-1139
304.739	-649
304.794	-284
304.811	-329
304.850	-424
304.902	-133
304.905	-117
304.960	-1447
304.992	-1736
305.015	-1939
305.071	-1532
305.083	-1317
305.126	-509
305.173	-1697
305.181	-1905
305.236	-1425
305.264	-1599
305.292	-1782
305.347	-1753
305.354	-1619
305.402	-722
305.445	-1273
305.457	-1437
305.512	-957
305.535	-861
305.567	-748
305.622	-890
305.626	-892
305.678	-799
305.716	-562
305.733	-496
305.788	458
305.807	245
305.843	-122
305.897	-204
305.898	-207
305.953	161
305.988	-324
306.008	-583
306.063	-1041
306.078	-1074
306.118	-1042
306.168	-868
306.173	-873
306.228	-251
306.259	-669
306.283	-983
306.338	-1241
306.349	-1193
306.393	-976
306.440	-447
306.448	-338
306.503	-1132
306.530	-1124
306.558	-1127
306.613	-886
306.620	-866
306.668	-585
306.711	-302
306.723	-289
306.778	202
306.801	-108
306.833	-417
306.888	-367
306.892	-388
306.943	-611
306.982	-732
306.997	-823
307.052	-829
307.072	-890
307.107	-794
307.162	-58
307.163	-56
307.217	17
307.253	-646
307.272	-1023
307.327	-323
307.343	-442
307.381	-548
307.434	-1121
307.436	-1145
307.491	-731
307.524	-467
307.546	-268
307.600	-54
307.614	-3
307.655	-185
307.704	-869
307.710	-900
307.765	-1087
307.795	-1055
307.819	-1026
307.874	-367
307.885	-347
307.929	-95
307.975	512
307.984	574
308.038	466
308.065	745
308.093	1551
308.148	3128
308.156	3907
308.202	8064
308.246	10573
308.257	10724
308.312	6756
308.336	4809
308.366	3064
308.421	1222
308.426	1081
308.475	192
308.517	73
308.530	-73
308.585	-668
308.607	-771
308.639	-441
308.694	-173
308.697	-136
308.748	314
308.787	220
308.803	115
308.857	213
308.877	114
308.912	-95
308.967	-161
308.967	-159
309.021	421
309.058	761
309.076	1075
309.130	2378
309.148	2847
309.185	5149
309.238	10617
309.239	10651
309.293	12410
309.328	11617
309.348	10693
309.402	5893
309.418	4624
309.457	2731
309.508	1433
309.511	1381
309.566	1398
309.598	1445
309.620	1490
309.674	1987
309.688	2138
309.729	1975
309.778	1357
309.783	1335
309.837	898
309.868	693
309.892	643
309.946	816
309.959	923
310.001	1183
310.049	1397
310.055	1390
310.109	969
310.139	665
310.163	129
310.218	-635
310.229	-845
310.272	-303
310.319	498
310.326	415
310.381	-231
310.409	-622
310.435	-584
310.489	-325
310.499	-355
310.543	-368
310.589	43
310.598	22
310.652	-388
310.679	-633
310.706	-678
310.760	-632
310.769	-635
310.814	-232
310.859	127
310.868	75
310.923	-125
310.948	-300
310.977	-119
311.031	146
311.038	215
311.085	-72
311.128	-603
311.139	-540
311.193	-33
311.218	155
311.247	72
311.301	-74
311.308	-95
311.356	-193
311.398	-357
311.410	-282
311.464	77
311.488	264
311.518	227
311.572	49
311.578	31
311.626	-96
311.668	-213
311.680	-48
311.734	625
311.758	925
311.788	489
311.842	-306
311.847	-394
311.896	-86
311.937	216
311.950	155
312.004	-142
312.027	-279
312.058	-281
312.112	-267
312.117	-266
312.165	-35
312.207	161
312.297	-306
312.386	260
312.476	-669
312.566	324
312.656	581
312.745	-305
312.835	370
312.925	-3
313.015	290
313.104	-182
313.194	162
313.284	-234
313.374	-222
313.463	-510
313.553	-320
313.643	-380
313.732	34
313.822	100
313.912	735
314.001	-150
314.091	77
314.180	-72
314.270	724
314.360	-21
314.449	-139
314.539	-1091
314.628	292
314.718	-287
314.808	-111
314.897	-301
314.987	218
315.076	243
315.166	518
315.255	143
315.345	503
315.434	-479
315.524	1379
315.613	213
315.703	175
315.792	145
315.881	392
315.971	257
316.060	690
316.150	-136
316.239	-371
316.328	-463
316.418	-30
316.507	-1292
316.597	394
316.686	-193
316.775	-47
316.865	70
316.954	132
317.043	-731
317.133	-52
317.222	38
317.311	733
317.400	-1792
317.490	1275
317.579	249
317.668	233
317.757	201
317.847	650
317.936	589
318.025	490
318.114	-115
318.203	237
318.293	720
318.382	1589
318.471	414
318.560	564
318.649	348
318.738	-156
318.828	-115
318.917	124
319.006	-431
319.095	-167
319.184	1023
319.273	483
319.362	481
319.451	-74
319.540	97
319.629	-290
319.718	-253
319.807	30
319.896	269
319.985	1636
320.074	508
320.163	-403
320.252	-745
320.341	829
320.430	-98
320.519	153
320.608	-110
320.697	3
320.786	-10
320.875	777
320.964	144
321.053	319
321.142	300
321.230	557
321.319	-171
321.408	322
321.497	831
321.586	614
321.675	-264
321.764	964
321.852	654
321.941	366
322.030	31
322.119	-215
322.207	-32
322.296	632
322.385	-768
322.474	-25
322.562	-96
322.651	-78
322.740	-132
322.829	-88
322.917	560
323.006	330
323.095	-580
323.183	-376
323.272	-153
323.361	41
323.449	1251
323.538	-366
323.626	179
323.715	-294
323.804	-303
323.892	551
323.981	-96
324.069	-430
324.158	-359
324.246	-460
324.335	-54
324.424	436
324.512	573
324.601	33
324.689	190
324.778	-333
324.866	-445
324.954	-193
325.043	-583
325.131	-1113
325.220	890
325.308	6
325.397	202
325.485	-244
325.574	-829
325.662	-12
325.750	-750
325.839	731
325.927	-617
326.015	442
326.104	-171
326.192	-11
326.280	-167
326.369	-112
326.457	-84
326.545	684
326.634	-761
326.722	301
326.810	-493
326.898	-4
326.987	249
327.075	-583
327.163	772
327.251	-432
327.340	-334
327.428	273
327.516	-512
327.604	99
327.692	-165
327.781	-307
327.869	-432
327.957	-17
328.045	-743
328.133	309
328.221	-884
328.309	-364
328.397	-176
328.485	-84
328.574	-808
328.662	754
328.750	-840
328.838	-462
328.926	-219
329.014	-217
329.102	-205
329.190	-512
329.278	-468
329.366	-110
329.454	-857
329.542	-460
329.630	-1263
329.718	-94
329.806	-448
329.893	429
329.981	-893
330.069	-22
330.157	-182
330.245	140
330.333	270
330.421	-75
330.509	-505
330.597	189
330.684	-349
330.772	305
330.860	-702
330.948	580
331.036	-112
331.123	572
331.211	164
331.299	290
331.387	-652
331.475	-451
331.562	38
331.650	-580
331.738	-505
331.825	-447
331.913	-218
332.001	239
332.089	-692
332.176	-434
332.264	-549
332.352	-400
332.439	-36
332.527	24
332.614	-273
332.702	311
332.790	-1058
332.877	112
332.965	-296
333.052	269
333.140	-301
333.228	-191
333.315	-561
333.403	-106
333.490	-331
333.578	47
333.665	-91
333.753	-162
333.840	-1051
333.928	-143
334.015	-510
334.103	255
334.190	1819
334.278	29
334.365	-233
334.452	392
334.540	-660
334.627	-370
334.715	-205
334.802	70
334.889	42
334.977	1094
335.064	664
335.151	-282
335.239	-415
335.326	-272
335.413	119
335.501	1349
335.588	-226
335.675	-356
335.762	-261
335.850	-677
335.937	-279
336.024	49
336.111	1209
336.199	178
336.286	-145
336.373	172
336.460	-486
336.547	-448
336.635	-252
336.722	-339
336.809	-387
336.896	-690
336.983	879
337.070	1045
337.157	800
337.245	351
337.332	52
337.419	-241
337.506	-295
337.593	426
337.680	-105
337.767	1408
337.854	-128
337.941	-125
338.028	-401
338.115	-1988
338.202	13
338.289	-420
338.376	-1229
338.463	90
338.550	-259
338.637	1406
338.724	-686
338.811	311
338.898	-95
338.984	-65
339.071	-1083
339.158	397
339.245	-452
339.332	94
339.419	-63
339.506	187
339.593	-545
339.679	74
339.766	-581
339.853	-25
339.940	-334
340.027	-339
340.113	277
340.200	-16
340.287	-758
340.374	-616
340.460	-520
340.547	-1884
340.634	-435
340.720	139
340.807	-842
340.894	208
340.980	-661
341.067	-1023
341.154	174
341.240	-318
341.327	-89
341.414	-258
341.500	-812
341.587	1030
341.674	-117
341.760	741
341.847	-791
341.933	-505
342.020	-1007
342.106	-227
342.193	-38
342.279	-356
342.366	-1139
342.452	-29
342.539	-670
342.625	-198
342.712	-369
342.798	146
342.885	-609
342.971	-894
343.058	-405
343.144	-186
343.230	-623
343.317	-103
343.403	-1067
343.490	-420
343.576	-1306
343.662	-236
343.749	-438
343.835	-393
343.921	-549
344.008	1219
344.094	2028
344.180	444
344.267	-835
344.353	524
344.439	267
344.525	-398
344.612	693
344.698	535
344.784	-660
344.870	-382
344.957	-552
345.043	314
345.129	-1524
345.215	-403
345.301	-332
345.387	-990
345.474	-738
345.560	-1650
345.646	-997
345.732	-494
345.818	-296
345.904	-684
345.990	-724
346.076	-100
346.162	-757
346.249	-117
346.335	-34
346.421	-812
346.507	-44
346.593	209
346.679	-1507
346.765	-176
346.851	-1308
346.937	-495
347.023	633
347.108	-808
347.194	-1215
347.280	-543
347.366	-370
347.452	-239
347.538	-808
347.624	2431
347.710	329
347.796	-802
347.882	89
347.967	-67
348.053	-386
348.139	-294
348.225	-1017
348.311	-1022
348.397	-992
348.482	-136
348.568	-44
348.654	-735
348.740	-784
348.825	-2143
348.911	350
348.997	407
349.083	749
349.168	-517
349.254	-867
349.340	-381
349.425	-190
349.511	26
349.597	-1087
349.682	-889
349.768	-221
349.854	-895
349.939	-45
350.025	-362
350.110	1629
350.196	-343
350.282	-2287
350.367	-104
350.453	-1033
350.538	-1050
350.624	-1331
350.709	78
350.795	-1856
350.880	-864
350.966	239
351.051	-256
351.137	-169
351.222	-537
351.308	-622
351.393	294
351.479	-1373
351.564	-854
351.649	-210
351.735	-13
351.820	-979
351.906	-438
351.991	-765
352.076	-217
352.162	240
352.247	-638
352.332	-209
352.418	-1586
352.503	-636
352.588	1472
352.673	-15
352.759	-258
352.844	-704
352.929	-631
353.014	-1600
353.100	-177
353.185	-1037
353.270	-1414
353.355	-1117
353.441	43
353.526	-705
353.611	-429
353.696	-1386
353.781	919
353.866	-1577
353.952	27
354.037	-1653
354.122	404
354.207	-345
354.292	-317
354.377	-373
354.462	-594
354.547	-1094
354.632	-53
354.717	-567
354.802	-903
354.887	-549
354.972	-512
355.057	-213
355.142	-537
355.227	-43
355.312	-967
355.397	-1364
355.482	-573
355.567	-782
355.652	639
355.737	127
355.822	-144
355.907	-317
355.991	736
356.076	-597
356.161	169
356.246	-518
356.331	-560
356.416	-1624
356.501	1695
356.585	370
356.670	-2196
356.755	1357
356.840	448
356.924	41
357.009	2041
357.094	866
357.179	-483
357.263	-376
357.348	533
357.433	-152
357.517	-144
357.602	-269
357.687	-289
357.771	-273
357.856	1014
357.941	648
358.025	601
358.110	3049
358.195	2082
358.279	60
358.364	-114
358.448	395
358.533	1737
358.617	553
358.702	1741
358.787	-128
358.871	-51
358.956	125
359.040	-691
359.125	-1138
359.209	-16
359.294	-198
359.378	-271
359.462	-265
359.547	-676
359.631	-72
359.716	-1390
359.800	-1578
359.885	445
359.969	-1498
360.053	-505
360.138	-810
360.222	-734
360.306	-632
360.391	-860
360.475	-558
360.559	-689
360.644	-1294
360.728	-1609
360.812	595
360.896	1834
360.981	-48
361.065	-1324
361.149	126
361.233	-140
361.318	-1532
361.402	-829
361.486	210
361.570	-476
361.654	-1083
361.739	-1146
361.823	83
361.907	2042
361.991	-958
362.075	-989
362.159	-2116
362.243	267
362.327	-1395
362.411	1768
362.495	-1221
362.580	-298
362.664	-299
362.748	-1781
362.832	-536
362.916	-1778
363.000	1783
363.084	2605
363.168	517
363.252	-710
363.336	-425
363.420	-19
363.503	247
363.587	-363
363.671	-468
363.755	-1072
363.839	309
363.923	-1911
364.007	-1331
364.091	-778
364.175	-2153
364.258	3575
364.342	-835
364.426	3558
364.510	-866
364.594	1421
364.677	577
364.761	400
364.845	571
364.929	-226
365.013	-950
365.096	-488
365.180	-1373
365.264	361
365.347	2186
365.431	141
365.515	-1278
365.598	-1652
365.682	669
365.766	-1500
365.849	-1276
365.933	-638
366.017	397
366.100	-667
366.184	-1370
366.267	210
366.351	-864
366.435	-1175
366.518	-1216
366.602	-307
366.685	-891
366.769	-882
366.852	-469
366.936	-748
367.019	-1068
367.103	-1896
367.186	47
367.270	-377
367.353	-1712
367.436	-243
367.520	-1883
367.603	-423
367.687	-1229
367.770	-1394
367.853	-290
367.937	486
368.020	-389
368.104	-1534
368.187	-296
368.270	-478
368.353	-865
368.437	-1092
368.520	-273
368.603	-489
368.687	-1277
368.770	566
368.853	-1449
368.936	-38
369.020	-432
369.103	-924
369.186	-1421
369.269	-1281
369.352	-821
369.436	-1050
369.519	-771
369.602	-2568
369.685	938
369.768	-1274
369.851	-1094
369.934	-657
370.018	-2219
370.101	-1546
370.184	1988
370.267	-39
370.350	-862
370.433	-153
370.516	-728
370.599	780
370.682	-2211
370.765	1254
370.848	427
370.931	-198
371.014	88
371.097	-1866
371.180	-538
371.263	-338
371.346	-2187
371.429	-354
371.511	-1505
371.594	-1794
371.677	-485
371.760	968
371.843	-852
371.926	753
372.009	1758
372.091	2943
372.174	-731
372.257	858
372.340	-472
372.423	147
372.505	373
372.588	-991
372.671	-450
372.754	-538
372.836	-585
372.919	456
373.002	1315
373.085	-1315
373.167	30
373.250	-247
373.332	366
373.415	2028
373.498	1708
373.580	1572
373.663	1573
373.746	2047
373.828	-913
373.911	390
373.993	-1335
374.076	-743
374.159	20
374.241	-521
374.324	640
374.406	838
374.489	-90
374.571	3070
374.654	-35
374.736	-163
374.819	420
374.901	3319
374.983	1877
375.066	-587
375.148	-794
375.231	127
375.313	-166
375.395	-1113
375.478	-902
375.560	-564
375.643	-1014
375.725	-328
375.807	337
375.890	2321
375.972	-2063
376.054	-703
376.136	-1118
376.219	-463
376.301	1016
376.383	463
376.465	-214
376.548	-392
376.630	-325
376.712	1205
376.794	-1361
376.877	-608
376.959	-1400
377.041	-261
377.123	-1152
377.205	-1072
377.287	-1562
377.369	-765
377.452	-2034
377.534	-81
377.616	-1350
377.698	-1714
377.780	-2526
377.862	-1767
377.944	316
378.026	-1981
378.108	-638
378.190	-860
378.272	74
378.354	-395
378.436	-1093
378.518	-2250
378.600	-754
378.682	44
378.764	-504
378.846	-393
378.928	-1677
379.010	-1813
379.091	-720
379.173	-726
379.255	-1655
379.337	-1338
379.419	-2502
379.501	505
379.583	-580
379.664	-1274
379.746	-1677
379.828	1252
379.910	-462
379.991	521
380.073	-2566
380.155	-1224
380.237	-1118
380.318	-1243
380.400	-1500
380.482	-426
380.564	-1607
380.645	-1546
380.727	-1558
380.809	60
380.890	-1700
380.972	-1724
381.053	-1073
381.135	-865
381.217	-1643
381.298	767
381.380	-1317
381.461	-455
381.543	411
381.624	725
381.706	-1619
381.787	-1087
381.869	-983
381.951	-479
382.032	92
382.113	3128
382.195	-2013
382.276	1027
382.358	-1323
382.439	405
382.521	1611
382.602	2660
382.684	-77
382.765	2389
382.846	1702
382.928	5172
383.009	1150
383.090	1069
383.172	6311
383.253	11155
383.334	2599
383.416	2057
383.497	1223
383.578	-445
383.659	113
383.741	5501
383.822	16986
383.903	6128
383.984	1213
384.066	4282
384.147	108
384.228	59
384.309	-1133
384.390	-958
384.471	-1351
384.553	-1163
384.634	-1301
384.715	52
384.796	-1662
384.877	-558
384.958	372
385.039	-1648
385.120	-733
385.201	113
385.282	-1309
385.363	289
385.444	-2129
385.525	99
385.606	-120
385.687	570
385.768	-1107
385.849	-1959
385.930	1397
386.011	2801
386.092	-1808
386.173	-761
386.254	-1169
386.335	131
386.416	-1610
386.496	-384
386.577	-704
386.658	-636
386.739	-2485
386.820	-391
386.901	-2144
386.981	-376
387.062	-736
387.143	-979
387.224	-941
387.304	101
387.385	-332
387.466	-3028
387.547	-865
387.627	-1362
387.708	-484
387.789	1105
387.869	-308
387.950	271
388.031	-1019
388.111	-3222
388.192	-614
388.273	134
388.353	-1848
388.434	-633
388.514	-1422
388.595	930
388.676	917
388.756	182
388.837	116
388.917	-584
388.998	-2866
389.078	-166
389.159	-804
389.239	-2796
389.320	473
389.400	-2767
389.480	-551
389.561	-729
389.641	-237
389.722	-350
389.802	-2235
389.883	-243
389.963	844
390.043	-836
390.124	-2065
390.204	-712
390.284	-585
390.365	-1935
390.445	7
390.525	-1065
390.605	-957
390.686	-2096
390.766	-205
390.846	-291
390.927	-1241
391.007	-791
391.087	-622
391.167	-738
391.247	-2356
391.328	-665
391.408	-1505
391.488	-838
391.568	-3385
391.648	-1869
391.728	-533
391.808	-180
391.888	-2609
391.969	-1321
392.049	-1840
392.129	-439
392.209	-1468
392.289	1595
392.369	-1473
392.449	-1058
392.529	-1895
392.609	109
392.689	-1102
392.769	-223
392.849	-1072
392.929	824
393.009	50
393.089	-1326
393.169	-860
393.248	2287
393.328	20367
393.408	19115
393.488	2182
393.568	944
393.648	-353
393.728	-1023
393.807	-1967
393.887	-119
393.967	-1566
394.047	-1306
394.127	-1867
394.206	-57
394.286	2057
394.366	13245
394.446	13827
394.525	2363
394.605	-772
394.685	-319
394.764	20
394.844	-599
394.924	-957
395.003	-1366
395.083	-1342
395.163	-1502
395.242	-1642
395.322	-364
395.402	-2817
395.481	-182
395.561	-1828
395.640	827
395.720	150
395.799	-280
395.879	-1043
395.958	-486
396.038	3918
396.117	18419
396.197	18563
396.276	5269
396.356	-1122
396.435	-309
396.515	-798
396.594	-1078
396.673	-425
396.753	5573
396.832	18752
396.912	10888
396.991	531
397.070	65
397.150	-1960
397.229	-243
397.308	-1235
397.388	-335
397.467	-141
397.546	-1219
397.625	-3389
397.705	553
397.784	-2065
397.863	-1669
397.942	-1944
398.022	-1302
398.101	-1474
398.180	325
398.259	-976
398.338	105
398.417	-2323
398.497	-1776
398.576	-213
398.655	-2506
398.734	-687
398.813	-1304
398.892	-1295
398.971	389
399.050	-1571
399.129	-1650
399.208	-1211
399.287	-439
399.366	-1529
399.445	-691
399.524	-965
399.603	-3409
399.682	-1068
399.761	-1026
399.840	98
399.919	670
399.998	-1297
400.077	-2398
400.156	-1761
400.235	1313
400.313	-1983
400.392	-2018
400.471	-614
400.550	-610
400.629	-2788
400.708	-583
400.786	-1836
400.865	-1820
400.944	-2747
401.023	7
401.102	-2408
401.180	-1037
401.259	-1651
401.338	-2235
401.416	-982
401.495	-1794
401.574	-1140
401.652	-1779
401.731	-850
401.810	-2793
401.888	-918
401.967	-1741
402.046	-1264
402.124	-1506
402.203	-2506
402.281	-740
402.360	-1765
402.438	-468
402.517	-2455
402.596	-899
402.674	-2359
402.753	-1692
402.831	-1613
402.910	-775
402.988	-2565
403.066	-1290
403.145	-1318
403.223	-536
403.302	-2384
403.380	-390
403.459	-1695
403.537	-1390
403.615	-2126
403.694	-2484
403.772	-744
403.850	-1989
403.929	-2624
404.007	-1423
404.085	30
404.164	-1775
404.242	-1378
404.320	655
404.398	3376
404.477	1658
404.555	2331
404.633	1883
404.711	1908
404.789	1436
404.868	-1514
404.946	-1952
405.024	-1459
405.102	-1887
405.180	-2466
405.258	-2505
405.336	-863
405.415	-1894
405.493	-2133
405.571	-1252
405.649	-2337
405.727	-2656
405.805	-1676
405.883	-1768
405.961	-1538
406.039	-1746
406.117	-3304
406.195	-1111
406.273	-2455
406.351	778
406.429	-213
406.507	-1578
406.585	-2278
406.663	-1417
406.740	-1578
406.818	-1640
406.896	-2037
406.974	-401
407.052	-2771
407.130	-227
407.208	-517
407.285	-168
407.363	-1998
407.441	-1388
407.519	-2005
407.596	-1360
407.674	-1309
407.752	-641
407.830	-495
407.907	-654
407.985	-2570
408.063	-1173
408.141	-1527
408.218	-450
408.296	-3181
408.373	-1499
408.451	-1975
408.529	-941
408.606	-2509
408.684	-1942
408.762	-2346
408.839	-2009
408.917	-1541
408.994	-2050
409.072	-2430
409.149	-1744
409.227	-1138
409.304	-1735
409.382	-1210
409.459	-2165
409.537	-1522
409.614	-1544
409.692	-1364
409.769	-1923
409.846	-1878
409.924	-1245
410.001	-2537
410.079	-1955
410.156	-1296
410.233	-2011
410.311	-2033
410.388	-2368
410.465	-1600
410.543	-2463
410.620	-736
410.697	-837
410.775	-1892
410.852	-2722
410.929	-1347
411.006	-1098
411.083	-1449
411.161	-1494
411.238	-1522
411.315	-1705
411.392	-1648
411.469	-1596
411.547	-1339
411.624	-3252
411.701	-3071
411.778	-1408
411.855	-2422
411.932	-1339
412.009	-1783
412.086	-1597
412.163	-1482
412.240	-1409
412.317	-1295
412.394	-1636
412.471	-1658
412.548	-1633
412.625	-2717
412.702	-1739
412.779	-1700
412.856	-856
412.933	-2455
413.010	-1165
413.087	-987
413.164	-1509
413.241	-189
413.318	-1847
413.395	-676
413.471	-2130
413.548	-1667
413.625	-735
413.702	-2862
413.779	-1744
413.855	-2040
413.932	-1741
414.009	-2405
414.086	-1617
414.162	-1726
414.239	-475
414.316	-1118
414.393	334
414.469	-2798
414.546	-1962
414.623	-2171
414.699	-718
414.776	-2044
414.853	-1745
414.929	-1723
415.006	-1589
415.082	-1164
415.159	-2068
415.236	-1497
415.312	-1288
415.389	-1725
415.465	-2074
415.542	-1580
415.618	-2424
415.695	-1280
415.771	-2132
415.848	-1478
415.924	-1331
416.000	-2326
416.077	-1029
416.153	-3434
416.230	-2223
416.306	-2226
416.383	-2641
416.459	-1857
416.535	-1759
416.612	-1936
416.688	-1172
416.764	-1572
416.841	-1790
416.917	-1503
416.993	-1885
417.069	-1464
417.146	-2670
417.222	-1459
417.298	-1624
417.374	-2239
417.451	-869
417.527	-2387
417.603	-2910
417.679	-1877
417.755	-1822
417.831	-1986
417.908	-1630
417.984	-1928
418.060	-2648
418.136	-1447
418.212	-1940
418.288	-2110
418.364	-1634
418.440	-2032
418.516	-1037
418.592	-2070
418.668	-1474
418.744	-1949
418.820	-644
418.896	-1443
418.972	-2587
419.048	-1144
419.124	-997
419.200	-2260
419.276	-2140
419.352	-2065
419.428	-1186
419.504	-2661
419.579	-1374
419.655	-1307
419.731	-1045
419.807	-1584
419.883	-1419
419.959	-1849
420.034	-1476
420.110	-2647
420.186	-1328
420.262	-531
420.337	-1725
420.413	-2647
420.489	-973
420.565	-800
420.640	-1071
420.716	-1147
420.792	-2629
420.867	-460
420.943	-1903
421.019	-2273
421.094	-1997
421.170	-1880
421.245	-1976
421.321	-1856
421.397	-1897
421.472	-1583
421.548	-1759
421.623	-1113
421.699	-1373
421.774	-1655
421.850	-2026
421.925	-2060
422.001	-729
422.076	-1708
422.152	-1935
422.227	-1330
422.302	-479
422.378	-1245
422.453	168
422.529	4076
422.604	14859
422.679	27085
422.755	15636
422.830	4078
422.905	504
422.981	-814
423.056	-822
423.131	-956
423.207	-1238
423.282	-1699
423.357	-531
423.432	-1961
423.508	-978
423.583	-2018
423.658	-1157
423.733	-1087
423.808	-832
423.883	-814
423.959	-2334
424.034	-1901
424.109	-1301
424.184	-2696
424.259	-1501
424.334	-1646
424.409	-1079
424.484	-1554
424.559	-2156
424.634	-2523
424.709	-1933
424.784	-2317
424.859	-1745
424.934	-2140
425.009	-850
425.084	-1210
425.159	-1632
425.234	-1220
425.309	-2379
425.384	-900
425.459	-1713
425.534	-1002
425.609	-2066
425.683	-2412
425.758	-1432
425.833	-2333
425.908	-1423
425.983	-1838
426.058	-656
426.132	-1716
426.207	-1983
426.282	-1537
426.357	-1578
426.431	-1710
426.506	-1285
426.581	-2098
426.655	-476
426.730	-1394
426.805	-2107
426.879	-1383
426.954	-1742
427.029	-2311
427.103	-1282
427.178	14
427.253	-607
427.327	-1442
427.402	-1809
427.476	-1824
427.551	-1632
427.625	-2671
427.700	-1884
427.774	-2362
427.849	-1326
427.923	-2202
427.998	-1565
428.072	-3208
428.147	-859
428.221	-1113
428.296	2447
428.370	196
428.444	-1508
428.519	-1708
428.593	-2331
428.667	-1615
428.742	-1414
428.816	-1113
428.890	309
428.965	2223
429.039	-862
429.113	-1536
429.188	-1371
429.262	-2045
429.336	-1613
429.410	-979
429.485	-1644
429.559	-1619
429.633	-834
429.707	-1579
429.781	-1820
429.855	113
429.930	2054
430.004	-1316
430.078	-880
430.152	-354
430.226	3836
430.300	3980
430.374	-1349
430.448	-1233
430.522	-1017
430.596	-384
430.670	718
430.744	968
430.818	3393
430.892	-1082
430.966	-1858
431.040	-999
431.114	-2720
431.188	-1753
431.262	-1120
431.336	-1514
431.410	-1016
431.484	-2140
431.557	-1072
431.631	-2385
431.705	-1344
431.779	-1673
431.853	1937
431.927	917
432.000	-1276
432.074	-1252
432.148	-2038
432.222	-2376
432.295	-1694
432.369	-2268
432.443	-2072
432.516	-995
432.590	1151
432.664	-461
432.737	-1951
432.811	-2212
432.885	-1726
432.958	-849
433.032	-1962
433.106	-1619
433.179	-1489
433.253	-1728
433.326	-2051
433.400	-1618
433.473	-1225
433.547	-2328
433.620	-2526
433.694	-2434
433.767	-1560
433.841	-2533
433.914	-1217
433.988	-2077
434.061	-2031
434.134	-1434
434.208	-1800
434.281	-1998
434.355	-2099
434.428	-1858
434.501	-1394
434.575	-1649
434.648	-1873
434.721	-1982
434.795	-1595
434.868	-2037
434.941	-1991
435.014	-1838
435.088	-1280
435.161	-1502
435.234	-2213
435.307	-2396
435.381	-1501
435.454	-2392
435.527	-518
435.600	-2610
435.673	-1857
435.746	-1510
435.819	-1562
435.892	-2210
435.966	-1830
436.039	-2383
436.112	-1173
436.185	-1679
436.258	-2108
436.331	-2161
436.404	-1315
436.477	-1611
436.550	-2036
436.623	-2070
436.696	-2354
436.769	-2098
436.842	-1526
436.915	-2409
436.987	-1908
437.060	-1938
437.133	-2059
437.206	-2326
437.279	-1110
437.352	-2553
437.425	-1561
437.498	-1510
437.570	-1207
437.643	-2428
437.716	-866
437.789	-2346
437.861	-1334
437.934	-1633
438.007	-1881
438.080	-1788
438.152	-1668
438.225	-1564
438.298	-372
438.370	2387
438.443	1025
438.516	-1386
438.588	-2151
438.661	-2371
438.734	-2103
438.806	-2577
438.879	-1543
438.951	-2447
439.024	-1802
439.096	-1785
439.169	-1177
439.241	-1992
439.314	-1753
439.386	-2690
439.459	-1691
439.531	-1868
439.604	-1758
439.676	-1959
439.749	-1528
439.821	-2296
439.893	-1737
439.966	-2524
440.038	-1884
440.110	-1605
440.183	-2273
440.255	-1459
440.327	-1246
440.400	-1661
440.472	315
440.544	219
440.617	-1468
440.689	-641
440.761	-1229
440.833	-1207
440.905	-981
440.978	-2704
441.050	-1594
441.122	-1936
441.194	-2425
441.266	-2135
441.338	-1799
441.411	-1493
441.483	-269
441.555	-665
441.627	-1509
441.699	-1709
441.771	-1610
441.843	-2288
441.915	-1654
441.987	-2103
442.059	-2295
442.131	-2458
442.203	-1816
442.275	-2327
442.347	-1327
442.419	-1232
442.491	7
442.563	4000
442.635	1462
442.706	-586
442.778	-984
442.850	-1980
442.922	-1472
442.994	-2337
443.066	-1149
443.137	-1963
443.209	-901
443.281	-1275
443.353	-918
443.425	714
443.496	8082
443.568	9550
443.640	2856
443.711	-1647
443.783	-1376
443.855	-1445
443.926	-1320
443.998	-1713
444.070	-1087
444.141	-1338
444.213	-1543
444.285	-1544
444.356	-1717
444.428	-2317
444.499	-2339
444.571	-1832
444.642	-1846
444.714	-1894
444.785	-1507
444.857	-1471
444.928	-1512
445.000	-1546
445.071	-1352
445.143	-1255
445.214	-1141
445.285	-1510
445.357	491
445.428	4416
445.500	15200
445.571	10840
445.642	4421
445.714	-545
445.785	351
445.856	-1138
445.928	-1248
445.999	-1605
446.070	-1344
446.141	-1328
446.213	-1322
446.284	-2022
446.355	-996
446.426	-1498
446.497	-1263
446.569	-1140
446.640	-846
446.711	-1642
446.782	-1338
446.853	-1771
446.924	-1467
446.995	-1872
447.066	-2077
447.138	-1960
447.209	-1116
447.280	-2068
447.351	-1694
447.422	-2420
447.493	-890
447.564	-1725
447.635	-1089
447.706	-2223
447.777	-1834
447.847	-1933
447.918	-1823
447.989	-1393
448.060	-1922
448.131	-1429
448.202	-1761
448.273	-866
448.344	-1283
448.414	-1400
448.485	-1292
448.556	-1699
448.627	-1733
448.698	-576
448.768	-1713
448.839	-1564
448.910	-1379
448.981	-1147
449.051	-1077
449.122	-2042
449.193	-1184
449.263	-1630
449.334	-1542
449.405	-1409
449.475	-1141
449.546	-230
449.616	-1580
449.687	-949
449.758	-1579
449.828	-1841
449.899	-2517
449.969	-2222
450.040	-1639
450.110	-1497
450.181	-850
450.251	-1679
450.322	-1491
450.392	-1102
450.463	-1052
450.533	-1711
450.604	-116
450.674	-1554
450.744	-840
450.815	-2506
450.885	-953
450.955	-1822
451.026	-1796
451.096	-1391
451.166	-1658
451.237	-1909
451.307	-814
451.377	-1698
451.447	-2133
451.518	-2036
451.588	-855
451.658	-1691
451.728	-1079
451.799	-1051
451.869	-287
451.939	-1659
452.009	-1286
452.079	-1031
452.149	-1187
452.219	-1463
452.289	100
452.360	-143
452.430	-1162
452.500	-1143
452.570	-1335
452.640	-723
452.710	-147
452.780	16
452.850	18
452.920	-1503
452.990	-863
453.060	-1769
453.129	-1512
453.199	-1595
453.269	-610
453.339	881
453.409	2379
453.479	1045
453.549	2882
453.619	2241
453.688	117
453.758	-1358
453.828	-1484
453.898	-1771
453.968	-1360
454.037	-1004
454.087	-1081
454.107	-1116
454.168	-1644
454.177	-1735
454.247	-1061
454.249	-1091
454.316	-2077
454.330	-1856
454.386	-1026
454.411	-1354
454.456	-1989
454.492	-1178
454.525	-454
454.574	-453
454.595	-477
454.655	-1474
454.665	-1631
454.734	-1271
454.736	-1261
454.804	-1435
454.817	-1213
454.873	-318
454.898	-224
454.943	-137
454.979	-615
455.013	-987
455.060	-770
455.082	-682
455.141	-460
455.152	-269
455.221	1817
455.222	1916
455.291	6780
455.303	8996
455.360	16403
455.384	23605
455.430	32202
455.465	25440
455.499	20549
455.546	8602
455.569	3276
455.627	1238
455.638	882
455.707	-384
455.708	-377
455.777	-950
455.789	-893
455.846	-484
455.869	-581
455.916	-838
455.950	-733
455.985	-641
456.031	-646
456.054	-704
456.112	-780
456.124	-766
456.193	-670
456.193	-680
456.262	-880
456.274	-879
456.332	-905
456.355	-1004
456.401	-1205
456.436	-986
456.470	-711
456.516	-894
456.540	-1069
456.597	-1633
456.609	-1690
456.678	-949
456.678	-959
456.747	-885
456.759	-1070
456.817	-1540
456.840	-1328
456.886	-1166
456.920	-944
456.955	-619
457.001	-816
457.024	-1028
457.082	-1597
457.093	-1633
457.162	-556
457.163	-548
457.232	-1232
457.243	-1208
457.301	-961
457.324	-839
457.370	-537
457.405	403
457.439	913
457.485	-24
457.508	-339
457.566	-623
457.577	-645
457.646	-592
457.647	-583
457.715	-289
457.727	-204
457.784	480
457.808	695
457.853	1049
457.889	1960
457.922	2435
457.969	2962
457.991	3047
458.050	2026
458.060	2011
458.129	1851
458.130	1892
458.198	1567
458.211	1217
458.267	414
458.292	161
458.336	-424
458.372	-412
458.405	229
458.453	575
458.474	570
458.533	1518
458.543	1699
458.611	3202
458.614	3256
458.680	1684
458.694	1153
458.749	734
458.775	562
458.818	-9
458.855	-218
458.887	-293
458.936	-295
458.955	-348
459.016	-957
459.024	-959
459.093	-31
459.097	-19
459.162	-623
459.177	-624
459.230	-187
459.257	-287
459.299	-413
459.338	186
459.368	408
459.418	-93
459.437	-303
459.499	-47
459.505	35
459.574	-144
459.579	-127
459.643	-168
459.659	-101
459.711	306
459.740	319
459.780	-57
459.820	-17
459.849	266
459.900	466
459.917	409
459.981	-17
459.986	-42
460.054	182
460.061	201
460.123	407
460.141	464
460.191	628
460.222	530
460.260	330
460.302	421
460.328	497
460.382	385
460.397	280
460.462	246
460.465	312
460.534	1816
460.543	1998
460.602	5429
460.623	6816
460.671	11194
460.703	14748
460.739	12346
460.783	9108
460.808	8099
460.864	2296
460.876	1699
460.944	-18
460.945	-30
461.013	316
461.024	389
461.081	133
461.104	39
461.150	206
461.184	207
461.218	160
461.264	177
461.286	154
461.345	125
461.355	159
461.423	677
461.425	674
461.491	-131
461.505	-172
461.559	259
461.585	326
461.628	781
461.665	1468
461.696	1414
461.745	1185
461.764	1190
461.825	679
461.832	632
461.901	197
461.905	226
461.969	624
461.985	637
462.037	1145
462.065	1327
462.105	839
462.145	400
462.173	510
462.225	1043
462.241	1199
462.305	995
462.310	931
462.378	1080
462.385	982
462.446	372
462.465	283
462.514	325
462.545	470
462.582	697
462.625	723
462.650	693
462.705	900
462.718	889
462.785	422
462.786	415
462.854	144
462.865	119
462.922	890
462.945	1066
462.990	468
463.025	241
463.058	582
463.104	934
463.126	803
463.184	525
463.194	536
463.262	318
463.264	320
463.330	414
463.344	386
463.398	1096
463.424	1450
463.466	815
463.504	385
463.533	690
463.583	927
463.601	905
463.663	681
463.669	654
463.737	1010
463.743	992
463.805	1262
463.823	1375
463.873	1718
463.903	1919
463.940	1918
463.982	1912
464.008	1809
464.062	1588
464.076	1461
464.142	709
464.144	731
464.211	1540
464.221	1673
464.279	1032
464.301	677
464.347	666
464.381	813
464.414	835
464.461	847
464.482	887
464.540	950
464.550	959
464.617	872
464.620	866
464.685	1826
464.699	2053
464.753	2243
464.779	2374
464.820	2979
464.859	3409
464.888	2836
464.938	1950
464.956	2102
465.018	2456
465.023	2409
465.091	1895
465.098	1825
465.158	1473
465.177	1405
465.226	1985
465.257	2233
465.293	2283
465.336	2470
465.361	2249
465.416	1635
465.428	1705
465.495	2120
465.496	2128
465.563	2471
465.575	2561
465.631	3410
465.654	3760
465.698	2615
465.734	1602
465.765	1969
465.813	2433
465.833	2285
465.893	1949
465.900	1947
465.968	1813
465.972	1802
466.035	1594
466.052	1518
466.102	2029
466.131	2396
466.170	1987
466.210	1413
466.237	1889
466.290	2852
466.304	2570
466.369	1269
466.372	1313
466.439	2531
466.449	2689
466.506	2161
466.528	1968
466.573	2802
466.607	3393
466.641	3668
466.687	4044
466.708	4164
466.766	4485
466.775	4205
466.842	2029
466.845	1920
466.909	2270
466.925	2358
466.977	2237
467.004	2178
467.044	2916
467.083	3630
467.111	3778
467.163	4036
467.178	4315
467.242	5457
467.245	5430
467.312	4673
467.321	4568
467.379	4339
467.400	4240
467.446	3524
467.480	2997
467.559	4059
467.638	2607
467.717	2810
467.796	3340
467.875	3569
467.955	2696
468.034	3882
468.113	5226
468.192	7053
468.271	3379
468.350	3111
468.429	3025
468.508	3780
468.588	3292
468.667	2560
468.746	2522
468.825	2863
468.904	2756
468.983	3530
469.062	5136
469.141	7285
469.220	4177
469.299	3139
469.378	3177
469.456	5007
469.535	3835
469.614	3540
469.693	2350
469.772	4236
469.851	3801
469.930	3773
470.009	3599
470.088	3061
470.166	3404
470.245	4233
470.324	3693
470.403	3331
470.482	2506
470.560	3021
470.639	2078
470.718	3226
470.797	2427
470.875	2895
470.954	3251
471.033	2965
471.111	2254
471.190	2284
471.269	2972
471.347	2649
471.426	2347
471.505	2949
471.583	3893
471.662	4473
471.740	2333
471.819	2884
471.898	2383
471.976	3492
472.055	2116
472.133	3741
472.212	3689
472.290	3146
472.369	1931
472.447	3848
472.526	3306
472.604	5427
472.683	4513
472.761	3234
472.839	2835
472.918	2661
472.996	1847
473.075	3161
473.153	2573
473.231	2369
473.310	1944
473.388	3340
473.466	2344
473.545	3093
473.623	3402
473.701	3101
473.780	2504
473.858	1136
473.936	3705
474.014	3366
474.093	2310
474.171	2973
474.249	2496
474.327	2394
474.405	1559
474.484	2706
474.562	712
474.640	1920
474.718	1635
474.796	2134
474.874	2832
474.952	1478
475.030	1193
475.108	2235
475.187	1589
475.265	3239
475.343	2710
475.421	3285
475.499	2089
475.577	1910
475.655	3278
475.733	2718
475.811	3186
475.889	3206
475.966	2020
476.044	2274
476.122	1608
476.200	2902
476.278	1232
476.356	1951
476.434	1953
476.512	3082
476.590	2748
476.667	2039
476.745	1921
476.823	2005
476.901	1737
476.979	2214
477.056	1977
477.134	2040
477.212	2506
477.290	2130
477.367	1747
477.445	2749
477.523	714
477.601	1864
477.678	1142
477.756	2718
477.834	1598
477.911	1894
477.989	1762
478.066	1653
478.144	1895
478.222	2226
478.299	1061
478.377	2608
478.454	2157
478.532	1737
478.609	2064
478.687	2747
478.764	1448
478.842	1903
478.919	1056
478.997	2611
479.074	1609
479.152	2133
479.229	2004
479.307	2161
479.384	1811
479.461	1876
479.539	1642
479.616	2242
479.694	1026
479.771	2121
479.848	967
479.926	1476
480.003	2114
480.080	2881
480.157	1589
480.235	1546
480.312	452
480.389	2050
480.467	1877
480.544	1975
480.621	1387
480.698	1801
480.775	1884
480.853	1565
480.930	1707
481.007	2196
481.084	1410
481.161	2760
481.238	2119
481.315	2515
481.392	1794
481.470	1741
481.547	1217
481.624	1966
481.701	1479
481.778	1196
481.855	1355
481.932	2214
482.009	2363
482.086	1235
482.163	983
482.240	1379
482.317	1461
482.393	2334
482.470	1185
482.547	1924
482.624	878
482.701	1882
482.778	1295
482.855	1469
482.932	849
483.009	949
483.085	2364
483.162	2150
483.239	2316
483.316	636
483.393	1716
483.469	1781
483.546	1015
483.623	1513
483.699	829
483.776	1604
483.853	1249
483.930	1946
484.006	2738
484.083	6177
484.160	7296
484.236	14197
484.313	9260
484.389	6851
484.466	6297
484.543	6093
484.619	4925
484.696	7908
484.772	6111
484.849	7197
484.925	5197
485.002	6440
485.078	5462
485.155	5941
485.231	4357
485.308	4855
485.384	4848
485.461	5251
485.537	5320
485.614	6703
485.690	5280
485.766	5592
485.843	5204
485.919	5509
485.995	4973
486.072	4799
486.148	3900
486.224	4501
486.301	4094
486.377	5515
486.453	3758
486.530	6820
486.606	7775
486.682	8149
486.758	6693
486.835	7584
486.911	4859
486.987	7411
487.063	7351
487.139	7636
487.215	5881
487.292	6511
487.368	4481
487.444	5046
487.520	6661
487.596	6317
487.672	8241
487.748	13415
487.824	15897
487.900	7118
487.976	4975
488.052	3835
488.128	5517
488.204	4628
488.280	5030
488.356	5263
488.432	4367
488.508	6391
488.584	3664
488.660	4266
488.736	4159
488.812	3767
488.888	5384
488.964	4804
489.039	6009
489.115	8607
489.191	5300
489.267	4918
489.343	3275
489.418	4488
489.494	3872
489.570	3251
489.646	5520
489.722	4086
489.797	3767
489.873	5019
489.949	6227
490.024	6256
490.100	3105
490.176	2605
490.251	3361
490.327	4825
490.403	2526
490.478	3529
490.554	2780
490.629	3531
490.705	2908
490.781	3835
490.856	1878
490.932	3921
491.007	3016
491.083	3056
491.158	2784
491.234	4134
491.309	3912
491.385	4244
491.460	2226
491.536	4289
491.611	1987
491.686	3267
491.762	2594
491.837	4164
491.913	5035
491.988	6392
492.063	5735
492.139	3592
492.214	3323
492.289	2873
492.365	2485
492.440	2893
492.515	2199
492.590	3337
492.666	3043
492.741	3618
492.816	3567
492.891	4394
492.967	4890
493.042	7088
493.117	7044
493.192	11247
493.267	31081
493.342	132677
493.418	153249
493.493	15741
493.568	5368
493.643	3470
493.718	3457
493.793	2471
493.868	3449
493.943	3536
494.018	2715
494.093	1924
494.168	2176
494.243	2250
494.318	2444
494.393	2481
494.468	1846
494.543	2053
494.618	2692
494.693	1961
494.768	2012
494.842	2283
494.917	1903
494.992	2767
495.067	2928
495.142	2260
495.217	1851
495.292	3103
495.366	1718
495.441	2467
495.516	4081
495.591	3277
495.665	6300
495.740	11127
495.815	4378
495.890	2883
495.964	666
496.039	5329
496.114	2370
496.188	4357
496.263	2533
496.338	2771
496.412	1827
496.487	3087
496.561	2636
496.636	3329
496.710	2001
496.785	2887
496.860	2504
496.934	1349
497.009	2118
497.083	2538
497.158	2972
497.232	2783
497.307	2109
497.381	2370
497.455	2261
497.530	3019
497.604	1405
497.679	3075
497.753	2245
497.827	1907
497.902	1648
497.976	4321
498.050	6504
498.125	21866
498.199	18161
498.273	3904
498.348	1986
498.422	3479
498.496	2093
498.570	3630
498.645	2011
498.719	1462
498.793	2923
498.867	3009
498.941	2757
499.016	9404
499.090	21064
499.164	6064
499.238	2921
499.312	2396
499.386	2606
499.460	2494
499.534	2759
499.609	3746
499.683	1585
499.757	2372
499.831	4774
499.905	15026
499.979	10398
500.053	2540
500.127	2439
500.201	2368
500.275	3268
500.349	3169
500.422	1803
500.496	2740
500.570	4517
500.644	10283
500.718	12903
500.792	4067
500.866	3907
500.940	2118
501.013	2028
501.087	2407
501.161	2599
501.235	1454
501.309	7649
501.382	12081
501.456	9614
501.530	3727
501.603	3542
501.677	2094
501.751	223
501.825	3464
501.898	3146
501.972	4820
502.046	2743
502.119	1518
502.193	3534
502.266	6044
502.340	3149
502.413	3006
502.487	4478
502.561	2195
502.634	1463
502.708	2186
502.781	-179
502.855	3126
502.928	1084
503.002	2308
503.075	852
503.149	1400
503.222	1673
503.295	2152
503.369	1054
503.442	2038
503.516	4328
503.589	8811
503.662	3749
503.736	2574
503.809	4808
503.882	3045
503.956	5193
504.029	4212
504.102	5290
504.175	8548
504.249	547
504.322	2282
504.395	1434
504.468	1161
504.542	-270
504.615	227
504.688	1318
504.761	-210
504.834	2187
504.907	2210
504.980	1076
505.053	791
505.127	-948
505.200	4875
505.273	977
505.346	1544
505.419	-695
505.492	2150
505.565	-465
505.638	1540
505.711	-55
505.784	459
505.857	-571
505.930	2260
506.003	-772
506.076	3520
506.149	572
506.221	-537
506.294	2523
506.367	1010
506.440	6892
506.513	3558
506.586	1082
506.659	164
506.731	52
506.804	285
506.877	462
506.950	1784
507.022	1182
507.095	49
507.168	993
507.241	2043
507.313	81
507.386	-82
507.459	1729
507.531	899
507.604	133
507.677	1367
507.749	-864
507.822	2733
507.894	1935
507.967	4390
508.040	1305
508.112	2085
508.185	3042
508.257	464
508.330	3820
508.402	1165
508.475	1428
508.547	2912
508.620	2057
508.692	2109
508.765	1411
508.837	1849
508.909	1526
508.982	1203
509.054	872
509.127	798
509.199	629
509.271	702
509.344	883
509.416	846
509.488	1116
509.560	1828
509.633	516
509.705	2054
509.777	472
509.849	2773
509.922	99
509.994	905
510.066	2770
510.138	1330
510.210	5930
510.283	2309
510.355	3209
510.427	2824
510.499	2519
510.571	2302
510.643	1365
510.715	4006
510.787	184
510.859	3268
510.931	2129
511.003	2219
511.076	3324
511.148	1235
511.219	954
511.291	2258
511.363	2200
511.435	2043
511.507	997
511.579	3077
511.651	2215
511.723	1853
511.795	1245
511.867	1395
511.939	1689
512.010	1366
512.082	2794
512.154	807
512.226	1023
512.298	4391
512.369	4310
512.441	3075
512.513	2849
512.585	1817
512.656	2656
512.728	1550
512.800	1101
512.871	3500
512.943	1449
513.015	1245
513.086	2079
513.158	2167
513.230	130
513.301	2310
513.373	1964
513.444	1630
513.516	1280
513.588	1945
513.659	1251
513.731	1892
513.802	-441
513.874	4031
513.945	2363
514.016	884
514.088	2610
514.159	245
514.231	2595
514.302	4051
514.374	3038
514.445	366
514.516	5107
514.588	2252
514.659	2351
514.730	2946
514.802	2693
514.873	105
514.944	3225
515.016	2426
515.087	1548
515.158	2443
515.229	2497
515.301	1144
515.372	3284
515.443	918
515.514	751
515.585	1613
515.656	2645
515.728	3628
515.799	1583
515.870	2339
515.941	1455
516.012	1147
516.083	4120
516.154	2192
516.225	2743
516.296	4043
516.367	1883
516.438	3072
516.509	2455
516.580	4967
516.651	16549
516.722	45572
516.793	12375
516.864	4672
516.935	3831
517.006	6215
517.077	5671
517.148	14837
517.219	63099
517.289	71189
517.360	10738
517.431	5306
517.502	1617
517.573	3812
517.643	1685
517.714	2533
517.785	3128
517.856	3327
517.926	4173
517.997	5115
518.068	3846
518.138	7318
518.209	9467
518.280	40551
518.350	132368
518.421	28717
518.492	4145
518.562	2940
518.633	2629
518.703	1200
518.774	5476
518.845	8430
518.915	7183
518.986	1879
519.056	2794
519.127	3186
519.197	2783
519.268	7332
519.338	4708
519.408	2136
519.479	1428
519.549	991
519.620	2313
519.690	1787
519.760	940
519.831	899
519.901	730
519.971	2174
520.042	764
520.112	-428
520.182	1574
520.253	2241
520.323	958
520.393	519
520.463	3931
520.534	-1033
520.604	4506
520.674	1989
520.744	1188
520.814	1602
520.885	2862
520.955	2525
521.025	7582
521.095	2291
521.165	1819
521.235	863
521.305	-187
521.375	1550
521.445	1619
521.515	876
521.585	2397
521.655	-566
521.725	1684
521.795	1071
521.865	-1302
521.935	3657
522.005	-34
522.075	649
522.145	1733
522.215	-106
522.285	1111
522.355	1342
522.424	2303
522.494	1503
522.564	1122
522.634	2901
522.704	6266
522.774	1419
522.843	1348
522.913	1237
522.983	1008
523.053	333
523.122	989
523.192	11
523.262	1974
523.331	1320
523.401	1278
523.471	747
523.540	1261
523.610	407
523.680	1074
523.749	708
523.819	1092
523.888	501
523.958	-531
524.027	1384
524.097	1412
524.166	614
524.236	-1225
524.305	2127
524.375	-1107
524.444	-915
524.514	2631
524.583	85
524.653	-916
524.722	1477
524.791	-1561
524.861	2747
524.930	-2133
524.999	-127
525.069	1389
525.138	305
525.207	-317
525.277	1327
525.346	57
525.415	833
525.484	-27
525.554	-42
525.623	1131
525.692	897
525.761	213
525.830	1487
525.900	223
525.969	2074
526.038	2786
526.107	5052
526.176	16851
526.245	9738
526.314	4410
526.383	10151
526.452	6710
526.522	22930
526.591	14752
526.660	3282
526.729	2516
526.797	4106
526.867	3804
526.935	25398
527.004	43816
527.073	14909
527.142	818
527.211	1162
527.280	1233
527.349	1060
527.418	-1370
527.487	2161
527.555	-525
527.624	803
527.693	-1309
527.762	2290
527.831	-2032
527.899	600
527.968	-366
528.037	-918
528.106	389
528.174	638
528.243	1110
528.312	504
528.380	-406
528.449	-654
528.518	1750
528.586	-967
528.655	1004
528.723	-58
528.792	-952
528.861	-52
528.929	-1188
528.998	1540
529.066	91
529.135	2363
529.203	630
529.272	2171
529.340	4269
529.409	5551
529.477	1470
529.545	1838
529.614	4397
529.682	2116
529.751	3322
529.819	6127
529.887	4786
529.956	4580
530.024	4280
530.092	3887
530.161	4496
530.229	4046
530.297	3817
530.365	5428
530.434	4260
530.502	4562
530.570	4359
530.638	2401
530.707	3812
530.775	5236
530.843	2582
530.911	4583
530.979	4121
531.047	4475
531.115	4368
531.183	4092
531.252	3082
531.320	4740
531.388	2558
531.456	4024
531.524	2099
531.592	5843
531.660	7324
531.728	3702
531.796	4220
531.864	4802
531.932	3998
532.000	3459
532.067	4193
532.135	5247
532.203	5548
532.271	4461
532.339	6621
532.407	6889
532.475	5765
532.542	5079
532.610	6087
532.678	5167
532.746	11055
532.814	15638
532.881	6178
532.949	7150
533.017	4489
533.084	4329
533.152	3978
533.220	5301
533.287	3397
533.355	5748
533.423	4456
533.490	4121
533.558	3143
533.625	4215
533.693	3705
533.761	4908
533.828	4038
533.896	3561
533.963	5930
534.031	5578
534.098	5454
534.166	4590
534.233	2570
534.300	5335
534.368	3435
534.435	3991
534.503	3105
534.570	4015
534.637	3148
534.705	4004
534.772	3530
534.840	3862
534.907	10869
534.974	9576
535.041	2363
535.109	3125
535.176	2052
535.243	3945
535.310	2767
535.378	2214
535.445	2770
535.512	2844
535.579	2975
535.646	1614
535.714	2346
535.781	2883
535.848	2763
535.915	4197
535.982	3284
536.049	3080
536.116	3689
536.183	2681
536.250	2035
536.317	1510
536.384	1763
536.451	1996
536.518	2657
536.585	558
536.652	2568
536.719	3024
536.786	38
536.853	1852
536.920	2199
536.987	1539
537.053	1093
537.120	8006
537.187	5244
537.254	1068
537.321	741
537.388	2377
537.454	293
537.521	1475
537.588	388
537.654	2423
537.721	771
537.788	1899
537.855	758
537.921	1733
537.988	45
538.055	3283
538.121	-222
538.188	1503
538.254	930
538.321	2140
538.388	1911
538.454	643
538.521	1021
538.587	1483
538.654	1827
538.720	-129
538.787	1373
538.853	1331
538.920	-77
538.986	1168
539.053	63
539.119	1138
539.185	498
539.252	2229
539.318	485
539.385	2310
539.451	-1280
539.517	2203
539.583	1925
539.650	2388
539.716	3227
539.782	1488
539.849	182
539.915	1615
539.981	-431
540.047	640
540.114	828
540.180	1790
540.246	-1132
540.312	864
540.378	838
540.444	2525
540.510	2166
540.576	4207
540.643	716
540.709	-692
540.775	529
540.841	734
540.907	645
540.973	1980
541.039	965
541.105	846
541.171	-158
541.237	171
541.303	1676
541.369	3312
541.435	1431
541.500	266
541.566	-1027
541.632	989
541.698	414
541.764	2130
541.830	-942
541.896	-33
541.961	634
542.027	355
542.093	271
542.159	1176
542.224	172
542.290	2452
542.356	1647
542.421	4691
542.487	5985
542.553	2343
542.618	-46
542.684	464
542.750	760
542.815	1606
542.881	1070
542.947	5206
543.012	2457
543.078	454
543.143	-296
543.209	1503
543.274	-1423
543.340	791
543.405	1610
543.471	1047
543.536	464
543.602	830
543.667	-805
543.732	2413
543.798	-719
543.863	1817
543.928	91
543.994	-26
544.059	953
544.124	1803
544.190	-143
544.255	708
544.320	540
544.386	-534
544.451	1351
544.516	1266
544.581	404
544.646	2482
544.712	3529
544.777	1659
544.842	879
544.907	1316
544.972	-759
545.037	1226
545.102	868
545.168	531
545.233	1049
545.298	1626
545.363	260
545.428	911
545.493	2182
545.558	1948
545.623	1485
545.688	191
545.753	1087
545.818	1243
545.883	1181
545.947	1044
546.012	1626
546.077	769
546.142	1931
546.207	363
546.272	1129
546.337	935
546.401	1088
546.466	1233
546.531	-412
546.596	1582
546.661	1153
546.725	2208
546.790	375
546.855	2042
546.919	174
546.984	1914
547.049	1388
547.113	1707
547.178	1729
547.243	3440
547.307	2312
547.372	2523
547.436	3053
547.501	2248
547.565	3377
547.630	3227
547.695	3146
547.759	2360
547.823	2685
547.888	3548
547.952	3043
548.017	3686
548.081	3424
548.146	2200
548.210	3275
548.274	3953
548.339	3830
548.403	3931
548.468	3206
548.532	2527
548.596	2901
548.660	3476
548.725	3249
548.789	3824
548.853	5051
548.917	3734
548.982	3080
549.046	4006
549.110	1816
549.174	2449
549.238	3266
549.303	2830
549.367	4813
549.431	3501
549.495	2670
549.559	3765
549.623	3717
549.687	4329
549.751	4264
549.815	5010
549.879	5163
549.943	4415
550.007	5290
550.071	4608
550.135	3996
550.199	4177
550.263	4237
550.327	5577
550.391	4132
550.455	5089
550.519	4234
550.582	6577
550.646	5966
550.710	6304
550.774	5852
550.838	6853
550.901	5732
550.965	6568
551.029	5316
551.093	8191
551.156	7883
551.220	9415
551.284	9452
551.347	7485
551.411	8246
551.475	6659
551.538	7905
551.602	6915
551.666	6325
551.729	5595
551.793	7369
551.856	10936
551.920	13393
551.983	8951
552.047	5095
552.110	7382
552.174	4763
552.237	6301
552.301	5748
552.364	5058
552.428	4917
552.491	5349
552.554	6019
552.618	6017
552.681	5277
552.745	4624
552.808	7515
552.871	8581
552.934	7066
552.998	6173
553.061	7534
553.124	7754
553.187	8258
553.251	9867
553.314	11528
553.377	16312
553.440	30933
553.503	104529
553.567	123408
553.630	24644
553.693	10540
553.756	8463
553.819	6600
553.882	6703
553.945	6475
554.008	5768
554.071	4986
554.134	6473
554.197	5458
554.260	6176
554.323	6044
554.386	5968
554.449	5535
554.512	6560
554.575	5069
554.638	5765
554.701	5524
554.764	5206
554.827	4624
554.889	5871
554.952	3844
555.015	4909
555.078	4037
555.141	4701
555.203	3848
555.266	5107
555.329	3834
555.391	4860
555.454	4221
555.517	3830
555.580	3368
555.642	3704
555.705	3273
555.768	3996
555.830	3799
555.893	3364
555.955	2741
556.018	3618
556.080	2272
556.143	3229
556.206	3185
556.268	3499
556.330	2920
556.393	4043
556.455	2856
556.518	3311
556.580	2329
556.643	3056
556.705	2011
556.767	2650
556.830	2408
556.892	3342
556.955	1248
557.017	2545
557.079	1917
557.142	1552
557.204	2061
557.266	3649
557.328	2227
557.391	1039
557.453	860
557.515	2636
557.577	2349
557.639	2399
557.701	1439
557.764	1992
557.826	1561
557.888	2149
557.950	1056
558.012	1664
558.074	2870
558.136	6799
558.198	11178
558.260	4133
558.322	1538
558.384	3185
558.446	2637
558.508	2690
558.570	3372
558.632	4592
558.694	6181
558.756	10164
558.818	28615
558.880	52527
558.942	12336
559.003	11609
559.065	4425
559.127	3291
559.189	2506
559.251	2676
559.312	5126
559.374	13621
559.436	35123
559.498	12275
559.559	2156
559.621	3455
559.683	3699
559.744	5793
559.806	17550
559.868	21508
559.929	2375
559.991	3707
560.052	3503
560.114	11540
560.176	6085
560.237	7382
560.299	8940
560.360	2160
560.422	586
560.483	2057
560.545	371
560.606	1389
560.667	897
560.729	1027
560.790	1077
560.852	1131
560.913	845
560.974	1174
561.036	470
561.097	531
561.158	947
561.220	1205
561.281	-158
561.342	1177
561.403	1505
561.465	567
561.526	2416
561.587	3473
561.648	304
561.709	453
561.771	760
561.832	1407
561.893	403
561.954	1163
562.015	436
562.076	800
562.137	758
562.198	698
562.259	748
562.320	987
562.381	359
562.442	1748
562.503	837
562.564	1441
562.625	999
562.686	1256
562.747	946
562.808	661
562.869	419
562.930	1976
562.991	469
563.051	1297
563.112	1279
563.173	1429
563.234	242
563.294	905
563.355	537
563.416	1571
563.477	1507
563.537	1316
563.598	682
563.659	1657
563.720	395
563.780	1338
563.841	564
563.901	762
563.962	1217
564.023	667
564.083	855
564.144	1464
564.204	1041
564.265	558
564.325	952
564.386	2322
564.446	1611
564.507	236
564.567	269
564.628	1714
564.688	412
564.749	843
564.809	904
564.869	1567
564.930	279
564.990	2148
565.050	-135
565.111	996
565.171	407
565.231	897
565.292	1997
565.352	691
565.412	955
565.472	847
565.532	-372
565.593	1677
565.653	796
565.713	669
565.773	1651
565.833	834
565.893	1007
565.953	437
566.013	630
566.074	1614
566.134	2078
566.194	1345
566.254	1556
566.314	1738
566.374	162
566.434	2115
566.494	963
566.554	826
566.614	-391
566.673	856
566.733	928
566.793	1882
566.853	873
566.913	1948
566.973	1075
567.033	1451
567.092	576
567.152	732
567.212	874
567.272	950
567.331	1476
567.391	1077
567.451	1191
567.511	1267
567.570	1578
567.630	456
567.690	789
567.749	1697
567.809	659
567.868	1182
567.928	1346
567.988	903
568.047	638
568.107	575
568.166	935
568.226	976
568.285	79
568.345	1420
568.404	1768
568.464	1275
568.523	893
568.582	1168
568.642	570
568.701	1839
568.761	413
568.820	2029
568.879	1193
568.939	1755
568.998	906
569.057	1341
569.116	705
569.176	1793
569.235	377
569.294	996
569.353	140
569.413	979
569.472	-206
569.531	982
569.590	128
569.649	685
569.708	670
569.767	678
569.827	1435
569.886	904
569.945	265
570.004	1328
570.063	145
570.122	1415
570.181	190
570.240	892
570.299	1057
570.358	962
570.417	796
570.475	1011
570.534	1068
570.593	1275
570.652	481
570.711	1222
570.770	-220
570.829	1418
570.887	1119
570.946	717
571.005	184
571.064	1400
571.122	524
571.181	998
571.240	227
571.299	1019
571.357	1469
571.416	740
571.475	628
571.533	677
571.592	868
571.650	1512
571.709	734
571.768	1028
571.826	596
571.885	1443
571.943	752
572.002	648
572.060	1033
572.119	1351
572.177	1511
572.236	843
572.294	1132
572.352	1605
572.411	301
572.469	508
572.528	833
572.586	1375
572.644	1171
572.703	779
572.761	-193
572.819	576
572.877	724
572.936	966
572.994	159
573.052	530
573.110	1004
573.169	947
573.227	916
573.285	1962
573.343	936
573.401	1117
573.459	941
573.517	792
573.576	977
573.634	1332
573.692	1016
573.750	904
573.808	-212
573.866	1464
573.924	979
573.982	1068
574.040	194
574.098	537
574.155	1
574.213	185
574.271	-175
574.329	768
574.387	88
574.445	670
574.503	396
574.560	412
574.618	-663
574.676	485
574.734	-353
574.792	22
574.849	798
574.907	1609
574.965	-244
575.022	533
575.080	686
575.138	1016
575.195	675
575.253	-220
575.311	606
575.368	1434
575.426	187
575.483	1233
575.541	940
575.598	565
575.656	1367
575.713	567
575.771	1104
575.828	922
575.886	1231
575.943	1515
576.001	99
576.058	593
576.115	281
576.173	686
576.230	40
576.287	675
576.345	815
576.402	646
576.459	616
576.517	352
576.574	66
576.631	1447
576.688	79
576.746	1515
576.803	496
576.860	736
576.917	424
576.974	1627
577.031	523
577.089	669
577.146	758
577.203	1233
577.260	1745
577.317	1850
577.374	1990
577.431	1857
577.488	2447
577.545	3008
577.602	4605
577.659	8758
577.716	14675
577.773	21451
577.830	9816
577.886	4509
577.943	2795
578.000	2501
578.057	1557
578.114	1679
578.171	2433
578.227	4105
578.284	2909
578.341	2579
578.398	1533
578.454	2634
578.511	1278
578.568	1234
578.625	493
578.681	1558
578.738	1293
578.794	706
578.851	1040
578.908	1639
578.964	1227
579.021	1516
579.077	1818
579.134	1236
579.190	1012
579.247	1287
579.303	556
579.360	1432
579.416	526
579.473	1528
579.529	1032
579.586	1804
579.642	1778
579.698	1965
579.755	1245
579.811	2195
579.867	2505
579.924	2952
579.980	3055
580.036	5699
580.093	4160
580.149	6238
580.205	6341
580.261	4566
580.317	3313
580.374	2803
580.430	2328
580.486	2299
580.542	3492
580.598	3308
580.619	2455
580.654	975
580.692	2042
580.710	2576
580.765	2369
580.767	2363
580.823	2178
580.838	2007
580.879	1560
580.911	1554
580.935	1553
580.984	914
580.991	831
581.047	2778
581.057	2694
581.103	2276
581.130	2473
581.159	2684
581.203	2235
581.215	2118
581.270	2749
581.276	2663
581.326	1878
581.349	2086
581.382	2377
581.422	1978
581.438	1826
581.494	2452
581.494	2438
581.550	939
581.567	1491
581.606	2691
581.640	2495
581.661	2358
581.713	2904
581.717	2952
581.773	2132
581.786	2354
581.829	3009
581.859	2681
581.885	2499
581.932	2990
581.940	3054
581.996	2674
582.004	2766
582.052	3274
582.077	3007
582.107	2739
582.150	3212
582.163	3351
582.219	3154
582.223	3181
582.274	3503
582.296	3467
582.330	3494
582.368	3775
582.386	3932
582.441	4533
582.441	4533
582.497	7035
582.514	7865
582.552	10158
582.587	14771
582.608	16968
582.659	9849
582.663	9313
582.719	4660
582.732	4503
582.774	4380
582.805	4166
582.830	3988
582.877	3410
582.885	3316
582.941	4860
582.950	4800
582.996	4482
583.023	5350
583.052	6459
583.095	6585
583.107	6556
583.162	6828
583.168	6771
583.218	6231
583.240	6010
583.273	5558
583.313	4784
583.328	4610
583.384	3982
583.385	3962
583.439	3010
583.458	3101
583.494	3293
583.531	2807
583.549	2702
583.603	3544
583.605	3558
583.660	3336
583.676	3338
583.715	3565
583.748	3421
583.770	3267
583.820	3677
583.825	3693
583.881	3181
583.893	3078
583.936	3113
583.965	3024
583.991	2730
584.038	2336
584.046	2335
584.101	3091
584.110	3228
584.156	3708
584.183	3231
584.211	2734
584.255	3202
584.266	3329
584.321	3490
584.328	3529
584.376	3630
584.400	3420
584.431	3439
584.472	3663
584.486	3662
584.541	3893
584.545	3926
584.596	4113
584.617	4020
584.651	4371
584.689	4543
584.706	4454
584.761	3900
584.762	3904
584.816	4501
584.834	4519
584.871	4465
584.906	4733
584.926	4860
584.978	4429
584.980	4427
585.035	5193
585.051	5193
585.090	5107
585.123	5790
585.145	6245
585.195	6870
585.200	7115
585.254	11224
585.267	12849
585.309	19156
585.340	24759
585.364	25916
585.412	13066
585.419	11306
585.473	6411
585.484	5744
585.528	5536
585.556	6402
585.583	7586
585.628	9474
585.637	10032
585.692	17267
585.700	18414
585.747	22921
585.772	18564
585.801	12132
585.845	6293
585.856	5324
585.910	5082
585.917	4958
585.965	4608
585.989	4883
586.019	5051
586.061	4290
586.074	4005
586.128	3811
586.133	3775
586.183	4021
586.205	4205
586.237	4314
586.277	4110
586.292	3944
586.346	3596
586.349	3553
586.401	3234
586.421	3374
586.455	3436
586.493	3777
586.509	4203
586.564	4785
586.565	4812
586.618	4978
586.637	4775
586.672	4518
586.709	3624
586.727	3289
586.781	4249
586.781	4253
586.835	3539
586.853	3569
586.889	3786
586.925	3278
586.944	2974
586.996	3637
586.998	3658
587.052	3757
587.068	3612
587.106	3161
587.140	2810
587.161	2810
587.212	3255
587.215	3265
587.269	3260
587.284	3275
587.323	3217
587.356	2966
587.377	2932
587.427	3546
587.431	3564
587.485	3088
587.499	3009
587.539	3106
587.571	3231
587.593	3455
587.643	4151
587.648	4185
587.702	3414
587.715	3531
587.755	3674
587.786	3521
587.810	3588
587.858	3762
587.864	3806
587.917	3733
587.930	3952
587.971	4446
588.001	4122
588.025	3921
588.073	4258
588.079	4350
588.133	5161
588.145	5261
588.187	5105
588.217	4894
588.241	5086
588.288	6005
588.295	6068
588.348	6014
588.360	6068
588.402	6544
588.431	6747
588.456	6948
588.503	7866
588.510	8056
588.564	9015
588.575	9507
588.617	11045
588.646	11341
588.671	12014
588.718	14714
588.725	15459
588.778	21733
588.789	23595
588.832	39783
588.861	52762
588.886	74697
588.932	123773
588.939	127548
588.993	146778
589.004	144136
589.047	79849
589.075	42451
589.100	30606
589.147	17184
589.154	16571
589.207	12701
589.218	12163
589.261	12637
589.290	13033
589.314	13420
589.361	15051
589.368	15994
589.421	24925
589.433	27303
589.475	50661
589.504	69532
589.528	89357
589.576	129755
589.582	125885
589.635	63544
589.647	51336
589.689	25851
589.718	12096
589.742	10212
589.790	7231
589.795	7111
589.849	6282
589.861	6133
589.902	6176
589.932	6124
589.955	5531
590.004	4345
590.009	4382
590.062	4767
590.075	4896
590.115	4373
590.146	3854
590.168	3784
590.218	3807
590.222	3838
590.275	3917
590.289	4008
590.328	4348
590.360	4480
590.381	4544
590.431	4887
590.435	4850
590.488	3744
590.503	3556
590.541	4298
590.574	4841
590.594	5049
590.645	5406
590.647	5435
590.700	6011
590.716	6220
590.753	5885
590.787	5366
590.806	5031
590.859	4278
590.859	4287
590.912	4474
590.930	4558
590.965	4494
591.001	4544
591.018	4643
591.071	4909
591.072	4905
591.124	4596
591.143	4598
591.177	4573
591.214	4309
591.230	4321
591.283	4637
591.285	4638
591.336	4760
591.356	4812
591.389	5449
591.427	6087
591.442	5616
591.495	3949
591.498	3816
591.547	4334
591.569	4597
591.600	4073
591.640	3248
591.653	3508
591.706	4836
591.711	4957
591.759	4494
591.782	4234
591.811	4540
591.853	5003
591.864	5000
591.917	5005
591.924	4984
591.969	5054
591.995	5135
592.022	4983
592.066	4636
592.075	4673
592.127	4939
592.137	4973
592.180	5267
592.208	5494
592.233	5243
592.279	4688
592.285	4733
592.338	5108
592.350	5193
592.390	4636
592.421	4205
592.443	4757
592.491	5967
592.495	5939
592.548	5463
592.562	5328
592.600	5699
592.633	6020
592.653	5535
592.704	4237
592.705	4276
592.775	5052
592.846	5635
592.916	5194
592.987	6098
593.058	4379
593.128	4789
593.199	5064
593.270	6066
593.341	5545
593.411	5104
593.482	6092
593.553	5787
593.623	5621
593.694	6378
593.764	6087
593.835	5773
593.906	4921
593.976	5167
594.047	5456
594.117	5721
594.188	5668
594.258	5955
594.329	5851
594.399	5781
594.470	5862
594.540	5706
594.611	5599
594.681	5929
594.751	5803
594.822	6791
594.892	5495
594.963	6240
595.033	6581
595.103	6564
595.174	6820
595.244	7794
595.314	7389
595.384	7244
595.455	6640
595.525	6752
595.595	7546
595.665	7478
595.736	6720
595.806	7699
595.876	7355
595.946	7373
596.016	7688
596.087	7519
596.157	8125
596.227	7663
596.297	8060
596.367	8374
596.437	9665
596.507	9649
596.577	9349
596.647	9315
596.717	9623
596.787	9679
596.857	9662
596.927	10362
596.997	12861
597.067	19555
597.137	35725
597.207	20008
597.277	11135
597.347	9993
597.417	11118
597.487	10667
597.557	10838
597.626	10014
597.696	12015
597.766	12251
597.836	11232
597.906	10635
597.975	11351
598.045	10925
598.115	12252
598.185	11320
598.254	13199
598.324	13264
598.394	12786
598.464	12557
598.533	13445
598.603	13007
598.672	13080
598.742	13343
598.812	13897
598.881	13378
598.951	13529
599.020	13838
599.090	15220
599.159	15146
599.229	16083
599.299	14815
599.368	15961
599.437	16112
599.507	16255
599.576	20871
599.646	35636
599.715	37267
599.785	17269
599.854	17714
599.924	16181
599.993	16494
600.062	17186
600.132	17251
600.201	17388
600.270	20378
600.340	19955
600.409	19880
600.478	20583
600.547	20595
600.617	21023
600.686	19427
600.755	20062
600.824	20969
600.894	20538
600.963	21585
601.032	21839
601.101	23004
601.170	22627
601.239	23198
601.308	23783
601.378	24852
601.447	24485
601.516	25901
601.585	26719
601.654	26568
601.723	28991
601.792	31846
601.861	43755
601.930	58340
601.999	36440
602.068	32650
602.137	32692
602.206	32818
602.275	32752
602.343	32686
602.412	33244
602.481	33841
602.550	33929
602.619	33088
602.688	34209
602.756	35525
602.825	34140
602.894	35445
602.963	35000
603.032	35660
603.100	34910
603.169	34365
603.238	35833
603.307	33591
603.375	34896
603.444	36239
603.513	31531
603.581	33919
603.650	35559
603.719	28210
603.787	26605
603.856	26726
603.924	27297
603.993	28811
604.061	28018
604.130	30288
604.198	31151
604.267	31786
604.335	32091
604.404	31510
604.472	32922
604.541	31872
604.609	34434
604.678	35541
604.746	36880
604.815	37665
604.883	34506
604.951	35310
605.020	35603
605.088	32791
605.156	28303
605.225	29975
605.293	28475
605.361	29079
605.429	29148
605.498	30004
605.566	28131
605.634	30603
605.702	28297
605.771	29360
605.839	29394
605.907	27981
605.975	31429
606.043	29737
606.111	29645
606.180	41205
606.248	61701
606.316	63655
606.384	31896
606.452	20714
606.520	13433
606.588	12853
606.656	12984
606.724	12916
606.792	12653
606.860	10630
606.928	9878
606.996	10827
607.064	9943
607.132	11261
607.200	11614
607.267	11583
607.335	11540
607.403	12618
607.471	10304
607.539	12045
607.607	10605
607.674	10374
607.742	10737
607.810	9980
607.878	10134
607.946	9919
608.013	11093
608.081	11151
608.149	11335
608.216	10107
608.284	12383
608.352	10548
608.419	9127
608.487	11210
608.555	9010
608.622	10433
608.690	9388
608.757	10476
608.825	11020
608.893	10210
608.960	10368
609.028	9015
609.095	10652
609.163	9722
609.230	8883
609.298	8497
609.365	7389
609.432	9546
609.500	9304
609.567	10669
609.635	11979
609.702	13246
609.769	12681
609.837	10531
609.904	8857
609.971	7827
610.039	10793
610.106	12714
610.173	19823
610.241	43998
610.308	42284
610.375	25720
610.442	9715
610.509	9833
610.577	10865
610.644	9870
610.711	10453
610.778	11567
610.845	13040
610.912	19273
610.980	38884
611.047	83696
611.114	34602
611.181	12456
611.248	9857
611.315	11604
611.382	10550
611.449	11510
611.516	12615
611.583	11093
611.650	9839
611.717	11017
611.784	11337
611.851	12399
611.918	13146
611.984	14177
612.051	20016
612.118	35215
612.185	71817
612.252	38708
612.319	14509
612.386	14366
612.452	12806
612.519	12052
612.586	12966
612.653	12766
612.719	12562
612.786	13262
612.853	11161
612.919	10501
612.986	13072
613.053	11049
613.120	10354
613.186	9608
613.253	11951
613.319	10830
613.386	9300
613.453	10688
613.519	11064
613.586	10549
613.652	12565
613.719	11494
613.785	12393
613.852	12901
613.918	14771
613.985	25293
614.051	50269
614.118	128376
614.184	99723
614.250	20152
614.317	13520
614.383	11809
614.449	11549
614.516	11348
614.582	11828
614.648	11306
614.715	11447
614.781	9618
614.847	10739
614.914	10747
614.980	9645
615.046	11783
615.112	10378
615.179	11290
615.245	10543
615.311	10472
615.377	10242
615.443	10858
615.509	10255
615.575	11567
615.642	10835
615.708	11947
615.774	12935
615.840	12428
615.906	14118
615.972	16122
616.038	20580
616.104	40967
616.170	92542
616.236	62266
616.302	20954
616.368	15272
616.434	12316
616.500	13648
616.565	13116
616.631	14559
616.697	12367
616.763	13652
616.829	17355
616.895	24903
616.961	21646
617.026	13393
617.092	11186
617.158	12740
617.224	11831
617.289	11017
617.355	10760
617.421	9845
617.487	11949
617.552	10719
617.618	10665
617.684	9158
617.749	12838
617.815	11222
617.880	10133
617.946	10286
618.012	10829
618.077	10265
618.143	9772
618.208	10514
618.274	11253
618.339	11622
618.405	9365
618.470	9864
618.536	9198
618.601	10902
618.667	9177
618.732	9773
618.798	9443
618.863	8770
618.928	8297
618.994	10281
619.059	9147
619.124	9857
619.190	8852
619.255	8295
619.320	9448
619.386	9194
619.451	9136
619.516	9614
619.581	8939
619.647	8837
619.712	9755
619.777	9306
619.842	9380
619.907	9609
619.972	9941
620.038	9081
620.103	9226
620.168	7611
620.233	10070
620.298	8885
620.363	10247
620.428	10554
620.493	9792
620.558	10024
620.623	10364
620.688	9456
620.753	9306
620.818	9292
620.883	10268
620.948	10130
621.013	9492
621.078	9457
621.143	8480
621.207	12779
621.272	10134
621.337	9776
621.402	9836
621.467	11127
621.532	10266
621.596	10396
621.661	10600
621.726	9601
621.791	9631
621.855	9968
621.920	9446
621.985	9037
622.049	11363
622.114	9396
622.179	10489
622.243	10254
622.308	8665
622.373	12774
622.437	11189
622.502	10457
622.566	10579
622.631	8887
622.695	11136
622.760	10888
622.824	10252
622.889	10589
622.953	8345
623.018	11706
623.082	11126
623.147	11413
623.211	9770
623.276	10902
623.340	9830
623.404	10470
623.469	11088
623.533	10902
623.597	9759
623.662	9481
623.726	9128
623.790	9063
623.854	8606
623.919	9990
623.983	9042
624.047	8942
624.111	8880
624.176	9235
624.240	7906
624.304	11341
624.368	7698
624.432	9414
624.496	9030
624.560	10296
624.625	8643
624.689	10302
624.753	9440
624.817	9682
624.881	8181
624.945	8616
625.009	8794
625.073	8935
625.137	7271
625.201	8682
625.265	8256
625.329	8988
625.393	8792
625.456	8244
625.520	9467
625.584	8385
625.648	8743
625.712	9695
625.776	10724
625.839	11976
625.903	7406
625.967	6800
626.031	10414
626.095	9452
626.158	7149
626.222	5837
626.286	7298
626.349	5178
626.413	5209
626.477	7772
626.540	5814
626.604	5592
626.668	6930
626.731	5561
626.795	5395
626.858	5994
626.922	4588
626.986	5731
627.049	3312
627.113	7056
627.176	5090
627.240	5639
627.303	5256
627.366	5512
627.430	5707
627.493	5390
627.557	3506
627.620	6401
627.684	5027
627.747	5703
627.810	2517
627.874	4442
627.937	2841
628.000	5961
628.064	4545
628.127	2307
628.190	4818
628.253	2872
628.317	3294
628.380	4298
628.443	2851
628.506	3278
628.569	3708
628.632	2565
628.696	3755
628.759	2234
628.822	3385
628.885	2356
628.948	2841
629.011	2560
629.074	2458
629.137	1657
629.200	2403
629.263	4109
629.326	1861
629.389	1970
629.452	2894
629.515	2654
629.578	2378
629.641	3499
629.704	1910
629.767	3168
629.830	3318
629.892	2168
629.955	1821
630.018	4754
630.081	1154
630.144	3322
630.207	833
630.269	3851
630.332	1886
630.395	3045
630.458	2489
630.520	792
630.583	3518
630.646	2699
630.708	2335
630.771	1207
630.834	3026
630.896	1787
630.959	1857
631.021	1433
631.084	1391
631.146	2018
631.209	3068
631.272	1984
631.334	2476
631.397	1332
631.459	1961
631.522	2093
631.584	1432
631.646	2703
631.709	2503
631.771	1366
631.834	2847
631.896	2480
631.958	1198
632.021	2868
632.083	686
632.145	2683
632.208	1660
632.270	2444
632.332	1609
632.395	2261
632.457	2583
632.519	1147
632.581	3296
632.643	599
632.706	1495
632.768	712
632.830	2390
632.892	1519
632.954	1175
633.016	2728
633.078	971
633.141	1502
633.203	1645
633.265	1885
633.327	2419
633.389	871
633.451	2161
633.513	1313
633.575	1737
633.637	908
633.698	1557
633.760	2985
633.822	2748
633.884	2890
633.946	2994
634.008	4696
634.070	11897
634.132	28600
634.193	9604
634.255	3078
634.317	1814
634.379	3182
634.441	1763
634.502	1205
634.564	2716
634.626	1492
634.687	2406
634.749	1514
634.811	2563
634.873	1860
634.934	1431
634.996	3229
635.057	1495
635.119	1094
635.181	1561
635.242	2273
635.304	158
635.365	3270
635.427	1256
635.488	2038
635.550	627
635.611	2559
635.673	-327
635.734	2746
635.796	1210
635.857	2851
635.918	709
635.980	2363
636.041	1258
636.102	2614
636.164	1268
636.225	3048
636.286	0
636.348	2034
636.409	1152
636.470	1307
636.531	2141
636.593	1524
636.654	1553
636.715	1717
636.776	1536
636.838	1306
636.899	2262
636.960	849
637.021	1106
637.082	1375
637.143	760
637.204	968
637.265	196
637.326	1745
637.387	2046
637.448	693
637.509	2008
637.570	1260
637.631	2117
637.692	-72
637.753	143
637.814	1969
637.875	1450
637.936	2126
637.997	1101
638.058	436
638.119	2295
638.179	951
638.240	990
638.301	1571
638.362	-643
638.423	741
638.483	3216
638.544	308
638.605	1678
638.666	755
638.726	1193
638.787	1813
638.848	1098
638.908	1302
638.969	1611
639.030	690
639.090	138
639.151	916
639.211	1675
639.272	1777
639.332	1365
639.393	854
639.453	-42
639.514	1440
639.574	1079
639.635	838
639.695	1999
639.756	-287
639.816	1260
639.877	1305
639.937	1332
639.997	2193
640.058	-908
640.118	581
640.178	1470
640.239	805
640.299	1283
640.359	1398
640.420	1365
640.480	1199
640.540	1316
640.600	-215
640.661	982
640.721	411
640.781	2260
640.841	-159
640.901	2074
640.961	1416
641.021	1338
641.082	-140
641.142	1079
641.202	1370
641.262	-904
641.322	1547
641.382	-82
641.442	2221
641.502	464
641.562	1203
641.622	91
641.682	1376
641.742	333
641.802	990
641.861	837
641.921	932
641.981	1178
642.041	483
642.101	372
642.161	-529
642.221	730
642.280	1250
642.340	466
642.400	-264
642.460	834
642.519	298
642.579	783
642.639	1346
642.698	-1509
642.758	2915
642.818	1236
642.877	75
642.937	257
642.997	1070
643.056	435
643.116	-151
643.175	1896
643.235	455
643.294	963
643.354	162
643.414	829
643.473	2009
643.532	-70
643.592	908
643.651	2904
643.711	5272
643.770	9971
643.830	23732
643.889	44524
643.948	7950
644.008	2128
644.067	392
644.126	-317
644.186	1316
644.245	859
644.304	-548
644.363	2713
644.423	-1050
644.482	691
644.541	2168
644.600	-1153
644.659	1092
644.719	-143
644.778	600
644.837	3533
644.896	7155
644.955	12740
645.014	14258
645.073	16468
645.132	2516
645.191	1135
645.250	245
645.309	1547
645.368	224
645.427	1388
645.486	-26
645.545	2476
645.604	533
645.663	826
645.722	467
645.781	746
645.840	753
645.898	716
645.957	2057
646.016	1792
646.075	4853
646.134	8246
646.192	24440
646.251	28693
646.310	2665
646.369	-12
646.427	716
646.486	-1106
646.545	713
646.603	364
646.662	771
646.721	1106
646.779	117
646.838	-487
646.896	977
646.955	-179
647.014	1495
647.072	2302
647.131	6803
647.189	1956
647.248	209
647.306	1508
647.365	1041
647.423	-662
647.481	1078
647.540	-1171
647.598	429
647.657	-159
647.715	597
647.773	-404
647.832	1167
647.890	-69
647.948	17
648.007	1806
648.065	1565
648.123	3107
648.181	8555
648.240	22941
648.298	13900
648.356	1106
648.414	1282
648.472	114
648.531	1049
648.589	-94
648.647	143
648.705	162
648.763	296
648.821	353
648.879	-203
648.937	772
648.995	184
649.053	414
649.111	1552
649.169	1457
649.227	3869
649.285	7748
649.343	18884
649.401	9219
649.459	7335
649.516	12497
649.574	22057
649.632	67976
649.690	66157
649.748	22125
649.806	41671
649.863	57925
649.921	12693
649.979	3472
650.037	1476
650.094	-307
650.152	1379
650.210	-11
650.268	1365
650.325	-46
650.383	148
650.440	-448
650.498	193
650.556	-139
650.613	-39
650.671	429
650.728	-169
650.786	-424
650.843	404
650.901	-1382
650.958	636
651.016	-875
651.073	85
651.131	-211
651.188	-1464
651.246	296
651.303	-1045
651.360	415
651.418	-927
651.475	34
651.532	-826
651.590	-30
651.647	-221
651.704	-270
651.762	-53
651.819	-494
651.876	-629
651.933	-537
651.990	654
652.048	-1568
652.105	-647
652.162	222
652.219	-572
652.276	470
652.333	-161
652.390	-312
652.448	1301
652.505	2440
652.562	4620
652.619	10586
652.676	31267
652.733	25550
652.790	1809
652.847	-574
652.904	143
652.961	-1525
653.017	-1129
653.074	284
653.131	373
653.188	-2383
653.245	4
653.302	98
653.359	-570
653.415	131
653.472	-778
653.529	898
653.586	-1155
653.642	-461
653.699	-93
653.756	-754
653.813	-982
653.869	146
653.926	-1191
653.983	-799
654.039	111
654.096	-356
654.152	739
654.209	-1567
654.266	-225
654.322	-1008
654.379	746
654.435	235
654.492	-1018
654.548	-206
654.605	-603
654.661	-550
654.717	-598
654.774	-39
654.830	-270
654.887	-504
654.943	-1053
655.000	-312
655.056	-111
655.112	-370
655.168	-1091
655.225	-8
655.281	-1251
655.337	240
655.394	-1486
655.450	-257
655.506	-131
655.562	-1220
655.618	951
655.675	-1689
655.731	-554
655.787	-809
655.843	404
655.899	-1149
655.955	362
656.011	-409
656.067	-1274
656.123	-597
656.179	-110
656.235	13
656.291	-1591
656.347	186
656.403	-703
656.459	-152
656.515	-885
656.571	-642
656.627	-284
656.683	-883
656.739	-881
656.795	-467
656.850	-424
656.906	-763
656.962	514
657.018	-1663
657.074	-779
657.129	-178
657.185	89
657.241	-346
657.297	-805
657.352	-74
657.408	-1245
657.464	746
657.519	-824
657.575	-1033
657.630	-622
657.686	-614
657.742	-1029
657.797	-676
657.853	-1202
657.908	-675
657.964	-1375
658.019	-166
658.075	-35
658.130	-339
658.186	-1693
658.241	-22
658.297	-1278
658.352	-1659
658.407	224
658.463	-886
658.518	-1069
658.573	254
658.629	-705
658.684	-1316
658.739	-124
658.795	-1367
658.850	-368
658.905	-539
658.960	-422
659.016	-1287
659.071	-782
659.126	-159
659.181	141
659.236	1737
659.291	2348
659.346	2109
659.401	5865
659.457	14860
659.512	24415
659.567	5673
659.622	648
659.677	-955
659.732	-1332
659.787	-129
659.842	-643
659.897	-348
659.952	196
660.007	-347
660.061	-980
660.116	-932
660.171	-541
660.226	-1086
660.281	-123
660.336	-888
660.391	12
660.445	-1478
660.500	-951
660.555	-679
660.610	-1558
660.664	-1303
660.719	-772
660.774	155
660.828	-820
660.883	-1535
660.938	-193
660.992	-1088
661.047	62
661.101	-1321
661.156	-425
661.211	-1653
661.265	-292
661.320	-1613
661.374	-1152
661.429	-2095
661.483	-9
661.538	-2228
661.592	-1022
661.647	-1700
661.701	345
661.755	-340
661.810	-910
661.864	-967
661.919	-1303
661.973	-956
662.027	-931
662.081	-1240
662.136	-1274
662.190	-233
662.244	-1197
662.299	-1141
662.353	-1501
662.407	-952
662.461	-783
662.515	-793
662.569	-1243
662.624	210
662.678	-1226
662.732	-1047
662.786	-773
662.840	-1026
662.894	-469
662.948	-1355
663.002	-1336
663.056	-1007
663.110	-1283
663.164	-1215
663.218	-978
663.272	-748
663.326	-504
663.380	-857
663.434	-1259
663.488	-1098
663.542	-778
663.595	-452
663.649	-816
663.703	-373
663.757	-717
663.811	-1346
663.864	-1171
663.918	-951
663.972	-1047
664.026	-685
664.079	-1292
664.133	-645
664.187	-842
664.240	-1119
664.294	-520
664.348	-464
664.401	-685
664.455	-778
664.508	-1265
664.562	-1562
664.615	-1773
664.669	-1695
664.722	-845
664.776	-992
664.829	-896
664.883	-1554
664.936	-1179
664.990	-609
665.043	-1452
665.097	-1117
665.150	-469
665.203	-1197
665.257	-773
665.310	-947
665.363	-819
665.417	-1510
665.470	-531
665.523	-1433
665.576	-734
665.630	-623
665.683	-1485
665.736	-322
665.789	-819
665.842	-1403
665.895	-251
665.949	-778
666.002	-477
666.055	56
666.108	605
666.161	-380
666.214	172
666.267	-1063
666.320	-1202
666.373	-1116
666.426	-464
666.479	-1101
666.532	-1212
666.585	-988
666.638	-512
666.691	-1155
666.744	-508
666.796	-903
666.849	-972
666.902	-209
666.955	-566
667.008	-1145
667.060	-545
667.113	-708
667.166	-172
667.219	-762
667.271	55
667.324	350
667.377	1864
667.430	3323
667.482	10438
667.535	4611
667.587	-949
667.640	-1460
667.693	-836
667.745	-973
667.798	-305
667.850	-214
667.903	-722
667.955	-1286
668.008	-989
668.060	-1650
668.113	-585
668.165	-614
668.218	-622
668.270	-777
668.322	-939
668.375	-1078
668.427	-607
668.479	-847
668.532	-1392
668.584	-533
668.636	-350
668.689	-1040
668.741	-1934
668.793	-375
668.845	-1503
668.898	-809
668.950	-737
669.002	-241
669.054	-1449
669.106	-472
669.158	305
669.211	675
669.263	3567
669.315	8456
669.367	10962
669.419	715
669.471	-63
669.523	-203
669.575	-358
669.627	-679
669.679	-1092
669.731	-351
669.783	-447
669.835	-239
669.886	-749
669.938	-1528
669.990	-259
670.042	-1656
670.094	-294
670.146	-657
670.197	578
670.249	34
670.301	1090
670.353	1169
670.404	2309
670.456	4434
670.508	7377
670.560	13351
670.611	24523
670.663	43456
670.715	95519
670.766	113753
670.818	37255
670.869	8728
670.921	4204
670.972	2154
671.024	982
671.075	1166
671.127	302
671.178	-48
671.230	-218
671.281	-223
671.333	-790
671.384	-1563
671.436	-1699
671.487	-790
671.538	-821
671.590	13
671.641	-92
671.692	79
671.744	1753
671.795	166
671.846	-340
671.897	-1485
671.949	-1159
672.000	-1184
672.051	-1361
672.102	-758
672.153	-1040
672.204	-1763
672.256	-698
672.307	-747
672.358	-902
672.409	-638
672.460	-630
672.511	-1356
672.562	-826
672.613	-1167
672.664	-926
672.715	-1583
672.766	-974
672.817	-699
672.868	-1346
672.919	-563
672.970	-801
673.021	-1491
673.071	-1563
673.122	-609
673.173	-614
673.224	-1144
673.275	-934
673.326	-1409
673.376	-692
673.427	-1404
673.478	-1297
673.528	-991
673.579	-1135
673.630	-839
673.680	-686
673.731	-954
673.782	-770
673.832	-660
673.883	-1217
673.934	-1308
673.984	-1063
674.035	-800
674.085	-1502
674.136	-1154
674.186	-1432
674.237	-1287
674.287	-181
674.338	-1078
674.388	-1121
674.438	-1774
674.489	-1404
674.539	-1565
674.589	-1030
674.640	-1376
674.690	-953
674.740	-1851
674.791	-1319
674.841	-1786
674.891	-1025
674.942	-1289
674.992	-1261
675.042	-1377
675.092	-2039
675.142	-1344
675.193	-1610
675.243	-1110
675.293	-1168
675.343	-1732
675.393	-1765
675.443	-949
675.493	-230
675.543	-1652
675.593	-638
675.643	-1539
675.693	-970
675.743	-1621
675.793	-1828
675.843	-1160
675.893	-1155
675.943	-968
675.993	-1170
676.043	-915
676.093	-913
676.142	-2331
676.192	-1020
676.242	-1482
676.292	-569
676.341	-1870
676.391	-1072
676.441	-1755
676.491	-983
676.540	-2254
676.590	-1028
676.640	-1296
676.689	-1003
676.739	-1310
676.789	-1532
676.838	-1582
676.888	-1081
676.937	-1541
676.987	-1490
677.037	-1861
677.086	-1924
677.136	-1031
677.185	-759
677.235	-2236
677.284	-1481
677.333	-1976
677.383	-1578
677.432	-2675
677.482	-1106
677.531	-1767
677.580	-1633
677.630	-1229
677.679	-1617
677.728	-1980
677.778	-1105
677.827	-1755
677.876	-1668
677.925	-1666
677.975	-949
678.024	-1056
678.073	-904
678.122	-1315
678.171	-1385
678.220	-2050
678.269	-1492
678.319	-1073
678.368	-1432
678.417	-2324
678.466	-1568
678.515	-1375
678.564	-1088
678.613	-1894
678.662	-1866
678.711	-1884
678.760	-1800
678.809	-1518
678.857	-1990
678.906	-2259
678.955	-1360
679.004	-1348
679.053	-1602
679.102	-1991
679.151	-1062
679.199	-1911
679.248	-1725
679.297	-1539
679.346	-2007
679.394	-1751
679.443	-1502
679.492	-1225
679.540	-1249
679.589	-1328
679.638	-2246
679.686	-1453
679.735	-857
679.784	-1423
679.832	-1850
679.881	-1899
679.929	-1048
679.978	-2060
680.026	-1956
680.075	-2081
680.123	-1313
680.172	-1626
680.220	-2002
680.268	-1186
680.317	-1446
680.365	-2070
680.414	-1864
680.462	-1629
680.510	-777
680.559	-1693
680.607	-1910
680.655	-1371
680.703	-1555
680.752	-2109
680.800	-1749
680.848	-644
680.896	-1373
680.945	-1925
680.993	-2557
681.041	-1875
681.089	-1199
681.137	-1386
681.185	-1481
681.233	-2047
681.258	-1907
681.281	-1797
681.329	-1411
681.377	-1691
681.380	-1622
681.425	-769
681.473	-1391
681.502	-1319
681.521	-1316
681.569	-249
681.617	-700
681.624	-786
681.665	-1500
681.713	-978
681.745	-534
681.761	-351
681.809	-766
681.857	-873
681.867	-889
681.904	-1044
681.952	-1259
681.989	-845
682.000	-741
682.048	-1049
682.096	-629
682.111	-401
682.143	-3
682.191	-255
682.233	-114
682.239	-109
682.286	-159
682.334	25
682.354	-533
682.382	-1339
682.430	-156
682.476	-746
682.477	-780
682.525	-286
682.572	-521
682.598	-337
682.620	-176
682.667	61
682.715	-57
682.720	-61
682.763	-300
682.810	-155
682.841	-263
682.857	-356
682.905	7
682.952	55
682.963	175
683.000	508
683.047	-460
683.085	629
683.095	915
683.142	125
683.190	-93
683.206	-15
683.237	87
683.284	1078
683.328	-111
683.332	-233
683.379	631
683.426	915
683.449	481
683.473	24
683.521	402
683.568	366
683.571	402
683.615	696
683.662	854
683.693	1037
683.709	1100
683.757	287
683.804	761
683.814	797
683.851	838
683.898	668
683.936	773
683.945	785
683.992	737
684.039	870
684.057	994
684.086	1183
684.133	1414
684.179	1363
684.180	1347
684.227	1493
684.274	1549
684.300	1656
684.321	1767
684.368	914
684.415	1349
684.422	1352
684.462	1194
684.509	1405
684.543	1717
684.556	1830
684.603	1274
684.649	1324
684.665	1408
684.696	1518
684.743	1407
684.786	1682
684.790	1703
684.837	1773
684.883	1508
684.908	1488
684.930	1398
684.977	2247
685.023	1752
685.029	1798
685.070	2019
685.117	2214
685.150	1957
685.164	1878
685.210	2107
685.257	2475
685.272	2547
685.303	2584
685.350	2337
685.393	2168
685.396	2154
685.443	2581
685.490	2584
685.514	2390
685.536	2223
685.583	2494
685.629	2402
685.636	2484
685.675	2789
685.722	2883
685.757	2888
685.768	2894
685.815	2000
685.861	3248
685.878	2953
685.908	2541
685.954	2889
686.000	3928
686.000	3937
686.047	3220
686.093	3834
686.121	3648
686.139	3506
686.185	3572
686.232	3254
686.242	3345
686.278	3830
686.324	4327
686.363	4387
686.370	4499
686.416	5777
686.463	7133
686.484	7779
686.509	8171
686.555	8426
686.601	8300
686.606	8306
686.647	6638
686.693	5804
686.727	4549
686.739	4448
686.785	3922
686.831	4074
686.848	4090
686.877	3990
686.923	3421
686.969	3182
686.969	3182
687.015	3034
687.061	4015
687.090	3750
687.107	3486
687.153	3856
687.199	3999
687.211	3733
687.245	3223
687.291	3919
687.332	3817
687.336	3801
687.382	3734
687.428	4533
687.453	4620
687.474	4592
687.520	4140
687.565	4569
687.574	4373
687.611	3934
687.657	4492
687.695	4826
687.702	4887
687.748	4485
687.794	5585
687.816	5654
687.839	5419
687.885	4945
687.931	4312
687.937	4249
687.976	4284
688.022	5274
688.058	4806
688.067	4676
688.113	4781
688.158	4824
688.179	4579
688.204	4346
688.249	4790
688.295	5097
688.300	5064
688.340	4751
688.386	4958
688.421	4800
688.431	4769
688.477	4929
688.522	4661
688.542	4745
688.567	4985
688.613	4962
688.658	5188
688.663	5191
688.703	5025
688.749	4943
688.784	4978
688.794	5022
688.839	4978
688.884	5317
688.905	5235
688.930	5136
688.975	5042
689.020	5658
689.026	5612
689.065	5358
689.110	5620
689.146	5509
689.155	5476
689.201	5241
689.246	5773
689.267	5565
689.291	5433
689.336	5526
689.381	5553
689.388	5511
689.426	5301
689.471	5447
689.509	5779
689.516	5825
689.561	5531
689.606	5311
689.630	5481
689.651	5732
689.696	5532
689.741	5629
689.750	5597
689.785	5652
689.830	5883
689.871	5819
689.875	5790
689.920	6100
689.965	6252
689.992	6055
690.010	6031
690.054	5883
690.099	5533
690.112	5829
690.144	6515
690.189	6096
690.233	6105
690.233	6117
690.278	6498
690.323	6607
690.354	6664
690.367	6714
690.412	6900
690.457	6757
690.474	7012
690.501	7313
690.546	7001
690.590	7904
690.595	7820
690.635	7802
690.680	8442
690.716	9234
690.724	9550
690.769	11007
690.813	12688
690.836	12923
690.857	14564
690.902	19018
690.946	23501
690.957	24524
690.991	33896
691.035	45940
691.077	57997
691.080	57802
691.124	50617
691.168	44223
691.198	39793
691.213	36798
691.257	27705
691.301	18172
691.318	14586
691.346	13440
691.390	11876
691.434	9754
691.439	9493
691.478	8983
691.522	8929
691.559	8533
691.567	8526
691.611	8696
691.655	8274
691.680	8268
691.699	8291
691.743	8158
691.787	8153
691.800	8011
691.831	7923
691.875	8252
691.919	8240
691.921	8231
691.964	8281
692.008	8105
692.041	7899
692.052	7932
692.096	8086
692.139	8391
692.162	8554
692.183	8626
692.227	8221
692.271	8148
692.282	8100
692.315	8110
692.359	8329
692.402	8202
692.403	8221
692.447	8283
692.490	8347
692.523	8347
692.534	8344
692.578	8305
692.622	8065
692.643	8112
692.666	8361
692.709	8318
692.753	9045
692.763	8952
692.797	8295
692.840	8305
692.884	8013
692.884	8037
692.928	8353
692.971	8944
693.004	9374
693.015	9504
693.059	9765
693.102	10097
693.124	10292
693.146	10342
693.189	10208
693.233	10038
693.245	10076
693.276	10888
693.320	11489
693.363	12306
693.365	12304
693.407	13704
693.450	15397
693.485	16361
693.493	16983
693.537	20466
693.580	23634
693.605	25410
693.624	29744
693.667	40113
693.710	50758
693.725	54262
693.753	72199
693.797	100119
693.840	128200
693.845	131308
693.883	117708
693.926	102003
693.966	87656
693.970	85764
694.013	64493
694.056	42585
694.086	27687
694.099	26500
694.142	22126
694.185	18143
694.206	16258
694.229	15831
694.272	14489
694.315	13687
694.326	13229
694.358	12461
694.401	12044
694.444	11313
694.446	11263
694.487	11290
694.530	11012
694.566	10833
694.573	10797
694.616	10155
694.659	9882
694.686	9547
694.702	9526
694.745	9476
694.787	9322
694.806	9312
694.830	9504
694.873	9565
694.916	9725
694.926	9764
694.959	9887
695.002	10017
695.044	9773
695.046	9751
695.087	9807
695.130	9689
695.166	9683
695.172	9779
695.215	10012
695.258	10246
695.286	10383
695.301	10260
695.343	9978
695.386	9713
695.406	9470
695.428	9535
695.471	9752
695.514	9993
695.526	9941
695.556	9846
695.599	10100
695.641	9939
695.646	9919
695.684	10259
695.726	10697
695.766	10884
695.769	10892
695.811	10755
695.854	10369
695.886	10226
695.896	10286
695.938	10274
695.981	10282
696.005	10193
696.023	10329
696.065	10807
696.108	11211
696.125	11295
696.150	11273
696.192	11276
696.235	11278
696.245	11225
696.277	11352
696.319	11569
696.361	11709
696.365	11701
696.404	11938
696.446	12026
696.485	12125
696.488	12154
696.530	11971
696.572	11835
696.604	11714
696.614	11691
696.656	11395
696.698	11189
696.724	10948
696.740	10959
696.783	11063
696.825	11083
696.844	11071
696.867	11115
696.909	11086
696.951	11005
696.964	10981
696.992	10924
697.034	10779
697.076	10565
697.083	10507
697.118	10751
697.160	11046
697.202	11269
697.203	11240
697.244	10971
697.286	10760
697.323	10463
697.327	10518
697.369	10819
697.411	11044
697.442	11214
697.453	11230
697.494	11072
697.536	10922
697.562	10852
697.578	10951
697.620	11121
697.661	11169
697.682	11240
697.703	11355
697.744	11395
697.786	11497
697.801	11489
697.828	11636
697.869	11802
697.911	11967
697.921	11982
697.952	11925
697.994	11704
698.035	11579
698.040	11526
698.077	11376
698.118	11130
698.160	10903
698.160	10867
698.201	11120
698.243	11287
698.279	11417
698.284	11493
698.325	11859
698.367	12258
698.399	12505
698.408	12448
698.449	12048
698.491	11581
698.518	11259
698.532	11321
698.573	11397
698.614	11499
698.638	11487
698.656	11539
698.697	11615
698.738	11695
698.757	11687
698.779	11819
698.820	12015
698.862	12212
698.877	12246
698.903	12444
698.944	12703
698.985	12956
698.996	12991
699.026	12604
699.067	12006
699.116	11260
699.235	11525
699.354	11991
699.474	11040
699.593	12388
699.713	11459
699.832	12234
699.951	11367
700.070	11162
700.190	11651
700.309	11599
700.428	11983
700.547	10419
700.667	10704
700.786	11596
700.905	10684
701.024	11751
701.143	10827
701.262	10161
701.381	10732
701.500	11306
701.619	11529
701.738	11114
701.857	10475
701.976	11226
702.095	10209
702.214	11615
702.333	11237
702.452	10338
702.571	10540
702.690	11377
702.809	9990
702.928	10432
703.047	10864
703.165	10492
703.284	10186
703.403	10673
703.522	10224
703.640	10783
703.759	10600
703.878	10941
703.997	10614
704.115	10455
704.234	10003
704.353	9674
704.471	9674
704.590	9479
704.708	9440
704.827	9718
704.946	10648
705.064	10101
705.183	10538
705.301	11916
705.420	15979
705.538	18998
705.656	26724
705.775	58210
705.893	220835
706.012	238281
706.130	25525
706.249	15577
706.367	13542
706.485	11733
706.604	11204
706.722	11329
706.840	12979
706.958	14002
707.077	11588
707.195	10552
707.313	10403
707.431	10192
707.549	9568
707.668	10513
707.786	9611
707.904	10018
708.022	9403
708.140	10292
708.258	9143
708.376	9461
708.494	9984
708.612	10939
708.730	12770
708.848	12624
708.966	13024
709.084	12078
709.202	11408
709.320	10545
709.438	10579
709.556	10266
709.674	10086
709.791	10959
709.909	10628
710.027	10700
710.145	10585
710.263	11052
710.380	10510
710.498	10582
710.616	9879
710.733	10311
710.851	10110
710.969	10364
711.086	10069
711.204	10244
711.322	9906
711.439	11532
711.557	13228
711.674	15662
711.792	22937
711.909	68379
712.027	97112
712.144	16578
712.262	12334
712.379	11550
712.497	14691
712.614	15210
712.732	13125
712.849	11806
712.966	11911
713.084	12921
713.201	11252
713.318	12513
713.436	11103
713.553	12455
713.670	11695
713.787	12786
713.905	12363
714.022	12015
714.139	11541
714.256	13176
714.373	12714
714.490	17033
714.608	28251
714.725	93383
714.842	77842
714.959	13932
715.076	11670
715.193	12562
715.310	13386
715.427	12231
715.544	10442
715.661	9986
715.778	11227
715.895	10078
716.011	10071
716.128	10727
716.245	10305
716.362	10593
716.479	10401
716.596	10650
716.713	9702
716.829	9935
716.946	9866
717.063	9740
717.180	8988
717.296	9065
717.413	9482
717.530	10283
717.646	8490
717.763	9246
717.880	8601
717.996	8197
718.113	8429
718.229	9164
718.346	8703
718.462	8292
718.579	8772
718.695	9510
718.812	9490
718.928	9758
719.045	8459
719.161	9477
719.277	9420
719.394	16802
719.510	24613
719.626	10508
719.743	9626
719.859	9855
719.975	13223
720.092	30143
720.208	52516
720.324	10784
720.440	7831
720.557	9179
720.673	9466
720.789	11579
720.905	13843
721.021	8245
721.137	8099
721.253	8763
721.369	7669
721.486	8222
721.602	7638
721.718	7791
721.834	6879
721.950	7449
722.066	7475
722.181	7280
722.297	7127
722.413	7040
722.529	8728
722.645	8253
722.761	10338
722.877	13079
722.993	9761
723.108	8179
723.224	6795
723.340	7746
723.456	7033
723.571	7939
723.687	6151
723.803	6284
723.918	6653
724.034	7047
724.150	6406
724.265	7190
724.381	7424
724.497	8319
724.612	6709
724.728	6989
724.843	5983
724.959	7037
725.074	8049
725.190	8678
725.305	6145
725.421	6591
725.536	6603
725.651	6933
725.767	6787
725.882	6323
725.997	5189
726.113	5420
726.228	5802
726.343	5971
726.459	5709
726.574	6322
726.689	6383
726.804	6763
726.920	6872
727.035	5897
727.150	6306
727.265	6255
727.380	6675
727.495	8100
727.610	9139
727.725	15633
727.841	42291
727.956	160030
728.071	75474
728.186	10274
728.301	7297
728.416	6952
728.531	5657
728.645	6419
728.760	6534
728.875	5724
728.990	5440
729.105	5172
729.220	5209
729.335	6212
729.449	5727
729.564	5260
729.679	4864
729.794	6045
729.908	5259
730.023	5248
730.138	5051
730.253	5110
730.367	5484
730.482	4441
730.596	4872
730.711	6081
730.826	6250
730.940	5524
731.055	4582
731.169	5838
731.284	5011
731.398	4887
731.513	5398
731.627	5490
731.742	5948
731.856	5098
731.970	4796
732.085	5379
732.199	5881
732.313	6644
732.428	12370
732.542	29112
732.656	15661
732.771	6479
732.885	5569
732.999	5964
733.113	5969
733.227	5339
733.342	5732
733.456	5752
733.570	5270
733.684	5262
733.798	5500
733.912	5047
734.026	4609
734.140	4883
734.254	5668
734.368	6138
734.482	6615
734.596	5589
734.710	5022
734.824	5102
734.938	4208
735.052	5105
735.166	5502
735.280	5757
735.393	4764
735.507	4863
735.621	4509
735.735	6446
735.849	5673
735.962	4829
736.076	5266
736.190	5678
736.303	5131
736.417	6605
736.531	4518
736.644	5143
736.758	4292
736.872	4691
736.985	4461
737.099	5237
737.212	4269
737.326	5521
737.439	5294
737.553	4981
737.666	5131
737.780	4097
737.893	3896
738.007	4535
738.120	4543
738.233	4854
738.347	4703
738.460	5416
738.573	4849
738.687	4323
738.800	6091
738.913	6847
739.026	8963
739.140	23536
739.253	29048
739.366	6023
739.479	4715
739.592	4331
739.705	4421
739.818	4660
739.932	3922
740.045	5198
740.158	4509
740.271	4743
740.384	4620
740.497	5092
740.610	5257
740.723	4382
740.836	4563
740.949	4699
741.062	4574
741.174	5006
741.287	4560
741.400	5076
741.513	4473
741.626	7251
741.739	8440
741.851	4730
741.964	4828
742.077	4697
742.189	4145
742.302	4339
742.415	4266
742.527	3479
742.640	4928
742.753	4629
742.865	4555
742.978	4387
743.090	4005
743.203	4716
743.316	4350
743.428	4408
743.541	4543
743.653	5347
743.766	4366
743.878	4764
743.990	4486
744.103	4495
744.215	4239
744.327	4003
744.440	5006
744.552	4337
744.664	4296
744.777	3949
744.889	4000
745.001	5220
745.113	4300
745.226	4233
745.338	5339
745.450	5521
745.562	4357
745.674	4777
745.786	5696
745.898	9715
746.010	9336
746.122	5441
746.234	5389
746.347	5097
746.459	4210
746.570	4293
746.682	5202
746.794	4719
746.906	3806
747.018	4806
747.130	4562
747.242	5037
747.354	4786
747.466	4680
747.577	4374
747.689	3987
747.801	3668
747.913	4539
748.024	4143
748.136	4234
748.248	4006
748.359	5292
748.471	5558
748.583	7631
748.694	22989
748.806	35555
748.918	6358
749.029	5074
749.141	4618
749.252	4611
749.364	3994
749.475	4898
749.587	4234
749.698	4711
749.809	4329
749.921	4532
750.032	4276
750.144	4219
750.255	3735
750.366	4327
750.478	3787
750.589	3860
750.700	3940
750.811	4217
750.923	4439
751.034	4521
751.145	4350
751.256	3921
751.367	3706
751.479	3997
751.590	4122
751.701	3919
751.812	4631
751.923	4272
752.034	4168
752.145	4201
752.256	3698
752.367	4252
752.478	4564
752.589	4816
752.700	4382
752.811	4273
752.922	3841
753.032	3667
753.143	4448
753.254	3450
753.365	4910
753.476	4753
753.586	4654
753.697	4260
753.808	4658
753.919	4051
754.029	3862
754.140	4799
754.251	4451
754.361	5150
754.472	4278
754.582	4172
754.693	3753
754.804	4890
754.914	4276
755.025	4402
755.135	4049
755.246	4783
755.356	4550
755.466	5455
755.577	4950
755.687	4619
755.798	5240
755.908	5017
756.018	4513
756.129	5116
756.239	4600
756.349	5455
756.460	4509
756.570	5365
756.680	4825
756.790	4518
756.900	5648
757.011	4659
757.121	4926
757.231	5374
757.341	6007
757.451	5375
757.561	5634
757.671	5421
757.781	4459
757.891	6802
758.001	5620
758.111	5835
758.221	5458
758.331	5787
758.441	5021
758.551	5992
758.661	6376
758.771	6170
758.880	5768
758.990	6931
759.100	6485
759.210	6841
759.320	7144
759.429	6448
759.539	7009
759.649	7962
759.758	5959
759.868	7641
759.978	6501
760.087	8172
760.197	7469
760.307	7202
760.416	7948
760.526	7978
760.635	7753
760.745	7991
760.854	8325
760.964	11184
761.073	10932
761.182	8403
761.292	8941
761.401	9777
761.511	9402
761.620	10225
761.729	10564
761.839	9995
761.948	11629
762.057	10940
762.166	11754
762.276	10486
762.385	12898
762.494	13013
762.603	12465
762.712	13421
762.822	13373
762.931	14705
763.040	13832
763.149	15921
763.258	16548
763.367	17519
763.476	19290
763.585	19718
763.694	22134
763.803	21935
763.912	23706
764.021	24160
764.130	25502
764.238	31315
764.347	31869
764.456	32008
764.565	34534
764.674	36225
764.783	40705
764.891	44267
765.000	50222
765.109	56587
765.217	63993
765.326	73036
765.435	87226
765.543	103528
765.652	123820
765.761	151939
765.869	187314
765.978	235000
766.086	290356
766.195	345095
766.303	342985
766.412	234002
766.520	246332
766.629	350543
766.737	337254
766.846	281620
766.954	226774
767.062	190832
767.171	188908
767.279	124591
767.387	95480
767.496	81954
767.604	70465
767.712	61758
767.820	55512
767.928	50765
768.037	46347
768.145	44455
768.253	42429
768.361	40022
768.469	40166
768.577	41959
768.685	44198
768.793	46780
768.901	50866
769.009	59510
769.117	70429
769.225	87424
769.333	114826
769.441	158932
769.549	223047
769.657	301389
769.765	315029
769.873	226678
769.981	306643
770.088	289746
770.196	216603
770.304	159698
770.412	123598
770.519	96955
770.627	79199
770.735	65671
770.842	56090
770.950	47908
771.058	41981
771.165	37850
771.273	33854
771.380	31396
771.488	29228
771.595	25830
771.703	23923
771.810	22925
771.918	20842
772.025	20893
772.133	19098
772.240	17451
772.348	16603
772.455	16261
772.562	14490
772.670	13835
772.777	13475
772.884	14158
772.991	13146
773.099	13423
773.206	10750
773.313	11521
773.420	10671
773.528	9990
773.635	9811
773.742	11285
773.849	10441
773.956	10102
774.063	9762
774.170	8539
774.277	9137
774.384	7896
774.491	8186
774.598	9339
774.705	8347
774.812	7793
774.919	7728
775.026	8446
775.133	7901
775.239	7180
775.346	7004
775.453	7106
775.560	6245
775.667	6915
775.773	6141
775.880	8018
775.987	6431
776.093	6592
776.200	5646
776.307	5379
776.413	5942
776.520	5762
776.627	6128
776.733	5824
776.840	4256
776.946	6960
777.053	5696
777.159	5315
777.266	4294
777.372	6269
777.478	5107
777.585	6352
777.691	5743
777.798	6697
777.904	13584
778.010	35383
778.117	11860
778.223	5215
778.329	4979
778.435	4471
778.542	4681
778.648	4596
778.754	4703
778.860	3660
778.966	3622
779.072	4808
779.178	3487
779.284	5106
779.391	3331
779.497	4267
779.603	7149
779.708	6881
779.815	16221
779.920	51774
780.026	86215
780.132	14944
780.238	5237
780.344	5270
780.450	4760
780.556	3979
780.661	3033
780.767	3207
780.873	3431
780.979	4071
781.085	2541
781.190	3981
781.296	3531
781.402	2701
781.507	3284
781.613	3402
781.719	2490
781.824	3560
781.930	4620
782.035	3486
782.141	3153
782.246	2643
782.352	3087
782.457	2827
782.563	2580
782.668	2825
782.773	2315
782.879	2924
782.984	2990
783.090	4199
783.195	4073
783.300	2914
783.405	2675
783.511	2462
783.616	3153
783.721	2938
783.826	3012
783.932	4473
784.037	2970
784.142	2376
784.247	2485
784.352	2772
784.457	2020
784.562	2437
784.667	2962
784.772	2144
784.877	1356
784.982	2856
785.087	2047
785.192	3320
785.297	2668
785.402	3046
785.507	1594
785.611	3376
785.716	2527
785.821	2733
785.926	1532
786.031	2285
786.135	2147
786.240	3156
786.345	1905
786.450	2496
786.554	1449
786.659	1512
786.763	993
786.868	2618
786.973	3191
787.077	1964
787.182	1720
787.286	2422
787.391	2402
787.495	2218
787.600	1883
787.704	1821
787.809	3029
787.913	2306
788.017	1712
788.122	2715
788.226	1613
788.330	1516
788.435	2695
788.539	2336
788.643	1465
788.747	2563
788.852	2288
788.956	1595
789.060	2732
789.164	1489
789.268	1384
789.372	2439
789.476	1331
789.580	1669
789.684	1423
789.788	1726
789.892	1900
789.996	3613
790.100	1532
790.204	2763
790.308	3110
790.412	6474
790.516	19264
790.620	14090
790.724	4435
790.828	3037
790.931	2424
791.035	9404
791.139	12859
791.242	1562
791.346	2484
791.450	1509
791.554	1702
791.657	2013
791.761	2471
791.864	2675
791.968	2023
792.072	2533
792.175	2034
792.279	1640
792.382	2121
792.486	1385
792.589	1934
792.693	2296
792.796	754
792.899	3012
793.003	1336
793.106	917
793.209	1537
793.313	2811
793.416	355
793.519	2724
793.623	2049
793.726	2474
793.829	1341
793.932	2525
794.035	901
794.138	2719
794.242	2569
794.345	2378
794.448	4204
794.551	6929
794.654	29225
794.757	54115
794.860	8635
794.963	3079
795.066	1460
795.169	3364
795.272	1655
795.375	1869
795.477	644
795.580	2371
795.683	633
795.786	1813
795.889	549
795.991	3001
796.094	2286
796.197	-352
796.300	2388
796.402	1448
796.505	1165
796.608	717
796.710	2924
796.813	1312
796.915	1326
797.018	2123
797.120	1657
797.223	-268
797.326	2594
797.428	941
797.530	1207
797.633	1879
797.735	2249
797.838	774
797.940	2131
798.042	823
798.145	1793
798.247	2336
798.349	-296
798.452	1495
798.554	784
798.656	314
798.758	3062
798.860	1331
798.962	1467
799.065	585
799.167	874
799.269	1949
799.371	1770
799.473	948
799.575	416
799.677	1774
799.779	2986
799.881	409
799.983	2137
800.085	1979
800.187	435
800.289	-370
800.390	580
800.492	1273
800.594	1588
800.696	1698
800.798	1325
800.899	1274
801.001	1364
801.103	1399
801.205	836
801.306	1263
801.408	-774
801.509	922
801.611	1602
801.713	1704
801.814	1624
801.916	1082
802.017	1003
802.119	1003
802.220	1150
802.322	-843
802.423	2431
802.525	-159
802.626	1256
802.727	1312
802.829	1953
802.930	-1320
803.031	2715
803.133	1238
803.234	937
803.335	1334
803.436	-529
803.538	1461
803.639	454
803.740	2730
803.841	204
803.942	2270
804.043	1643
804.144	984
804.245	1040
804.346	1107
804.447	299
804.548	908
804.649	2535
804.750	1585
804.851	406
804.952	1151
805.053	2073
805.154	666
805.255	1732
805.355	1385
805.456	1062
805.557	807
805.658	168
805.758	1436
805.859	1187
805.960	1161
806.061	272
806.161	884
806.262	1218
806.362	1152
806.463	149
806.564	1710
806.664	1488
806.765	656
806.865	1025
806.966	1452
807.066	-669
807.166	1766
807.267	1057
807.367	1050
807.468	1356
807.568	86
807.668	1629
807.769	2115
807.869	284
807.969	1730
808.069	807
808.170	1581
808.270	541
808.370	1435
808.470	1220
808.570	-544
808.670	978
808.770	1590
808.870	-115
808.970	1843
809.070	764
809.170	1032
809.271	678
809.370	1079
809.470	1068
809.570	379
809.670	411
809.770	863
809.870	1144
809.970	1569
810.070	407
810.169	1709
810.269	-665
810.369	1647
810.469	1444
810.568	242
810.668	-12
810.768	327
810.867	1030
810.967	822
811.066	316
811.166	511
811.265	1503
811.365	695
811.464	462
811.564	375
811.663	1513
811.763	-417
811.862	787
811.962	2345
812.061	1042
812.160	-22
812.260	1065
812.359	1769
812.458	1047
812.557	6062
812.657	6048
812.756	2589
812.855	974
812.954	473
813.053	683
813.153	790
813.252	-534
813.351	669
813.450	566
813.549	185
813.648	554
813.747	960
813.846	1571
813.945	221
814.044	767
814.143	1328
814.242	1140
814.341	813
814.439	1103
814.538	1575
814.637	626
814.736	1085
814.835	1298
814.933	316
815.032	1951
815.131	2681
815.229	645
815.328	2496
815.427	806
815.525	2056
815.624	1443
815.722	1931
815.821	1944
815.919	1934
816.018	1261
816.116	2917
816.215	1836
816.313	2193
816.412	1790
816.510	1994
816.609	2750
816.707	1745
816.805	1640
816.904	1260
817.002	2560
817.100	2596
817.198	2707
817.296	1927
817.395	2182
817.493	2107
817.591	1858
817.689	1595
817.787	1904
817.885	1755
817.983	2669
818.081	3249
818.179	5271
818.277	11179
818.375	8759
818.473	3936
818.571	2544
818.669	1548
818.767	1420
818.865	2071
818.963	1449
819.061	2462
819.158	2314
819.256	6222
819.354	8522
819.452	21771
819.549	10581
819.647	4280
819.745	2150
819.842	2739
819.940	2026
820.038	1425
820.135	1297
820.233	2425
820.330	1027
820.428	1270
820.525	3135
820.623	2099
820.720	1250
820.818	2353
820.915	3975
821.012	6677
821.110	842
821.207	2320
821.304	648
821.402	1019
821.499	2437
821.596	2289
821.693	1132
821.791	1786
821.888	1736
821.985	2032
822.082	1123
822.179	3161
822.276	1629
822.373	2447
822.470	1209
822.567	1879
822.664	1481
822.761	2088
822.858	715
822.955	1632
823.052	737
823.149	1935
823.246	834
823.343	791
823.440	1592
823.536	1101
823.633	762
823.730	1389
823.827	1590
823.923	2207
824.020	2166
824.117	1818
824.213	668
824.310	2375
824.407	1126
824.503	1340
824.600	1445
824.696	1202
824.793	1113
824.889	389
824.986	1331
825.082	1047
825.179	2236
825.275	1424
825.371	739
825.468	1620
825.564	282
825.660	2083
825.757	1220
825.853	1909
825.949	830
826.045	1203
826.142	886
826.238	1036
826.334	890
826.430	-257
826.526	2245
826.622	1318
826.718	175
826.814	658
826.910	2026
827.006	1296
827.102	114
827.198	2108
827.294	636
827.390	1353
827.486	1829
827.582	542
827.678	619
827.774	1708
827.869	827
827.965	1669
828.061	354
828.157	1011
828.252	578
828.348	-90
828.444	1764
828.539	127
828.635	190
828.731	1752
828.826	-11
828.922	1255
829.017	243
829.113	1013
829.208	611
829.304	946
829.399	2441
829.495	951
829.590	1588
829.685	694
829.781	477
829.876	849
829.971	812
830.066	94
830.162	1127
830.257	-26
830.352	446
830.447	1634
830.543	646
830.638	-495
830.733	959
830.828	150
830.923	1253
831.018	825
831.113	1180
831.208	104
831.303	923
831.398	1245
831.493	-291
831.588	470
831.683	-703
831.778	1659
831.873	775
831.967	1395
832.062	495
832.157	-123
832.252	977
832.346	892
832.441	1211
832.536	1969
832.631	1387
832.725	1391
832.820	-388
832.914	976
833.009	103
833.104	586
833.198	999
833.293	295
833.387	31
833.482	1263
833.576	596
833.670	877
833.765	67
833.859	654
833.954	314
834.048	626
834.142	1209
834.237	580
834.331	-245
834.425	-599
834.519	-299
834.613	1352
834.708	198
834.802	838
834.896	-192
834.990	445
835.084	793
835.178	202
835.272	-262
835.366	286
835.460	1262
835.554	-156
835.648	242
835.742	-142
835.836	1235
835.930	-1286
836.024	-6
836.117	1105
836.211	-676
836.305	1180
836.399	470
836.493	-336
836.586	858
836.680	-365
836.774	8
836.867	1589
836.961	-349
837.055	-591
837.148	2
837.242	1196
837.335	402
837.429	561
837.522	73
837.616	704
837.709	201
837.803	-584
837.896	754
837.989	692
838.083	883
838.176	400
838.269	313
838.363	826
838.456	-354
838.549	1028
838.642	245
838.735	1943
838.829	967
838.922	187
839.015	349
839.108	-873
839.201	500
839.294	449
839.387	684
839.480	-521
839.573	514
839.666	340
839.759	-317
839.852	21
839.945	713
840.038	151
840.131	-398
840.223	824
840.316	1352
840.409	205
840.502	-323
840.594	1451
840.687	-152
840.780	507
840.873	-922
840.965	562
841.058	675
841.150	482
841.243	-216
841.336	372
841.428	160
841.521	-121
841.613	-506
841.706	306
841.798	607
841.890	713
841.983	-58
842.075	478
842.167	138
842.260	407
842.352	776
842.444	1031
842.537	1032
842.629	1657
842.721	524
842.813	180
842.905	-796
842.997	96
843.090	43
843.182	122
843.274	393
843.366	1949
843.458	2315
843.550	2309
843.642	-237
843.734	364
843.826	81
843.918	359
844.009	121
844.101	305
844.193	364
844.285	713
844.377	471
844.469	535
844.560	-264
844.652	863
844.744	370
844.835	280
844.927	-230
845.019	48
845.110	308
845.202	444
845.293	-102
845.385	-874
845.476	868
845.568	-10
845.659	-253
845.751	137
845.842	-859
845.934	-216
846.025	78
846.116	1284
846.208	-262
846.299	-488
846.390	75
846.482	511
846.573	332
846.664	378
846.755	-268
846.846	1362
846.937	-1376
847.029	-258
847.120	-577
847.211	142
847.302	721
847.393	-714
847.484	-405
847.575	-328
847.666	-56
847.757	-467
847.847	390
847.938	1145
848.029	-186
848.120	-859
848.211	-405
848.302	98
848.392	-328
848.483	635
848.574	-593
848.664	31
848.755	-16
848.846	508
848.936	103
849.027	58
849.118	-76
849.208	-1006
849.299	630
849.389	479
849.480	190
849.570	755
849.661	717
849.751	2422
849.841	79
849.932	513
850.022	-594
850.112	123
850.203	-997
850.293	-396
850.383	-348
850.474	8
850.564	-212
850.654	317
850.744	-784
850.834	-921
850.924	-345
851.014	-300
851.104	-333
851.194	-443
851.284	825
851.374	735
851.464	157
851.554	-29
851.644	-283
851.734	1468
851.824	1087
851.914	1714
852.004	4457
852.094	4212
852.183	309
852.273	-84
852.363	-396
852.452	759
852.542	35
852.632	99
852.721	-693
852.811	-269
852.901	343
852.990	-332
853.080	-523
853.169	154
853.259	-504
853.348	-242
853.438	441
853.527	734
853.617	-855
853.706	363
853.795	-59
853.885	3985
853.974	4408
854.063	10831
854.152	14518
854.242	4281
854.331	671
854.420	94
854.509	-194
854.598	87
854.687	-43
854.777	368
854.866	-107
854.955	117
855.044	-635
855.133	-623
855.222	-187
855.311	19
855.400	-36
855.488	782
855.577	1604
855.666	5394
855.755	9580
855.844	17250
855.933	24472
856.021	7506
856.110	764
856.199	-183
856.288	-523
856.376	364
856.465	166
856.554	-148
856.642	-550
856.731	52
856.819	1053
856.908	-10
856.996	600
857.085	10
857.173	241
857.262	-196
857.350	88
857.438	-377
857.527	824
857.615	206
857.703	785
857.792	-494
857.880	-377
857.968	-174
858.056	261
858.145	337
858.233	-908
858.321	-808
858.409	-238
858.497	-317
858.585	-509
858.673	-192
858.761	-244
858.849	-238
858.937	-891
859.025	121
859.113	218
859.201	56
859.289	241
859.377	-242
859.465	-643
859.552	580
859.640	-263
859.728	876
859.816	10
859.903	919
859.991	-240
860.079	372
860.166	157
860.254	459
860.342	182
860.429	221
860.517	-450
860.604	-14
860.692	282
860.779	413
860.867	92
860.954	81
861.042	53
861.129	309
861.216	447
861.304	28
861.391	-4
861.478	961
861.565	522
861.653	505
861.740	125
861.827	524
861.914	549
862.001	1128
862.089	587
862.176	487
862.263	33
862.350	946
862.437	680
862.524	354
862.611	-56
862.698	957
862.785	615
862.871	527
862.958	165
863.045	173
863.132	-53
863.219	-91
863.306	-770
863.392	666
863.479	-713
863.566	67
863.652	555
863.739	-104
863.826	177
863.912	711
863.999	-568
864.086	294
864.172	396
864.259	691
864.345	490
864.432	187
864.518	-487
864.604	1117
864.691	-268
864.777	267
864.863	1121
864.950	278
865.036	-715
865.122	644
865.209	978
865.295	1069
865.381	-15
865.467	727
865.553	1044
865.639	975
865.726	465
865.812	1752
865.898	3845
865.984	3701
866.070	7182
866.156	8029
866.242	1273
866.328	1119
866.414	205
866.499	479
866.585	-286
866.671	452
866.757	307
866.843	642
866.928	187
867.014	891
867.100	941
867.186	-102
867.271	30
867.357	-31
867.442	40
867.528	104
867.614	-363
867.699	652
867.785	957
867.870	186
867.956	-189
868.041	798
868.127	561
868.212	681
868.297	919
868.383	686
868.468	868
868.553	803
868.639	661
868.724	1080
868.809	1244
868.894	788
868.979	258
869.065	899
869.150	174
869.235	244
869.320	-165
869.405	374
869.490	207
869.575	760
869.660	940
869.745	745
869.830	-1062
869.915	-53
870.000	16
870.085	550
870.169	368
870.254	187
870.339	-554
870.424	-626
870.509	144
870.593	34
870.678	-202
870.763	-79
870.847	-581
870.932	-1177
871.016	-117
871.101	-306
871.186	-577
871.270	492
871.355	96
871.439	795
871.523	-207
871.608	-236
871.692	-411
871.777	217
871.861	532
871.945	-236
872.030	558
872.114	-365
872.198	-529
872.282	-322
872.367	-512
872.451	-378
872.535	-311
872.619	735
872.703	-596
872.787	-103
872.871	-365
872.955	-779
873.039	-997
873.123	-681
873.207	545
873.291	40
873.375	-698
873.459	264
873.543	-777
873.627	-384
873.711	-309
873.794	513
873.878	-590
873.962	-705
874.045	-546
874.129	-1334
874.137	-1317
874.213	-1143
874.245	-1067
874.296	-955
874.352	-1147
874.380	-1239
874.460	-306
874.464	-269
874.547	-623
874.568	-603
874.631	-543
874.676	-479
874.714	-434
874.784	50
874.798	157
874.881	492
874.892	296
874.965	-1123
874.999	-888
875.048	-547
875.107	-722
875.131	-800
875.215	-213
875.215	-213
875.298	-604
875.323	-830
875.381	-1391
875.430	-1080
875.465	-821
875.538	-963
875.548	-995
875.631	-65
875.646	-295
875.714	-1333
875.753	-817
875.798	-270
875.861	-354
875.881	-381
875.964	-683
875.968	-694
876.047	-847
876.076	-634
876.130	-244
876.183	-684
876.213	-912
876.291	-114
876.296	-60
876.379	-305
876.398	-253
876.462	-200
876.506	-565
876.545	-788
876.613	7
876.628	146
876.711	-429
876.721	-441
876.794	-376
876.828	-343
876.877	-473
876.935	-763
876.960	-713
877.043	-234
877.043	-232
877.125	-116
877.150	-183
877.208	-76
877.258	-269
877.291	-519
877.365	-459
877.374	-434
877.456	-125
877.472	-173
877.539	-374
877.579	-572
877.622	-771
877.687	-301
877.704	-189
877.787	-876
877.794	-886
877.869	-864
877.901	-918
877.952	-1167
878.008	-1094
878.034	-926
878.115	-191
878.117	-183
878.199	-859
878.222	-887
878.282	-656
878.329	-468
878.364	-604
878.437	-4
878.447	174
878.529	-712
878.544	-564
878.611	-399
878.651	-368
878.694	-117
878.758	6
878.776	-31
878.858	-345
878.865	-336
878.941	-14
878.972	-131
879.023	-591
879.078	-1130
879.105	-1122
879.185	-237
879.187	-233
879.269	-152
879.292	-489
879.351	-855
879.399	-505
879.433	-489
879.506	-400
879.516	-320
879.598	-168
879.613	-113
879.680	-285
879.720	-62
879.762	246
879.827	-231
879.844	-377
879.926	-124
879.933	-138
880.007	-117
880.040	-285
880.089	-611
880.147	-181
880.171	44
880.253	550
880.254	547
880.335	-284
880.360	-85
880.417	501
880.467	837
880.499	1041
880.574	1460
880.580	1513
880.662	70
880.680	175
880.744	-117
880.787	-537
880.825	-571
880.893	-324
880.907	-336
880.989	-963
881.000	-919
881.070	-376
881.106	-362
881.152	-427
881.213	-434
881.233	-341
881.315	55
881.319	75
881.396	-86
881.426	-248
881.478	-349
881.532	-41
881.559	-14
881.639	-570
881.641	-568
881.722	-15
881.745	-124
881.803	-431
881.852	-85
881.885	-97
881.958	-850
881.966	-923
882.047	-381
882.064	-477
882.129	-355
882.171	-146
882.210	-229
882.277	-586
882.291	-557
882.372	-260
882.383	-193
882.454	-75
882.489	-25
882.535	-49
882.596	-458
882.616	-516
882.697	-447
882.702	-426
882.778	-70
882.808	139
882.859	114
882.914	-545
882.940	-522
883.020	84
883.021	85
883.102	-323
883.127	-347
883.183	-175
883.233	-182
883.264	-378
883.339	-774
883.345	-734
883.426	-27
883.445	2
883.507	-391
883.551	-513
883.587	-640
883.657	-482
883.668	-359
883.749	-517
883.763	-344
883.830	79
883.869	55
883.910	-70
883.975	-426
883.991	-417
884.072	-1
884.081	15
884.152	-590
884.187	-790
884.233	-318
884.292	-74
884.314	-362
884.394	-906
884.398	-945
884.475	-452
884.504	-361
884.555	-705
884.610	-604
884.636	-287
884.716	197
884.716	197
884.797	-303
884.821	-379
884.877	127
884.927	684
884.958	541
885.033	-492
885.038	-499
885.118	-183
885.139	-84
885.199	-385
885.244	-754
885.279	-518
885.350	68
885.359	24
885.439	-84
885.456	-238
885.520	-314
885.561	-154
885.600	-325
885.667	-602
885.680	-456
885.760	305
885.773	425
885.840	-79
885.878	-225
885.920	-42
885.984	-89
886.000	-108
886.080	-135
886.089	-152
886.160	250
886.195	644
886.240	262
886.300	-676
886.320	-603
886.400	129
886.406	159
886.480	16
886.511	4
886.560	-30
886.616	-223
886.640	-332
886.720	-381
886.722	-387
886.800	-94
886.827	-6
886.879	-406
886.932	-895
886.959	-575
887.038	598
887.039	599
887.119	17
887.143	-100
887.198	38
887.248	88
887.278	-70
887.354	-263
887.358	-236
887.437	-117
887.459	9
887.517	-366
887.564	-710
887.596	-252
887.669	625
887.676	562
887.755	-146
887.774	-315
887.835	53
887.880	315
887.914	140
887.985	-227
887.994	-192
888.073	44
888.090	106
888.153	-35
888.195	-132
888.232	12
888.300	247
888.311	168
888.391	-403
888.405	-492
888.470	75
888.510	304
888.549	240
888.615	294
888.628	262
888.708	15
888.720	-28
888.787	-252
888.825	-382
888.866	-303
888.930	-218
888.945	-154
889.024	220
889.035	269
889.103	257
889.140	237
889.182	119
889.245	-46
889.261	30
889.340	372
889.349	411
889.419	176
889.454	64
889.498	84
889.559	104
889.577	-5
889.656	-480
889.664	-524
889.735	600
889.768	1133
889.814	759
889.873	260
889.978	250
890.083	-389
890.187	-239
890.292	-258
890.397	274
890.501	229
890.606	109
890.710	-22
890.815	191
890.919	-857
891.024	278
891.128	-413
891.233	837
891.337	-2
891.442	3
891.546	92
891.650	422
891.755	-400
891.859	1818
891.963	128
892.068	618
892.172	-543
892.276	709
892.380	-697
892.484	145
892.589	-683
892.693	183
892.797	-445
892.901	321
893.005	-215
893.109	-16
893.213	-241
893.317	114
893.421	-379
893.525	-174
893.629	-297
893.733	72
893.837	-514
893.941	324
894.045	160
894.148	-200
894.252	1001
894.356	900
894.460	-22
894.564	459
894.667	168
894.771	62
894.875	-1199
894.978	-20
895.082	-213
895.186	154
895.289	129
895.393	239
895.496	-779
895.600	-297
895.703	344
895.807	-225
895.910	164
896.014	-29
896.117	-939
896.221	1359
896.324	-695
896.427	386
896.531	-1156
896.634	-784
896.737	-657
896.840	80
896.944	-935
897.047	152
897.150	-17
897.253	-326
897.356	-1344
897.460	-99
897.563	-246
897.666	238
897.769	-280
897.872	730
897.975	-824
898.078	-304
898.181	-438
898.284	259
898.387	-485
898.490	3
898.593	-711
898.695	-613
898.798	-422
898.901	825
899.004	-160
899.107	546
899.209	-782
899.312	261
899.415	-32
899.518	-259
899.620	-731
899.723	136
899.826	-345
899.928	348
900.031	-520
900.133	-294
900.236	-687
900.338	200
900.441	3
900.543	-321
900.646	-802
900.748	-177
900.851	-777
900.953	-150
901.055	-1128
901.158	-4
901.260	-108
901.362	220
901.465	-1070
901.567	-171
901.669	-403
901.771	11
901.873	-333
901.976	124
902.078	-703
902.180	181
902.282	-1013
902.384	-511
902.486	-1012
902.588	362
902.690	-870
902.792	-396
902.894	-197
902.996	-692
903.098	-559
903.200	-118
903.302	-356
903.404	-285
903.505	-673
903.607	10
903.709	-629
903.811	47
903.913	-686
904.014	-1097
904.116	-1021
904.218	-443
904.319	-569
904.421	158
904.523	-154
904.624	392
904.726	-1176
904.827	-477
904.929	-766
905.030	314
905.132	-1048
905.233	8
905.335	-1078
905.436	373
905.537	-517
905.639	-408
905.740	-672
905.841	-612
905.943	-827
906.044	-230
906.145	-155
906.247	-842
906.348	-821
906.449	157
906.550	-1277
906.651	147
906.752	-426
906.854	-387
906.955	-183
907.056	35
907.157	-1223
907.258	350
907.359	-1384
907.460	-350
907.561	-841
907.662	-381
907.762	-486
907.863	-654
907.964	-1032
908.065	-625
908.166	-722
908.267	-434
908.367	-840
908.468	-223
908.569	-652
908.670	-334
908.770	-418
908.871	-800
908.971	-1296
909.072	-378
909.173	-1297
909.273	-161
909.374	-1115
909.474	-713
909.575	-492
909.675	321
909.776	-498
909.876	-1009
909.977	-441
910.077	-149
910.177	-676
910.278	-659
910.378	-637
910.478	102
910.579	-1746
910.679	-79
910.779	-467
910.879	-592
910.980	-1384
911.080	-384
911.180	-1193
911.280	-382
911.380	-464
911.480	137
911.580	-948
911.680	-348
911.780	-770
911.880	-608
911.980	-1266
912.080	-141
912.180	-1279
912.280	-617
912.380	10
912.480	70
912.580	-609
912.679	-236
912.779	-864
912.879	-246
912.979	-858
913.078	-782
913.178	-1214
913.278	-1105
913.377	-670
913.477	-144
913.577	-963
913.676	140
913.776	-1633
913.875	-536
913.975	-1030
914.074	-646
914.174	-693
914.273	-755
914.373	-230
914.472	111
914.572	-968
914.671	-611
914.770	-1441
914.870	-364
914.969	-1175
915.068	-285
915.167	-427
915.267	-666
915.366	-1077
915.465	-611
915.564	155
915.663	-794
915.763	-1029
915.862	178
915.961	-1302
916.060	-463
916.159	-1243
916.258	-1117
916.357	-1236
916.456	69
916.555	-1505
916.654	-922
916.752	-1160
916.851	221
916.950	-1245
917.049	-746
917.148	-1327
917.247	-86
917.345	-1792
917.444	-657
917.543	-955
917.642	18
917.740	-1460
917.839	-411
917.937	-545
918.036	-133
918.135	-277
918.233	-470
918.332	-720
918.430	65
918.529	-994
918.627	-506
918.726	-873
918.824	-644
918.923	-1778
919.021	-192
919.119	-634
919.218	-862
919.316	-539
919.414	-1071
919.512	-1673
919.611	-1024
919.709	-1760
919.807	-584
919.905	-1292
920.003	-592
920.102	-1222
920.200	-79
920.298	-1107
920.396	-321
920.494	-632
920.592	-742
920.690	-115
920.788	-1126
920.886	-1651
920.984	-800
921.082	-1135
921.180	343
921.277	-1325
921.375	-608
921.473	-1736
921.571	-601
921.669	-552
921.766	-1347
921.864	-1288
921.962	-165
922.060	-1487
922.157	-124
922.255	-1041
922.352	-509
922.450	-524
922.548	-897
922.645	-1458
922.743	-521
922.840	-1299
922.938	-290
923.035	-622
923.133	-271
923.230	-814
923.327	-800
923.425	-926
923.522	-315
923.619	-1394
923.717	-558
923.814	-931
923.911	-199
924.008	-758
924.106	-199
924.203	-1057
924.300	-1242
924.397	-1471
924.494	-174
924.591	-889
924.688	-658
924.786	-966
924.883	-295
924.979	-1487
925.077	-328
925.173	28
925.270	-518
925.367	-1491
925.464	120
925.561	-1222
925.658	-1067
925.755	-443
925.852	-286
925.948	-1287
926.045	-101
926.142	-1633
926.239	-942
926.335	-1265
926.432	-260
926.529	-1073
926.625	-455
926.722	-1422
926.818	-79
926.915	-715
927.011	-458
927.108	-1052
927.204	-442
927.301	-856
927.397	-21
927.494	-1456
927.590	-616
927.687	-899
927.783	314
927.879	-1210
927.976	-764
928.072	-677
928.168	-80
928.264	-1168
928.361	-475
928.457	-1097
928.553	-1597
928.649	-518
928.745	-456
928.841	-975
928.937	-420
929.033	-1421
929.129	-304
929.225	-714
929.321	-375
929.417	-1107
929.513	-363
929.609	-1553
929.705	-8
929.801	-911
929.897	-922
929.993	-1169
930.089	-405
930.184	-1026
930.280	-528
930.376	-1367
930.471	-662
930.567	-624
930.663	-449
930.758	-1492
930.854	-1427
930.950	-1049
931.045	-452
931.141	-1228
931.236	-841
931.332	-1493
931.427	-1002
931.523	-1870
931.618	-775
931.714	-1703
931.809	-687
931.905	-1107
932.000	-1319
932.095	-830
932.191	620
932.286	-1583
932.381	-617
932.476	-1097
932.572	-284
932.667	-1243
932.762	-874
932.857	-1515
932.952	13
933.047	-1263
933.142	-480
933.237	-602
933.332	-374
933.427	-1298
933.522	-1414
933.617	-1560
933.712	-156
933.807	-988
933.902	-1719
933.997	-1829
934.092	-1058
934.187	-1690
934.282	-259
934.376	-1311
934.471	39
934.566	-1364
934.661	-951
934.755	-1819
934.850	-1149
934.945	-2048
935.039	-624
935.134	-1744
935.228	-825
935.323	-906
935.417	-1063
935.512	-1743
935.606	-1020
935.701	-1017
935.795	-434
935.890	-1479
935.984	-971
936.079	-1588
936.173	-616
936.267	-1784
936.362	-990
936.456	-1580
936.550	-375
936.644	-1166
936.738	-736
936.833	-735
936.927	-199
937.021	316
937.115	-845
937.209	-2072
937.303	211
937.397	-1723
937.491	-893
937.585	-1381
937.679	-488
937.773	-1299
937.867	-309
937.961	-1014
938.055	-1082
938.149	-867
938.243	-427
938.337	-1788
938.430	134
938.524	-437
938.618	-1175
938.712	-483
938.805	-670
938.899	-1223
938.993	-603
939.086	-1101
939.180	-570
939.274	-966
939.367	-983
939.461	-1621
939.554	-1581
939.648	-1753
939.741	-1511
939.835	-1471
939.928	100
940.022	-1665
940.115	-1237
940.208	-1529
940.302	-983
940.395	-1171
940.488	-1849
940.582	-647
940.675	-943
940.768	-1154
940.861	-353
940.954	-857
941.048	-1008
941.141	-1368
941.234	-1149
941.327	-2030
941.420	-1144
941.513	-1576
941.606	-1477
941.699	-481
941.792	-1202
941.885	-951
941.978	-861
942.071	-1719
942.164	-2210
942.257	112
942.349	-1180
942.442	-619
942.535	-1404
942.628	-1767
942.721	-626
942.813	-2276
942.906	-486
942.999	-1789
943.091	-674
943.184	-1848
943.277	-1182
943.369	-1441
943.462	-1130
943.554	-1152
943.647	-1347
943.739	-1344
943.832	-572
943.924	-1583
944.017	64
944.109	-1962
944.201	-1461
944.294	-986
944.386	-845
944.478	-860
944.571	-1180
944.663	-2072
944.755	-1305
944.847	-1253
944.940	-1089
945.032	-2530
945.124	-1276
945.216	-591
945.308	-985
945.400	-692
945.492	-720
945.584	-1303
945.676	-434
945.768	-1629
945.860	-474
945.952	-2185
946.044	-754
946.136	-1139
946.228	-976
946.320	-1335
946.412	-1883
946.503	-1368
946.595	-570
946.687	-1746
946.779	-1533
946.870	-1770
946.962	-351
947.054	-1094
947.145	-747
947.237	-1675
947.329	-45
947.420	-1469
947.512	-1041
947.603	-1485
947.695	-634
947.786	-1436
947.878	-701
947.969	-1178
948.061	-1585
948.152	-1608
948.243	-1267
948.335	-954
948.426	-1408
948.517	-2127
948.609	-875
948.700	-1544
948.791	-1087
948.882	-911
948.973	-13
949.065	-1780
949.156	-247
949.247	-2009
949.338	-475
949.429	-2105
949.520	-700
949.611	-3135
949.702	-1023
949.793	-468
949.884	-316
949.975	-1939
950.066	-765
950.157	-2374
950.247	-45
950.338	-1806
950.429	-1018
950.520	-1307
950.611	-1119
950.701	-1649
950.792	-1032
950.883	-2005
950.973	-701
951.064	-1990
951.155	-594
951.245	-1129
951.336	-923
951.427	-2157
951.517	-545
951.608	-1681
951.698	-1444
951.788	-1243
951.879	-771
951.969	-2015
952.060	-923
952.150	-1027
952.240	-886
952.331	-2204
952.421	168
952.511	-2171
952.602	-1289
952.692	-1078
952.782	-627
952.872	-1637
952.962	-1134
953.052	-2399
953.143	-1905
953.233	-819
953.323	-607
953.413	-2000
953.503	-510
953.593	-1873
953.683	-823
953.773	-2735
953.863	-904
953.953	-1564
954.042	-1026
954.132	-1765
954.222	-1335
954.312	-1180
954.402	-1475
954.492	-1562
954.581	-473
954.671	-1983
954.761	-1726
954.850	-239
954.940	-1360
955.030	-1999
955.119	-1300
955.209	-1378
955.298	-1918
955.388	-1534
955.477	-445
955.567	-1919
955.656	-797
955.746	-1920
955.835	-845
955.925	-1076
956.014	-347
956.103	-1412
956.193	-879
956.282	-1443
956.371	-334
956.461	-2166
956.550	-985
956.639	-2029
956.728	-1034
956.817	-1585
956.906	-1359
956.995	-1976
957.085	-697
957.174	-1789
957.263	-1799
957.352	-1221
957.441	-1155
957.530	-1172
957.619	-29
957.708	-1872
957.796	-460
957.885	-1226
957.974	-97
958.063	-1004
958.152	-1761
958.241	-873
958.329	-890
958.418	-1374
958.507	-1964
958.596	-350
958.684	-2252
958.773	-1611
958.861	-382
958.950	-707
959.039	-976
959.127	-1567
959.216	-775
959.304	-1441
959.393	-1172
959.481	-1212
959.570	-658
959.658	-1198
959.746	-958
959.835	-932
959.923	-1869
960.011	-1289
960.100	319
960.188	-1395
960.276	-1444
960.365	-1406
960.453	-1141
960.541	-2561
960.629	-1842
960.717	-1382
960.805	-1080
960.893	-1616
960.981	-1295
961.069	-554
961.158	-1362
961.245	-1594
961.333	-1607
961.421	-1896
961.509	-1073
961.597	-1909
961.685	-702
961.773	-1821
961.861	-1399
961.949	-1142
962.036	-1661
962.124	-759
962.212	-723
962.299	-1772
962.387	-1464
962.475	-1394
962.562	-1260
962.650	-1422
962.738	-1163
962.825	-2053
962.913	-995
963.000	-1631
963.088	-1358
963.175	-1922
963.263	-883
963.350	-1153
963.438	-1625
963.525	-1795
963.612	-518
963.700	-1633
963.787	-6
963.874	-1327
963.962	-32
964.049	-1171
964.136	-817
964.223	-1772
964.310	-1029
964.398	-1260
964.485	-1158
964.572	-1265
964.659	-1113
964.746	-1432
964.833	-963
964.920	-1169
965.007	-1461
965.094	-1410
965.181	-746
965.268	-1480
965.355	-1077
965.441	-1355
965.528	-2125
965.615	-1429
965.702	-1251
965.789	-2198
965.875	-1539
965.962	-1552
966.049	-1744
966.136	-1397
966.222	-1744
966.309	-1460
966.395	-1456
966.482	-1163
966.569	-1407
966.655	-1205
966.742	-1434
966.828	-1265
966.915	-853
967.001	-1498
967.087	-1925
967.174	-1436
967.260	315
967.347	-1496
967.433	-1473
967.519	-1265
967.605	-588
967.692	-1860
967.778	-766
967.864	-1884
967.950	-1478
968.036	-2537
968.123	-1324
968.209	-2455
968.295	-1155
968.381	-698
968.467	-849
968.553	-3178
968.639	-745
968.725	-2409
968.811	-1152
968.897	-1143
968.983	-1354
969.069	-1976
969.154	-171
969.240	-1238
969.326	-2299
969.412	-1793
969.497	-966
969.583	-1914
969.669	253
969.755	-1807
969.840	-1246
969.926	-1202
970.012	-1018
970.097	-2082
970.183	-1820
970.268	-1781
970.354	-148
970.439	-2746
970.525	-897
970.610	-2153
970.696	46
970.781	-1289
970.866	-1621
970.952	-1307
971.037	-984
971.122	-2459
971.208	-81
971.293	-2145
971.378	-2910
971.463	-1786
971.549	-1110
971.634	-2708
971.719	-1126
971.804	-2032
971.889	-895
971.974	-1939
972.059	-900
972.144	-1672
972.229	-500
972.314	-2233
972.399	-960
972.484	-2018
972.569	-270
972.654	-3243
972.739	24
972.824	-1694
972.908	-1581
972.993	-1799
973.078	-1896
973.163	-1386
973.247	-1247
973.332	-3810
973.417	141
973.501	-1991
973.586	-1206
973.671	-2145
973.755	-1343
973.840	-1230
973.924	-620
974.009	-2522
974.093	-1907
974.178	-874
974.262	-1002
974.346	-2391
974.431	-1267
974.515	-1764
974.600	-1136
974.684	-913
974.768	-1542
974.852	-878
974.937	-1918
975.021	-1394
975.105	-1326
975.189	-2611
975.273	-661
975.358	-2699
975.442	-1718
975.526	-495
975.610	-2126
975.694	-2441
975.778	-221
975.862	-1360
975.946	-3117
976.030	-439
976.114	-1494
976.198	-1665
976.281	-1587
976.365	-1057
976.449	-1353
976.533	-841
976.617	-1106
976.700	-1833
976.784	-1521
976.868	-2571
976.951	-594
977.035	-1904
977.119	-1291
977.202	-1606
977.286	-1367
977.369	-2387
977.453	-797
977.536	-1900
977.620	-2482
977.703	-1987
977.787	-2156
977.870	-1257
977.953	-868
978.037	-3293
978.120	-496
978.203	-2146
978.287	-1704
978.370	-2453
978.453	-999
978.536	-2249
978.620	-1404
978.703	-2114
978.786	-1525
978.869	-1766
978.952	-2232
979.035	-1345
979.118	57
979.201	-3019
979.284	-455
979.367	-2388
979.450	-529
979.533	-1701
979.616	-1324
979.699	-2832
979.782	-779
979.865	-1552
979.948	-1833
980.030	-1947
980.113	-1457
980.196	-2910
980.279	-281
980.361	-2074
980.444	-1157
980.526	-1402
980.609	-1468
980.692	-2841
980.774	-1156
980.857	-3195
980.939	-881
981.022	-2552
981.104	-1806
981.187	-2652
981.269	-1752
981.352	-1635
981.434	-2126
981.516	-2424
981.599	-638
981.681	-1327
981.763	-1387
981.846	-1173
981.928	-1711
982.010	-2542
982.092	-2212
982.174	-984
982.256	-1375
982.339	-1860
982.421	-1242
982.503	-1875
982.585	-2404
982.667	-1666
982.749	-1858
982.831	-1215
982.913	-1921
982.995	-1134
983.077	-1346
983.158	-1018
983.240	-2822
983.322	-1957
983.404	-729
983.486	-2222
983.568	-863
983.649	-2230
983.731	-1342
983.813	-1898
983.894	-1629
983.976	-2684
984.058	-1865
984.139	-1279
984.221	-2476
984.302	-1831
984.384	-1322
984.465	-2783
984.547	-1207
984.628	-1740
984.710	-1229
984.791	-1769
984.872	-1377
984.954	-2118
985.035	-1018
985.116	-2732
985.198	-2381
985.279	-1509
985.360	-2026
985.441	-1892
985.522	-892
985.604	-3228
985.685	-3163
985.766	-1381
985.847	-337
985.928	-2679
986.009	-1452
986.090	-1769
986.171	-1179
986.252	-2230
986.333	-1218
986.414	-2715
986.495	-1082
986.576	-2091
986.656	-2149
986.737	-1766
986.818	-1757
986.899	-2168
986.980	-1775
987.060	-1230
987.141	-2036
987.222	-2540
987.302	-913
987.383	-1529
987.464	-2111
987.544	-2046
987.625	-1781
987.705	-2349
987.786	-1081
987.866	-2737
987.947	-1588
988.027	-2257
988.108	-1889
988.188	-1395
988.268	-1770
988.349	-1538
988.429	-1582
988.509	-1979
988.589	-2128
988.670	-4258
988.750	-19
988.830	-2254
988.910	-1204
988.990	-1436
989.070	-1211
989.151	-1494
989.231	-2769
989.311	-1492
989.391	-1538
989.471	-2329
989.551	-2017
989.631	-3629
989.711	-875
989.791	-2489
989.870	-2398
989.950	-1398
990.030	-883
990.110	-2232
990.190	-2359
990.269	-2002
990.349	-1658
990.429	-2229
990.509	-992
990.588	-2789
990.668	-1000
990.747	-2098
990.827	-951
990.907	-1121
990.986	-1805
991.066	-2152
991.145	-1294
991.225	-1323
991.304	-1693
991.383	-1574
991.463	-1658
991.542	-2249
991.622	-2127
991.701	-2934
991.780	-2344
991.859	-2631
991.939	-1423
992.018	-2034
992.097	-1180
992.176	-2637
992.256	-2324
992.335	-2750
992.414	-943
992.493	-2645
992.572	-1844
992.651	-1436
992.730	-1007
992.809	-2348
992.888	-1477
992.967	-1911
993.046	-525
993.125	-2507
993.203	-1871
993.282	-2257
993.361	-2353
993.440	-2005
993.519	-2439
993.597	-1961
993.676	-1999
993.755	-1591
993.834	-1283
993.912	-2803
993.991	-368
994.069	-2663
994.148	-1382
994.226	-2774
994.305	-1452
994.384	-1884
994.462	-908
994.540	-3091
994.619	-2023
994.697	-1361
994.776	-2083
994.854	-2473
994.932	-1570
995.011	-1611
995.089	-1740
995.167	-1885
995.245	-996
995.324	-1911
995.402	-1194
995.480	-3053
995.558	-1616
995.636	-2171
995.714	-2457
995.792	-1183
995.870	-1597
995.948	-2427
996.026	-563
996.104	-2855
996.182	-914
996.260	-1690
996.338	-1649
996.416	-2854
996.494	-1256
996.572	-897
996.649	-1467
996.727	-2323
996.805	-1177
996.883	-2700
996.960	-1749
997.038	-1638
997.116	-1021
997.193	-2334
997.271	-893
997.348	-2926
997.426	-906
997.504	-2638
997.581	-1382
997.658	-1541
997.736	-1286
997.813	-2215
997.891	-1021
997.968	-1654
998.046	-624
998.123	-2103
998.200	-592
998.277	-2073
998.355	-859
998.432	-3028
998.509	-1282
998.586	-1500
998.663	-1346
998.741	-2436
998.818	-1817
998.895	-3168
998.972	-1045
999.049	-1526
999.126	-2526
999.203	-1566
999.280	-1742
999.357	-3080
999.434	-1894
999.511	-2722
999.587	-1076
999.664	-2463
999.741	-1239
999.818	-1765
999.895	-1750
999.971	-2220
1000.048	-1404
1000.125	-877
1000.202	-2247
1000.278	-2092
1000.355	-264
1000.431	-1891
1000.508	-1871
1000.584	-1701
1000.661	-1933
1000.738	-2610
1000.814	-2194
1000.890	-2668
1000.967	-2368
1001.043	-1545
1001.120	-2000
1001.196	-2053
1001.272	-1614
1001.349	-1944
1001.425	-1267
1001.501	-1936
1001.577	-1485
1001.654	-1458
1001.730	-1739
1001.806	-2190
1001.882	-2405
1001.958	-1645
1002.034	-1545
1002.110	-2059
1002.186	-893
1002.262	-2802
1002.338	-1938
1002.414	-1764
1002.490	-1215
1002.566	-2130
1002.642	-1072
1002.718	-1546
1002.794	-628
1002.870	-2602
1002.945	-1625
1003.021	-1611
1003.097	-1812
1003.173	-1363
1003.248	-1933
1003.324	-1332
1003.400	-1907
1003.475	-2292
1003.551	-697
1003.626	-2149
1003.702	-2791
1003.777	-3011
1003.853	-1702
1003.928	-2518
1004.004	-1819
1004.079	-1864
1004.155	-421
1004.230	-3149
1004.305	-12
1004.381	-2616
1004.456	-1780
1004.531	-2459
1004.607	-1193
1004.682	-2050
1004.757	-1550
1004.832	-2219
1004.907	-1346
1004.982	-2195
1005.057	-1188
1005.133	-1962
1005.208	-1509
1005.283	-1553
1005.358	-909
1005.433	-2455
1005.508	-1123
1005.583	-2844
1005.657	-1774
1005.732	-1727
1005.807	-1713
1005.882	-1719
1005.957	-1602
1006.032	-2132
1006.106	-1261
1006.181	-1930
1006.256	-779
1006.331	-2707
1006.405	-1577
1006.480	-2655
1006.554	-1448
1006.629	-2826
1006.704	-1569
1006.778	-2253
1006.853	-1492
1006.927	-2308
1007.002	-1315
1007.076	-2655
1007.150	-2172
1007.225	-2358
1007.299	-733
1007.373	-2901
1007.448	-1159
1007.522	-788
1007.596	-1295
1007.671	-2664
1007.745	-1864
1007.819	-3569
1007.893	-1935
1007.967	-1885
1008.041	-2893
1008.115	-2015
1008.190	-2379
1008.264	-1478
1008.338	-1960
1008.412	-1714
1008.486	-1102
1008.560	-2650
1008.633	-1978
1008.707	-2312
1008.781	-734
1008.855	-2068
1008.929	-1846
1009.003	-1290
1009.076	-1861
1009.150	-1722
1009.224	-534
1009.298	-1740
1009.371	-2216
1009.445	-1909
1009.519	-1939
1009.592	-3056
1009.666	-1032
1009.739	-2475
1009.813	-2436
1009.886	-1192
1009.960	-2223
1010.033	-2966
1010.107	-924
1010.180	-2343
1010.253	-1592
1010.327	-2537
1010.400	-1330
1010.473	-2197
1010.547	-210
1010.620	-3145
1010.693	-1493
1010.766	-1953
1010.840	-1600
1010.913	-2058
1010.986	-2360
1011.059	-2352
1011.132	-1855
1011.205	-1257
1011.278	-1743
1011.351	-2117
1011.424	-1544
1011.497	-2759
1011.570	-1072
1011.643	-1661
1011.716	-1946
1011.789	-2079
1011.862	-1000
1011.934	-1568
1012.007	-2683
1012.080	-1606
1012.153	-1375
1012.225	-2110
1012.298	-1736
1012.371	-1736
1012.443	-985
1012.516	-1688
1012.588	-1623
1012.661	-2009
1012.733	-1695
1012.806	-1236
1012.879	-2315
1012.951	-1675
1013.023	-2235
1013.096	-1979
1013.168	-1393
1013.241	-1546
1013.313	-1517
1013.385	-2542
1013.458	-1787
1013.530	-1885
1013.602	-1906
1013.674	-1853
1013.746	-983
1013.819	-2686
1013.891	-1852
1013.963	-2430
1014.035	-1757
1014.107	-1863
1014.179	-1445
1014.251	-2237
1014.323	-1167
1014.395	-1936
1014.467	-1252
1014.539	-2291
1014.611	-2093
1014.683	-2123
1014.754	-950
1014.826	-2578
1014.898	-2304
1014.970	-3208
1015.042	-1091
1015.113	-2101
1015.185	-1724
1015.257	-2695
1015.328	-1166
1015.400	-2695
1015.471	-2361
1015.543	-2716
1015.615	-1725
1015.686	-1798
1015.757	-1973
1015.829	-1669
1015.901	-2166
1015.972	-2492
1016.043	-1863
1016.115	-2489
1016.186	-1887
1016.257	-2664
1016.328	-1921
1016.400	-1748
1016.471	-2559
1016.542	-1729
1016.613	-1457
1016.685	-2070
1016.756	-1366
1016.827	-2483
1016.898	-2313
1016.969	-1190
1017.040	-2174
1017.111	-3001
1017.182	-1496
1017.253	-2276
1017.324	-1631
1017.395	-2223
1017.466	-1710
1017.537	-2412
1017.608	-820
1017.678	-2782
1017.749	-1059
1017.820	-2208
1017.891	-2380
1017.961	-2126
1018.032	-2437
1018.103	-2677
1018.173	-1917
1018.244	-2958
1018.315	-1241
1018.385	-1579
1018.456	-1779
1018.526	-2731
1018.597	-1765
1018.667	-2955
1018.738	-2056
1018.808	-1989
1018.878	-2254
1018.949	-2538
1019.019	-1944
1019.089	-2130
1019.160	-1111
1019.230	-3313
1019.300	-1117
1019.371	-2839
1019.441	-1344
1019.511	-2910
1019.581	-2311
1019.651	-2646
1019.721	-811
1019.791	-2454
1019.861	-2126
1019.931	-2877
1020.001	-3007
1020.071	-3041
1020.141	-2902
1020.211	-2743
1020.281	-2217
1020.351	-3221
1020.421	-1293
1020.491	-1715
1020.560	-2889
1020.630	-3199
1020.700	-1783
1020.770	-2698
1020.839	-2571
1020.909	-2401
1020.979	-1833
1021.048	-2700
1021.118	-2026
1021.187	-2169
1021.257	-2013
1021.326	-2244
1021.396	-2710
1021.465	-1401
1021.535	-1931
1021.604	-2786
1021.674	-1775
1021.743	-2805
1021.812	-1196
1021.882	-2562
1021.951	-1518
1022.020	-3171
1022.089	-2608
1022.159	-2351
1022.228	-1616
1022.297	-2706
1022.366	-2050
1022.435	-2105
1022.504	-1757
1022.573	-2998
1022.642	-1483
1022.711	-2819
1022.781	-1645
1022.849	-1601
1022.918	-2405
1022.987	-2345
1023.056	-1767
1023.125	-2287
1023.194	-1698
1023.263	-1839
1023.331	-1426
1023.400	-2792
1023.469	-1859
1023.538	-2248
1023.606	-1584
1023.675	-2054
1023.744	-1543
1023.812	-2963
1023.881	-1877
1023.949	-2532
1024.018	-2073
1024.086	-2675
1024.155	-2314
1024.223	-2603
1024.292	-1467
1024.360	-2215
1024.429	-1682
1024.497	-2961
1024.565	-1742
1024.634	-2353
1024.702	-1459
1024.770	-2895
1024.838	-2297
1024.907	-1791
1024.975	-2586
1025.043	-1597
1025.111	-2336
1025.179	-2986
1025.247	-1187
1025.315	-2508
1025.383	-1753
1025.451	-2432
1025.519	-1626
1025.587	-2531
1025.655	-1818
1025.723	-2381
1025.791	-1966
1025.859	-2554
1025.927	-1693
1025.995	-3259
1026.062	-2255
1026.130	-2602
1026.198	-1802
1026.266	-3098
1026.333	-1582
1026.401	-2033
1026.469	-1671
1026.536	-2735
1026.604	-1903
1026.671	-2581
1026.739	-2546
1026.806	-3109
1026.874	-1869
1026.941	-2680
1027.009	-2424
1027.076	-2749
1027.144	-1398
1027.211	-2570
1027.278	-2125
1027.345	-3081
1027.413	-2062
1027.480	-2666
1027.547	-1363
1027.614	-2598
1027.682	-2079
1027.749	-2736
1027.816	-2154
1027.883	-2836
1027.950	-1491
1028.017	-3348
1028.084	-234
1028.151	-2551
1028.218	-2161
1028.285	-2365
1028.352	-2288
1028.419	-2377
1028.486	-1849
1028.553	-2023
1028.619	-1720
1028.686	-2417
1028.753	-2196
1028.820	-2952
1028.886	-2230
1028.953	-2348
1029.020	-1926
1029.086	-2805
1029.153	-1649
1029.220	-2352
1029.286	-1080
1029.353	-2570
1029.419	-2287
1029.486	-2769
1029.552	-2580
1029.619	-3057
1029.685	-2491
1029.751	-2130
1029.818	-927
1029.884	-2643
1029.951	-1026
1030.017	-2448
1030.083	-1725
1030.149	-3139
1030.216	-1887
1030.282	-2899
1030.348	-2093
1030.414	-2707
1030.480	-2614
1030.546	-2670
1030.612	-1775
1030.678	-2389
1030.744	-2369
1030.810	-2904
1030.876	-1475
1030.942	-2936
1031.008	-1640
1031.074	-2865
1031.140	-1630
1031.206	-2099
1031.272	-3332
1031.337	-2935
1031.403	-1092
1031.469	-3814
1031.534	-2036
1031.600	-2624
1031.666	-2381
1031.731	-2889
1031.797	-2070
1031.863	-3147
1031.928	-2143
1031.994	-3106
1032.059	-1766
1032.125	-2692
1032.190	-2471
1032.256	-2628
1032.321	-1492
1032.386	-2600
1032.452	-1300
1032.517	-2507
1032.582	-1590
1032.647	-2368
1032.713	-2293
1032.778	-2878
1032.843	-1723
1032.908	-2857
1032.974	-2433
1033.039	-2337
1033.104	-2541
1033.169	-2526
1033.234	-2278
1033.299	-2253
1033.364	-1694
1033.429	-1857
1033.494	-1185
1033.559	-2894
1033.624	-2359
1033.688	-2981
1033.753	-2160
1033.818	-2976
1033.883	-1272
1033.948	-3050
1034.013	-1844
1034.077	-2465
1034.142	-2462
1034.207	-2375
1034.271	-1745
1034.336	-1851
1034.400	-2745
1034.465	-2607
1034.530	-1404
1034.594	-2580
1034.658	-2411
1034.723	-3893
1034.787	-1554
1034.852	-2512
1034.916	-2618
1034.981	-2665
1035.045	-1778
1035.109	-2147
1035.173	-1758
1035.238	-3220
1035.302	-2025
1035.366	-2353
1035.430	-2322
1035.495	-2542
1035.559	-2080
1035.623	-2672
1035.687	-2176
1035.751	-2740
1035.815	-2258
1035.879	-2315
1035.943	-2225
1036.007	-2720
1036.071	-1454
1036.135	-2438
1036.198	-1944
1036.262	-3328
1036.326	-1517
1036.390	-2864
1036.454	-1782
1036.517	-3064
1036.581	-2257
1036.645	-3061
1036.709	-2068
1036.772	-2904
1036.836	-2110
1036.900	-2496
1036.963	-1753
1037.026	-2469
1037.090	-2150
1037.154	-2803
1037.217	-2358
1037.280	-3002
1037.344	-1789
1037.407	-3213
1037.471	-1839
1037.534	-2760
1037.597	-2332
1037.661	-2325
1037.724	-2657
1037.787	-2265
1037.850	-2124
1037.913	-2426
1037.977	-1673
1038.040	-2822
1038.103	-2646
1038.166	-2788
1038.229	-1571
1038.292	-2979
1038.355	-2731
1038.418	-3534
1038.481	-1960
1038.544	-2337
1038.607	-2379
1038.670	-2627
1038.732	-2790
1038.795	-2580
1038.858	-2695
1038.921	-2386
1038.984	-1899
1039.046	-3461
1039.109	-2115
1039.172	-2722
1039.234	-1713
1039.297	-2530
1039.360	-1868
1039.422	-2757
1039.485	-1570
1039.547	-3758
1039.610	-2401
1039.672	-2174
1039.734	-2173
1039.797	-2774
1039.859	-2285
1039.922	-2789
1039.984	-2169
1040.046	-3452
1040.109	-1833
1040.171	-3370
1040.233	-2336
1040.295	-3281
1040.358	-1831
1040.420	-2377
1040.482	-2755
1040.544	-2962
1040.606	-1880
1040.668	-1718
1040.730	-1782
1040.792	-2417
1040.854	-2592
1040.916	-2127
1040.978	-1416
1041.040	-2249
1041.102	-1911
1041.164	-2664
1041.225	-2295
1041.287	-2419
1041.349	-2613
1041.411	-3020
1041.472	-2128
1041.534	-2754
1041.596	-2152
1041.657	-2945
1041.719	-1595
1041.781	-3626
1041.842	-1808
1041.904	-3044
1041.965	-2913
1042.027	-2292
1042.088	-2296
1042.150	-2838
1042.211	-2032
1042.272	-1752
1042.334	-2129
1042.395	-2768
1042.456	-2990
1042.518	-2591
1042.579	-2446
1042.640	-2111
1042.701	-1903
1042.763	-2374
1042.824	-2411
1042.885	-2708
1042.946	-2104
1043.007	-2588
1043.068	-2367
1043.129	-2185
1043.190	-2423
1043.251	-2120
1043.312	-2373
1043.373	-2183
1043.434	-2204
1043.495	-2522
1043.556	-1696
1043.616	-2423
1043.677	-2501
1043.738	-2027
1043.799	-2754
1043.859	-2127
1043.920	-1590
1043.981	-2260
1044.041	-1554
1044.102	-2861
1044.162	-1120
1044.223	-2762
1044.284	-1498
1044.344	-2826
1044.405	-2589
1044.465	-2728
1044.525	-1927
1044.586	-2956
1044.646	-2296
1044.707	-3017
1044.767	-1420
1044.827	-2742
1044.887	-2371
1044.948	-3270
1045.008	-1189
1045.068	-2212
1045.128	-1913
1045.188	-2651
1045.249	-1509
1045.309	-2547
1045.369	-877
1045.429	-2706
1045.489	-1858
1045.549	-1373
1045.609	-2637
1045.669	-2311
1045.729	-1685
1045.789	-2523
1045.848	-2181
1045.908	-2118
1045.968	-1852
1046.028	-1931
1046.088	-1864
1046.147	-1927
1046.207	-1686
1046.267	-2661
1046.326	-1613
1046.386	-2894
1046.446	-1891
1046.505	-2017
1046.565	-531
1046.624	-1937
1046.684	-858
1046.743	-1510
1046.803	-953
1046.862	-741
1046.922	0
