'Start Wavelength	183.907
'End Wavelength	1046.922
'Gate Delay	5.000
'Gate Width (ms)	1.050
'Laser Output Level	0.000
'X Position	0.000
'Y Position	0.000
'Z Position	0.000
'Grid Point Number	1.000
'Shot Number	100.000
183.907	954.000
183.977	18.000
184.047	-188
184.116	-184
184.186	634
184.256	752
184.325	254
184.395	-843
184.465	750
184.534	172
184.604	-353
184.674	112
184.743	-677
184.813	238
184.883	1168
184.952	-320
185.022	1117
185.092	-2
185.161	260
185.231	74
185.301	201
185.370	426
185.440	259
185.509	-334
185.579	839
185.649	-254
185.718	659
185.788	574
185.857	323
185.927	407
185.996	-229
186.066	480
186.136	807
186.205	564
186.275	-622
186.344	-25
186.414	429
186.483	97
186.553	1628
186.622	188
186.692	525
186.761	13
186.831	484
186.900	16
186.970	316
187.039	-75
187.109	1278
187.178	305
187.248	512
187.317	693
187.387	718
187.456	334
187.526	600
187.595	423
187.664	-95
187.734	45
187.803	575
187.873	-1006
187.942	380
188.012	-157
188.081	136
188.150	-577
188.220	937
188.289	167
188.358	491
188.428	295
188.497	620
188.567	1165
188.636	121
188.705	185
188.775	542
188.844	-355
188.913	1526
188.983	-150
189.052	842
189.121	-749
189.191	182
189.260	205
189.329	515
189.399	217
189.468	762
189.537	452
189.606	159
189.676	249
189.745	-57
189.814	169
189.883	227
189.953	-538
190.022	798
190.091	-120
190.161	565
190.230	253
190.299	438
190.368	-534
190.437	446
190.507	546
190.576	366
190.645	-33
190.714	417
190.783	57
190.853	733
190.922	245
190.991	856
191.060	705
191.129	299
191.198	87
191.268	166
191.337	-30
191.406	1059
191.475	-263
191.544	430
191.613	-49
191.682	988
191.752	551
191.821	667
191.890	-191
191.959	388
192.028	278
192.097	767
192.166	-115
192.235	524
192.304	169
192.373	573
192.442	-146
192.511	602
192.580	210
192.650	807
192.719	-153
192.788	692
192.857	261
192.926	683
192.995	293
193.064	435
193.133	-48
193.202	930
193.271	237
193.340	1083
193.409	517
193.478	570
193.547	-31
193.615	361
193.684	-73
193.753	-89
193.822	-112
193.891	37
193.960	952
194.029	330
194.098	-191
194.167	-40
194.236	311
194.305	97
194.374	560
194.443	347
194.512	-19
194.580	867
194.649	-39
194.718	1510
194.787	1020
194.856	66
194.925	161
194.994	-270
195.062	62
195.131	1009
195.200	-355
195.269	507
195.338	429
195.407	1177
195.475	-409
195.544	555
195.613	230
195.682	383
195.751	-197
195.819	121
195.888	294
195.957	1009
196.026	-72
196.094	230
196.163	-400
196.232	1688
196.301	-411
196.369	568
196.438	301
196.507	671
196.576	530
196.644	203
196.713	-571
196.782	276
196.850	634
196.919	225
196.988	644
197.056	361
197.125	459
197.194	1143
197.262	-618
197.331	1300
197.400	63
197.468	-153
197.537	-283
197.606	361
197.674	375
197.743	-101
197.812	-491
197.880	713
197.949	-221
198.017	511
198.086	346
198.155	-39
198.223	154
198.292	851
198.360	-419
198.429	291
198.497	66
198.566	848
198.635	-534
198.703	1130
198.772	377
198.840	512
198.909	66
198.977	170
199.046	-479
199.114	385
199.183	-292
199.251	623
199.320	-100
199.388	379
199.457	-224
199.525	439
199.594	423
199.662	349
199.731	865
199.799	396
199.867	-260
199.936	462
200.004	-287
200.073	1044
200.141	-427
200.210	-115
200.278	-141
200.346	571
200.415	418
200.483	-194
200.552	859
200.620	700
200.688	-440
200.757	307
200.825	-409
200.893	436
200.962	-591
201.030	940
201.098	4
201.167	1156
201.235	16
201.303	-386
201.372	363
201.440	420
201.508	461
201.577	1035
201.645	-97
201.713	221
201.781	145
201.850	653
201.918	-295
201.986	50
202.055	834
202.123	529
202.191	58
202.259	-25
202.327	829
202.396	1333
202.464	172
202.532	88
202.600	570
202.669	638
202.737	126
202.805	691
202.873	447
202.941	345
203.009	-225
203.078	411
203.146	255
203.214	623
203.282	-738
203.350	611
203.418	-746
203.487	950
203.555	-71
203.623	185
203.691	-374
203.759	30
203.827	-504
203.895	-300
203.963	247
204.031	164
204.099	115
204.168	191
204.236	432
204.304	896
204.372	-445
204.440	778
204.508	-390
204.576	859
204.644	-28
204.712	711
204.780	-27
204.848	1111
204.916	39
204.984	-205
205.052	490
205.120	484
205.188	150
205.256	-10
205.324	-41
205.392	215
205.460	-183
205.528	119
205.596	177
205.664	-61
205.732	88
205.799	-4
205.867	-362
205.935	-11
206.003	458
206.071	99
206.139	244
206.207	102
206.275	252
206.343	-474
206.411	454
206.478	463
206.546	-237
206.614	-44
206.682	275
206.750	71
206.818	471
206.885	798
206.953	-1361
207.021	683
207.089	566
207.157	51
207.225	-97
207.292	274
207.360	-93
207.428	-292
207.496	-702
207.563	358
207.631	-55
207.699	-187
207.767	-323
207.834	-657
207.902	-788
207.970	534
208.038	-7
208.105	-197
208.173	-182
208.241	15
208.309	-187
208.376	-52
208.444	48
208.512	-111
208.579	-928
208.647	185
208.715	606
208.782	-175
208.850	-490
208.918	-534
208.985	-154
209.053	898
209.120	551
209.188	-76
209.256	-349
209.323	-667
209.391	-1061
209.459	1982
209.526	-546
209.594	-644
209.661	-106
209.729	373
209.796	-92
209.864	359
209.932	-1171
209.999	1267
210.067	544
210.134	-774
210.202	-179
210.269	986
210.337	-259
210.404	431
210.472	-77
210.539	331
210.607	-197
210.674	-469
210.742	-519
210.809	509
210.877	19
210.944	264
211.012	-645
211.079	2164
211.146	86
211.214	-84
211.281	918
211.349	940
211.416	-310
211.484	928
211.551	-255
211.618	434
211.686	384
211.753	-595
211.821	-65
211.888	49
211.955	107
212.023	449
212.090	-524
212.157	-251
212.225	-168
212.292	657
212.359	148
212.427	910
212.494	546
212.561	318
212.629	-388
212.696	262
212.763	230
212.831	-1243
212.898	682
212.965	-349
213.032	341
213.100	143
213.167	-910
213.234	539
213.301	-5
213.369	140
213.436	-392
213.503	393
213.570	45
213.638	-93
213.705	-565
213.772	-726
213.839	-3
213.906	939
213.973	-13
214.041	-733
214.108	644
214.175	285
214.242	-86
214.309	-74
214.376	-16
214.444	-886
214.511	-122
214.578	46
214.645	127
214.712	361
214.779	-92
214.846	-421
214.913	749
214.980	209
215.048	1007
215.115	1562
215.182	234
215.249	150
215.316	-744
215.383	695
215.450	-85
215.517	-45
215.584	223
215.651	151
215.718	123
215.785	463
215.852	-505
215.919	437
215.986	394
216.053	249
216.120	205
216.187	34
216.254	468
216.321	-139
216.388	-1256
216.455	-76
216.522	188
216.589	948
216.656	-177
216.722	716
216.789	-434
216.856	114
216.923	-207
216.990	310
217.057	-392
217.124	-61
217.191	-936
217.258	1177
217.324	666
217.391	769
217.458	153
217.525	29
217.592	-98
217.659	-837
217.725	789
217.792	-659
217.859	504
217.926	-203
217.993	-87
218.059	39
218.126	-129
218.193	69
218.260	86
218.327	114
218.393	-315
218.460	97
218.527	44
218.594	471
218.660	-116
218.727	922
218.794	-851
218.860	544
218.927	-264
218.994	22
219.061	-339
219.127	283
219.194	-510
219.261	598
219.327	-429
219.394	801
219.461	-1244
219.527	206
219.594	76
219.661	-101
219.727	-599
219.794	1410
219.860	-700
219.927	656
219.994	402
220.060	2205
220.127	1967
220.193	1365
220.260	348
220.326	239
220.393	-230
220.460	-376
220.526	-659
220.593	-130
220.659	1146
220.726	-348
220.792	-138
220.859	-266
220.925	-26
220.992	222
221.058	-81
221.125	1516
221.191	-479
221.258	-261
221.324	527
221.391	-376
221.457	-456
221.524	218
221.590	209
221.657	1624
221.723	-817
221.789	157
221.856	17
221.922	-151
221.989	156
222.055	1143
222.121	-1480
222.188	1300
222.254	-262
222.321	483
222.387	192
222.453	-3
222.520	227
222.586	281
222.652	105
222.719	119
222.785	445
222.851	190
222.918	-537
222.984	526
223.050	-449
223.116	-1225
223.183	775
223.249	305
223.315	71
223.382	579
223.448	-429
223.514	-267
223.580	-331
223.647	-237
223.713	-1391
223.779	934
223.845	-240
223.911	366
223.978	-1054
224.044	272
224.110	-786
224.176	579
224.242	-574
224.309	-1224
224.375	-382
224.441	-194
224.507	-451
224.573	-683
224.639	471
224.705	-771
224.772	386
224.838	-587
224.904	-284
224.970	-327
225.036	-154
225.102	-573
225.168	324
225.234	792
225.300	-709
225.366	458
225.432	-268
225.499	95
225.565	-432
225.631	-504
225.697	-622
225.763	-97
225.829	-79
225.895	573
225.961	-597
226.027	312
226.093	-569
226.159	679
226.225	395
226.291	257
226.357	-389
226.423	448
226.489	-421
226.554	-168
226.620	-779
226.686	587
226.752	-268
226.818	53
226.884	74
226.950	1393
227.016	-308
227.082	1377
227.148	-337
227.214	940
227.279	253
227.345	130
227.411	150
227.477	2572
227.543	4064
227.609	4773
227.674	2351
227.740	603
227.806	992
227.872	-108
227.938	514
228.003	448
228.069	-337
228.135	-173
228.201	-72
228.267	-889
228.332	-529
228.398	-1138
228.464	29
228.530	-250
228.595	-52
228.661	-1045
228.727	-150
228.792	880
228.858	-120
228.924	-1230
228.990	78
229.055	-274
229.121	-43
229.187	44
229.252	-397
229.318	26
229.384	-455
229.449	-607
229.515	-2119
229.581	-222
229.646	952
229.712	563
229.777	-484
229.843	-79
229.909	-206
229.974	488
230.040	-784
230.105	131
230.171	-1474
230.236	321
230.302	-1137
230.368	-271
230.433	-950
230.499	-679
230.564	-167
230.630	-1707
230.695	-753
230.761	834
230.826	-1731
230.892	1833
230.957	-1753
231.023	-340
231.088	189
231.154	-397
231.219	228
231.284	-230
231.350	419
231.415	-1085
231.481	759
231.546	-56
231.612	192
231.677	-566
231.742	-1334
231.808	2024
231.873	-1047
231.939	-1419
232.004	400
232.069	618
232.135	-892
232.200	-98
232.265	590
232.331	647
232.396	-623
232.461	-376
232.527	-678
232.592	-761
232.657	-160
232.723	204
232.788	-594
232.853	288
232.918	-175
232.984	-24
233.049	-1333
233.114	-6
233.179	94
233.245	1473
233.310	-299
233.375	-1166
233.440	-336
233.506	162
233.571	-335
233.636	-153
233.701	-380
233.766	192
233.832	-97
233.897	409
233.962	-1153
234.027	1473
234.092	232
234.157	55
234.222	-663
234.288	69
234.353	-1555
234.418	649
234.483	505
234.548	596
234.613	-922
234.678	315
234.743	-1083
234.808	1461
234.873	-1699
234.938	850
235.004	-561
235.069	386
235.134	-1194
235.199	402
235.264	-332
235.329	-756
235.394	-311
235.459	1281
235.524	-1279
235.589	-135
235.654	-1072
235.719	-1722
235.784	492
235.849	161
235.913	-378
235.978	242
236.043	21
236.108	157
236.173	-847
236.238	536
236.303	-244
236.368	-436
236.433	-486
236.498	-496
236.563	-146
236.627	172
236.692	1280
236.757	1207
236.822	-375
236.887	-930
236.952	267
237.017	-1433
237.081	945
237.146	-786
237.211	-93
237.276	442
237.341	1738
237.405	503
237.470	-436
237.535	-80
237.600	-303
237.664	1454
237.729	-1267
237.794	-960
237.859	-454
237.923	-5
237.988	-172
238.053	511
238.118	-1284
238.182	404
238.247	1169
238.312	-645
238.376	-324
238.441	-1381
238.506	435
238.570	-1846
238.635	1042
238.700	284
238.764	96
238.829	713
238.893	-804
238.958	901
239.023	-230
239.087	-13
239.152	-447
239.216	-210
239.281	284
239.346	471
239.410	-172
239.475	-210
239.539	201
239.604	25
239.668	846
239.733	1148
239.797	3526
239.862	7901
239.926	5620
239.991	2337
240.055	969
240.120	156
240.184	786
240.249	-62
240.313	336
240.378	-336
240.442	-11
240.507	832
240.571	-72
240.635	-23
240.700	69
240.764	-561
240.829	-558
240.893	-737
240.957	460
241.022	222
241.086	360
241.151	-766
241.215	-1783
241.279	832
241.344	-952
241.408	-28
241.472	-946
241.537	951
241.601	-605
241.665	-1406
241.730	-1714
241.794	513
241.858	-1541
241.922	339
241.987	248
242.051	-257
242.115	-937
242.179	630
242.244	-777
242.308	493
242.372	-957
242.436	-431
242.501	-469
242.565	-155
242.629	-1433
242.693	373
242.757	-1374
242.822	210
242.886	64
242.950	1222
243.014	-767
243.078	269
243.142	-923
243.206	-815
243.271	-559
243.335	-888
243.399	-19
243.463	-129
243.527	1414
243.591	81
243.655	-314
243.719	-677
243.783	517
243.847	159
243.911	-370
243.975	-815
244.040	-1434
244.104	1555
244.168	-361
244.232	-800
244.296	-777
244.360	-833
244.424	-1583
244.488	8
244.552	153
244.615	-1409
244.679	250
244.743	-430
244.807	-1332
244.871	387
244.935	-142
244.999	-1241
245.063	-259
245.127	1018
245.191	202
245.255	24
245.319	-301
245.383	-765
245.446	1139
245.510	-884
245.574	-782
245.638	665
245.702	-1840
245.766	357
245.829	1177
245.893	-1136
245.957	-2076
246.021	783
246.085	-1260
246.149	-168
246.212	561
246.276	16
246.340	-1036
246.404	462
246.467	-130
246.531	-1477
246.595	525
246.659	1472
246.722	-1555
246.786	190
246.850	-579
246.913	466
246.977	-2461
247.041	111
247.104	-48
247.168	434
247.232	-452
247.295	1685
247.359	17
247.423	-171
247.486	-14
247.550	313
247.614	256
247.677	883
247.741	-676
247.804	-272
247.868	-270
247.932	-700
247.995	1303
248.059	387
248.122	-1624
248.186	754
248.249	-287
248.313	2036
248.376	3257
248.440	1225
248.503	-1242
248.567	1626
248.630	-1193
248.694	-450
248.757	477
248.821	2124
248.884	2413
248.948	589
249.011	2057
249.075	2176
249.138	3007
249.202	645
249.265	-1159
249.328	1201
249.392	-727
249.455	-2
249.519	6
249.582	406
249.645	222
249.709	445
249.772	-823
249.835	-61
249.899	-1056
249.962	372
250.025	-828
250.089	267
250.152	1051
250.215	494
250.279	-1315
250.342	1235
250.405	295
250.468	-252
250.532	80
250.595	1061
250.658	691
250.721	5615
250.785	548
250.848	1394
250.911	-913
250.974	626
251.038	-968
251.101	1670
251.164	-389
251.227	70
251.290	-223
251.354	866
251.417	2209
251.480	3706
251.543	851
251.606	6717
251.669	5086
251.732	445
251.795	1449
251.859	1210
251.922	2837
251.985	2965
252.048	891
252.111	412
252.174	-1433
252.237	640
252.300	3014
252.363	1857
252.426	7032
252.489	1542
252.552	821
252.615	-203
252.678	181
252.741	2648
252.804	1757
252.867	6074
252.930	3993
252.993	1163
253.056	1232
253.119	113
253.182	-778
253.245	625
253.308	-6
253.371	-939
253.434	-719
253.497	900
253.559	1704
253.622	132
253.685	-186
253.748	353
253.811	-428
253.874	803
253.937	-1306
254.000	356
254.062	111
254.125	916
254.188	1308
254.251	176
254.314	-1379
254.376	-89
254.439	606
254.502	283
254.565	-805
254.628	2036
254.690	253
254.753	-766
254.816	-814
254.878	201
254.941	747
255.004	1198
255.067	-1050
255.129	-304
255.192	68
255.255	-1082
255.317	-161
255.380	113
255.443	-852
255.505	61
255.568	-1034
255.631	-1038
255.693	483
255.756	-46
255.819	266
255.881	159
255.944	-134
256.006	7
256.069	-1102
256.132	-140
256.194	72
256.257	679
256.319	121
256.382	-491
256.444	673
256.507	726
256.569	-638
256.632	253
256.694	-613
256.757	678
256.819	2006
256.882	-359
256.944	-1239
257.007	299
257.069	-950
257.132	365
257.194	158
257.257	-527
257.319	-1810
257.381	-592
257.444	545
257.506	1765
257.569	1547
257.631	394
257.693	87
257.756	608
257.818	-256
257.880	-390
257.943	693
258.005	-575
258.067	-1009
258.130	661
258.192	-291
258.254	401
258.317	-331
258.379	484
258.441	-37
258.503	489
258.566	-1083
258.628	630
258.690	-23
258.753	253
258.815	194
258.877	-546
258.939	-279
259.001	982
259.064	-572
259.126	-878
259.188	-464
259.250	1312
259.312	-981
259.375	312
259.437	-159
259.499	163
259.561	-66
259.623	-119
259.685	-634
259.747	288
259.809	-56
259.872	563
259.934	747
259.996	1500
260.058	530
260.120	-85
260.182	684
260.244	512
260.306	-264
260.368	1375
260.430	-956
260.492	582
260.554	856
260.616	-195
260.678	-501
260.740	817
260.802	-1131
260.864	859
260.926	-1056
260.988	1189
261.050	-859
261.112	375
261.174	1099
261.236	474
261.298	133
261.359	523
261.421	529
261.483	-349
261.545	614
261.607	-617
261.669	53
261.731	-278
261.793	210
261.854	-363
261.916	81
261.978	-164
262.040	123
262.102	1078
262.164	-616
262.225	253
262.287	87
262.349	179
262.411	-318
262.472	822
262.534	-776
262.596	226
262.658	628
262.719	287
262.781	513
262.843	149
262.904	89
262.966	-69
263.028	-76
263.090	697
263.151	1159
263.213	1009
263.275	-315
263.336	371
263.398	1118
263.459	138
263.521	322
263.583	595
263.644	417
263.706	902
263.767	-367
263.829	708
263.891	-715
263.952	387
264.014	-540
264.075	-138
264.137	359
264.198	280
264.260	-780
264.321	-29
264.383	129
264.444	1539
264.506	-594
264.567	270
264.629	34
264.690	-319
264.752	403
264.813	-144
264.875	-1001
264.936	1356
264.998	-43
265.059	-407
265.120	222
265.182	-466
265.243	-509
265.305	1369
265.366	-12
265.427	404
265.489	796
265.550	-627
265.611	-694
265.673	-139
265.734	-83
265.795	724
265.857	-1157
265.918	-1522
265.979	173
266.040	214
266.102	455
266.163	461
266.224	234
266.286	198
266.347	-55
266.408	443
266.469	178
266.530	334
266.592	-214
266.653	318
266.714	84
266.775	-26
266.836	-237
266.898	628
266.959	444
267.020	1796
267.081	1332
267.142	889
267.203	140
267.264	-2
267.326	535
267.387	364
267.448	-887
267.509	1067
267.570	-132
267.631	346
267.692	-1186
267.753	118
267.814	-374
267.875	-136
267.936	-687
267.997	295
268.058	-770
268.119	-171
268.180	-491
268.241	-687
268.302	-56
268.363	-10
268.424	-492
268.485	-388
268.546	-650
268.607	-177
268.668	-914
268.729	209
268.790	-905
268.851	-227
268.912	10
268.972	330
269.033	-649
269.094	209
269.155	-262
269.216	283
269.277	-845
269.338	96
269.398	466
269.459	287
269.520	-438
269.581	-408
269.642	-671
269.702	-306
269.763	-169
269.824	-269
269.885	-410
269.945	1428
270.006	-222
270.067	-406
270.128	-694
270.188	-146
270.249	-1133
270.310	-90
270.370	106
270.431	-658
270.492	-574
270.553	61
270.613	-900
270.674	291
270.734	-705
270.795	-259
270.856	-510
270.916	-79
270.977	-852
271.038	745
271.098	-669
271.159	-7
271.219	-1096
271.280	562
271.340	31
271.401	-263
271.462	-512
271.522	173
271.583	-467
271.643	359
271.704	-182
271.764	82
271.825	222
271.885	2486
271.946	3484
272.006	806
272.066	1376
272.127	4422
272.187	4083
272.248	1497
272.308	455
272.369	2852
272.429	2012
272.489	302
272.550	-91
272.610	1540
272.671	828
272.731	1092
272.791	-240
272.852	1265
272.912	518
272.972	620
273.033	-15
273.093	362
273.153	957
273.214	1279
273.274	814
273.334	2707
273.394	2912
273.455	2449
273.515	2319
273.575	3820
273.635	2833
273.696	3334
273.756	5367
273.816	3756
273.876	3119
273.936	1679
273.997	1456
274.057	1148
274.117	932
274.177	968
274.237	2720
274.297	3815
274.358	416
274.418	2383
274.478	1985
274.538	1163
274.598	-350
274.658	915
274.718	521
274.778	910
274.838	-212
274.898	317
274.958	1410
275.018	2636
275.078	1775
275.138	522
275.198	179
275.258	603
275.318	116
275.378	942
275.438	-299
275.498	891
275.558	-12
275.618	1686
275.678	968
275.738	1242
275.798	392
275.858	72
275.918	405
275.978	539
276.038	130
276.098	1199
276.157	231
276.217	1875
276.277	-392
276.337	503
276.397	-118
276.457	1325
276.517	721
276.576	487
276.636	-230
276.696	1292
276.756	498
276.815	1202
276.875	1126
276.935	926
276.995	447
277.055	1163
277.114	648
277.174	423
277.234	1143
277.293	1370
277.353	486
277.413	997
277.472	736
277.532	1218
277.592	1887
277.651	6641
277.711	16607
277.771	5756
277.830	14556
277.890	17010
277.950	8915
278.009	28718
278.069	14437
278.128	11611
278.188	18512
278.248	8773
278.307	18377
278.367	14118
278.426	2932
278.486	2455
278.545	712
278.605	1779
278.664	1209
278.724	1773
278.783	2024
278.843	4969
278.902	1770
278.962	1404
279.021	2145
279.081	4072
279.140	3667
279.199	2212
279.259	3261
279.318	4269
279.378	5243
279.437	8161
279.496	18964
279.556	66551
279.615	62342
279.675	21471
279.734	9691
279.793	9281
279.853	11344
279.912	6982
279.971	4694
280.031	4650
280.090	5721
280.149	8997
280.208	10645
280.268	45301
280.327	55362
280.386	15927
280.445	7361
280.505	5650
280.564	3389
280.623	3141
280.682	2225
280.742	3693
280.801	1423
280.860	2723
280.919	1165
280.978	1894
281.037	954
281.097	1844
281.156	1999
281.215	1740
281.274	1349
281.333	1869
281.392	1269
281.451	1262
281.510	775
281.569	1631
281.628	817
281.688	1083
281.747	1080
281.806	841
281.865	350
281.924	867
281.983	285
282.042	879
282.101	1024
282.160	577
282.219	530
282.278	1124
282.337	525
282.396	1562
282.454	1339
282.513	1615
282.572	1111
282.631	863
282.690	627
282.749	-262
282.808	926
282.867	1235
282.926	903
282.985	1615
283.043	1609
283.102	1081
283.161	633
283.220	2070
283.279	3032
283.338	1012
283.396	1397
283.455	1989
283.514	1855
283.573	1673
283.631	1722
283.690	2843
283.749	1797
283.808	2131
283.866	2693
283.925	2229
283.984	1616
284.043	3478
284.101	3347
284.160	3311
284.219	3481
284.277	4738
284.336	3748
284.395	6263
284.453	6628
284.512	6788
284.570	8105
284.629	9184
284.688	10879
284.746	13798
284.805	16747
284.863	20813
284.922	25965
284.981	33747
285.039	43650
285.098	57500
285.156	65230
285.215	48377
285.273	39555
285.332	63260
285.390	62598
285.449	50278
285.507	38223
285.566	30396
285.624	23713
285.683	18415
285.741	14040
285.799	12171
285.858	10544
285.916	9107
285.975	6673
286.033	6886
286.091	5207
286.150	5325
286.208	4711
286.267	4623
286.325	3577
286.383	3876
286.442	3389
286.500	3386
286.558	3085
286.616	2393
286.675	2343
286.733	2682
286.791	1657
286.850	2793
286.908	2305
286.966	2301
287.024	1556
287.083	1667
287.141	1905
287.199	2782
287.257	820
287.315	2313
287.374	726
287.432	2283
287.490	1569
287.548	1937
287.606	598
287.664	1930
287.723	1416
287.781	1708
287.839	1317
287.897	1347
287.955	1225
288.013	968
288.071	1224
288.129	4215
288.187	16879
288.245	7707
288.303	1587
288.361	1499
288.419	1248
288.477	1301
288.535	617
288.593	713
288.651	526
288.709	-138
288.767	-178
288.825	-216
288.883	-257
288.941	1148
288.999	-249
289.057	1433
289.115	409
289.173	70
289.231	583
289.289	564
289.346	491
289.404	995
289.462	609
289.520	860
289.578	576
289.636	823
289.694	235
289.751	539
289.809	74
289.867	798
289.925	1139
289.983	1512
290.040	1043
290.098	821
290.156	-393
290.214	493
290.271	425
290.329	1557
290.387	295
290.444	466
290.502	808
290.560	714
290.617	-261
290.675	701
290.733	-461
290.790	690
290.848	849
290.906	607
290.963	43
291.021	936
291.078	127
291.136	768
291.194	260
291.251	1727
291.309	693
291.366	813
291.424	-45
291.481	419
291.539	320
291.596	1687
291.654	364
291.711	720
291.769	345
291.826	1576
291.884	771
291.941	-280
291.999	-521
292.056	1164
292.114	-244
292.171	857
292.228	531
292.286	834
292.343	116
292.401	456
292.458	-130
292.515	253
292.573	551
292.630	562
292.687	400
292.745	537
292.802	-719
292.859	623
292.917	2531
292.974	1571
293.031	678
293.089	905
293.146	-33
293.203	478
293.260	-687
293.318	264
293.375	830
293.432	939
293.489	585
293.546	967
293.604	583
293.661	2968
293.718	5558
293.775	3112
293.832	2643
293.889	4199
293.947	2741
294.004	1617
294.061	601
294.118	1632
294.175	2222
294.232	6417
294.289	3621
294.346	1707
294.403	652
294.460	625
294.517	258
294.574	198
294.631	58
294.688	907
294.745	445
294.802	3426
294.859	4778
294.916	1706
294.973	-247
295.030	900
295.087	303
295.144	310
295.201	929
295.258	843
295.315	156
295.372	1452
295.429	2309
295.486	1373
295.542	403
295.599	964
295.656	2909
295.713	1697
295.770	1511
295.827	1097
295.883	661
295.940	652
295.997	-357
296.054	825
296.111	41
296.167	654
296.224	-503
296.281	489
296.338	-345
296.394	-544
296.451	-667
296.508	831
296.564	1908
296.621	1706
296.678	2758
296.734	5802
296.791	1735
296.848	702
296.904	14
296.961	1551
297.018	2173
297.074	1913
297.131	400
297.187	936
297.244	690
297.301	2937
297.357	6145
297.414	2846
297.470	796
297.527	1425
297.583	671
297.640	1184
297.696	-254
297.753	709
297.809	146
297.866	346
297.922	-345
297.979	69
298.035	-487
298.092	323
298.148	1372
298.204	1493
298.261	419
298.317	1068
298.374	4263
298.430	3300
298.486	567
298.543	-212
298.599	127
298.656	375
298.712	-239
298.768	867
298.824	-201
298.881	83
298.937	-277
298.993	941
299.050	200
299.106	567
299.162	-302
299.218	-522
299.275	-359
299.331	379
299.387	1609
299.443	4193
299.500	11782
299.556	11033
299.612	3390
299.668	2378
299.724	8217
299.780	13692
299.837	4143
299.893	3045
299.949	7049
300.005	13519
300.061	8380
300.117	17071
300.173	6836
300.229	3109
300.285	1121
300.341	2123
300.397	991
300.453	1503
300.510	890
300.566	1370
300.622	3179
300.678	13685
300.734	21507
300.790	9703
300.845	6087
300.901	7165
300.957	14050
301.013	6549
301.069	1917
301.125	1389
301.181	1035
301.237	1211
301.293	83
301.349	1641
301.405	-235
301.461	416
301.516	244
301.572	172
301.628	-302
301.684	305
301.740	441
301.796	1346
301.851	660
301.907	858
301.963	1551
302.019	1585
302.074	9638
302.130	11707
302.186	3857
302.242	1863
302.297	1108
302.353	448
302.409	1214
302.464	1937
302.520	804
302.576	2129
302.631	3416
302.687	936
302.743	-237
302.798	-264
302.854	-552
302.910	794
302.965	-357
303.021	957
303.076	165
303.132	252
303.187	43
303.243	290
303.299	32
303.354	-155
303.410	-544
303.465	-118
303.521	-339
303.576	32
303.632	-197
303.687	1092
303.743	2392
303.798	3032
303.853	731
303.909	485
303.964	-344
304.020	-563
304.075	-24
304.130	722
304.186	1009
304.241	1722
304.297	-111
304.352	254
304.358	185
304.407	-383
304.449	449
304.463	736
304.518	-773
304.539	-384
304.573	208
304.629	-103
304.630	-77
304.684	1099
304.720	1315
304.739	1395
304.794	4061
304.811	3530
304.850	2312
304.902	663
304.905	549
304.960	599
304.992	524
305.015	505
305.071	-425
305.083	-53
305.126	1209
305.173	-74
305.181	-274
305.236	783
305.264	370
305.292	-61
305.347	450
305.354	414
305.402	203
305.445	174
305.457	136
305.512	-4
305.535	165
305.567	464
305.622	-520
305.626	-454
305.678	708
305.716	1383
305.733	1624
305.788	3127
305.807	2507
305.843	1469
305.897	3186
305.898	3206
305.953	3820
305.988	2448
306.008	1705
306.063	494
306.078	459
306.118	543
306.168	173
306.173	126
306.228	653
306.259	525
306.283	514
306.338	390
306.349	398
306.393	280
306.440	391
306.448	427
306.503	418
306.530	220
306.558	50
306.613	451
306.620	564
306.668	1358
306.711	1898
306.723	1984
306.778	1912
306.801	1503
306.833	984
306.888	789
306.892	780
306.943	577
306.982	655
306.997	809
307.052	213
307.072	340
307.107	433
307.162	345
307.163	345
307.217	864
307.253	895
307.272	778
307.327	1099
307.343	906
307.381	539
307.434	585
307.436	623
307.491	1329
307.524	2069
307.546	2172
307.600	1324
307.614	1261
307.655	1163
307.704	821
307.710	831
307.765	1125
307.795	927
307.819	766
307.874	1892
307.885	1831
307.929	1515
307.975	1943
307.984	2043
308.038	2201
308.065	2448
308.093	3667
308.148	6152
308.156	6975
308.202	11341
308.246	14286
308.257	13939
308.312	6866
308.336	4348
308.366	3172
308.421	2206
308.426	2126
308.475	1976
308.517	2183
308.530	2214
308.585	2246
308.607	2376
308.639	2907
308.694	3426
308.697	3465
308.748	3739
308.787	3605
308.803	3534
308.857	3544
308.877	3695
308.912	4314
308.967	5293
308.967	5311
309.021	9057
309.058	12165
309.076	13788
309.130	19836
309.148	21415
309.185	28191
309.238	38586
309.239	38760
309.293	49792
309.328	52595
309.348	48373
309.402	30651
309.418	25612
309.457	20209
309.508	15623
309.511	15698
309.566	18916
309.598	22140
309.620	28188
309.674	46307
309.688	51451
309.729	50836
309.778	41809
309.783	40692
309.837	25556
309.868	17800
309.892	15002
309.946	10325
309.959	9549
310.001	8513
310.049	7360
310.055	7140
310.109	5244
310.139	4543
310.163	4124
310.218	2873
310.229	2708
310.272	2880
310.319	2979
310.326	2879
310.381	2414
310.409	1957
310.435	1886
310.489	2120
310.499	2108
310.543	1741
310.589	1846
310.598	1968
310.652	2201
310.679	2479
310.706	2243
310.760	1469
310.769	1374
310.814	1954
310.859	2441
310.868	2441
310.923	2354
310.948	2307
310.977	2110
311.031	2012
311.038	1939
311.085	1326
311.128	919
311.139	1080
311.193	1797
311.218	2169
311.247	2127
311.301	1831
311.308	1812
311.356	2026
311.398	2124
311.410	2030
311.464	1600
311.488	1347
311.518	1551
311.572	2090
311.578	2135
311.626	1733
311.668	1346
311.680	1446
311.734	1851
311.758	2072
311.788	2136
311.842	2198
311.847	2197
311.896	2160
311.937	2107
311.950	2052
312.004	1805
312.027	1686
312.058	1710
312.112	1759
312.117	1761
312.165	1859
312.207	1938
312.297	2227
312.386	1627
312.476	1356
312.566	2220
312.656	2411
312.745	1638
312.835	2190
312.925	1503
313.015	2247
313.104	1963
313.194	3060
313.284	1911
313.374	2701
313.463	2333
313.553	2851
313.643	2427
313.732	3167
313.822	3015
313.912	3612
314.001	3260
314.091	3967
314.180	3481
314.270	4511
314.360	3035
314.449	3644
314.539	2593
314.628	3674
314.718	3200
314.808	2822
314.897	4234
314.987	4907
315.076	5019
315.166	4411
315.255	3934
315.345	4258
315.434	3303
315.524	3526
315.613	3458
315.703	5226
315.792	10114
315.881	31981
315.971	9361
316.060	4942
316.150	4425
316.239	4483
316.328	3244
316.418	4615
316.507	3892
316.597	4643
316.686	4694
316.775	4669
316.865	4456
316.954	4035
317.043	3375
317.133	3165
317.222	2869
317.311	3371
317.400	1758
317.490	3658
317.579	3552
317.668	4605
317.757	5728
317.847	16995
317.936	49153
318.025	14354
318.114	12314
318.203	6872
318.293	3960
318.382	6758
318.471	6177
318.560	7025
318.649	10471
318.738	4469
318.828	3589
318.917	2145
319.006	2868
319.095	4003
319.184	9988
319.273	4950
319.362	2975
319.451	2451
319.540	1759
319.629	3439
319.718	2490
319.807	3185
319.896	4314
319.985	12408
320.074	4393
320.163	3587
320.252	3638
320.341	3744
320.430	2915
320.519	4063
320.608	3395
320.697	4220
320.786	4240
320.875	5738
320.964	5441
321.053	6950
321.142	5509
321.230	7640
321.319	8294
321.408	10857
321.497	9399
321.586	7868
321.675	5759
321.764	6502
321.852	6401
321.941	6694
322.030	5898
322.119	6939
322.207	8196
322.296	11157
322.385	10928
322.474	13633
322.562	14397
322.651	10939
322.740	8097
322.829	6853
322.917	5173
323.006	5622
323.095	4493
323.183	4167
323.272	4304
323.361	5104
323.449	7743
323.538	5176
323.626	5718
323.715	4923
323.804	3213
323.892	5169
323.981	3520
324.069	2922
324.158	4018
324.246	4139
324.335	2779
324.424	3485
324.512	2744
324.601	3025
324.689	2198
324.778	3632
324.866	2260
324.954	3205
325.043	2126
325.131	2118
325.220	4094
325.308	3079
325.397	3046
325.485	3278
325.574	1678
325.662	2478
325.750	2393
325.839	3465
325.927	2419
326.015	2887
326.104	2047
326.192	3565
326.280	2333
326.369	2795
326.457	1735
326.545	3288
326.634	2159
326.722	2342
326.810	2587
326.898	3917
326.987	3136
327.075	2878
327.163	2869
327.251	2953
327.340	3410
327.428	5550
327.516	5179
327.604	3970
327.692	2119
327.781	2967
327.869	2103
327.957	2088
328.045	2386
328.133	2400
328.221	2338
328.309	2304
328.397	1930
328.485	3467
328.574	5060
328.662	7885
328.750	3975
328.838	3208
328.926	2768
329.014	3235
329.102	2770
329.190	3447
329.278	2082
329.366	2649
329.454	1370
329.542	3084
329.630	1293
329.718	3250
329.806	1931
329.893	3213
329.981	1307
330.069	2881
330.157	2796
330.245	2958
330.333	3118
330.421	2973
330.509	2146
330.597	2547
330.684	2118
330.772	2538
330.860	2047
330.948	3598
331.036	2688
331.123	2255
331.211	1823
331.299	2487
331.387	2919
331.475	3602
331.562	2824
331.650	3132
331.738	2343
331.825	3012
331.913	2561
332.001	3220
332.089	2337
332.176	2709
332.264	2851
332.352	2709
332.439	2084
332.527	3591
332.614	2531
332.702	2896
332.790	2588
332.877	4152
332.965	8158
333.052	6888
333.140	7657
333.228	18943
333.315	5286
333.403	3745
333.490	4029
333.578	8263
333.665	27419
333.753	12034
333.840	4479
333.928	4959
334.015	4797
334.103	7860
334.190	15123
334.278	10818
334.365	14487
334.452	15690
334.540	9164
334.627	8524
334.715	10489
334.802	15153
334.889	27732
334.977	40242
335.064	24265
335.151	10851
335.239	7856
335.326	7620
335.413	10624
335.501	12983
335.588	6086
335.675	7325
335.762	8724
335.850	13036
335.937	18387
336.024	30427
336.111	53438
336.199	50023
336.286	21255
336.373	11401
336.460	7288
336.547	6641
336.635	5269
336.722	4863
336.809	3762
336.896	4663
336.983	5214
337.070	10637
337.157	13294
337.245	7481
337.332	6357
337.419	4833
337.506	3720
337.593	4225
337.680	4791
337.767	10554
337.854	3680
337.941	4371
338.028	3444
338.115	2864
338.202	3868
338.289	4777
338.376	5169
338.463	4436
338.550	5814
338.637	7343
338.724	2991
338.811	3962
338.898	2807
338.984	2805
339.071	3137
339.158	2901
339.245	2876
339.332	3733
339.419	3071
339.506	3508
339.593	1646
339.679	3536
339.766	2065
339.853	2810
339.940	2814
340.027	2778
340.113	2497
340.200	3081
340.287	2427
340.374	2764
340.460	2763
340.547	1746
340.634	2629
340.720	4308
340.807	2144
340.894	2912
340.980	2825
341.067	2244
341.154	2875
341.240	3012
341.327	3280
341.414	3578
341.500	1475
341.587	2851
341.674	2675
341.760	3338
341.847	2486
341.933	2851
342.020	1223
342.106	3161
342.193	1849
342.279	2801
342.366	1822
342.452	3255
342.539	2271
342.625	2907
342.712	2438
342.798	3363
342.885	2271
342.971	2720
343.058	2239
343.144	2513
343.230	3590
343.317	3233
343.403	1181
343.490	2347
343.576	2041
343.662	2761
343.749	2145
343.835	1792
343.921	3439
344.008	8357
344.094	15648
344.180	5188
344.267	3269
344.353	4258
344.439	3548
344.525	2887
344.612	2135
344.698	2514
344.784	1648
344.870	3440
344.957	2144
345.043	3248
345.129	1880
345.215	2558
345.301	2020
345.387	2975
345.474	1758
345.560	2482
345.646	1842
345.732	2833
345.818	1428
345.904	2362
345.990	1890
346.076	2785
346.162	1710
346.249	3280
346.335	1766
346.421	2870
346.507	2791
346.593	4924
346.679	1405
346.765	4141
346.851	5490
346.937	3706
347.023	3458
347.108	2742
347.194	2652
347.280	2687
347.366	3330
347.452	10750
347.538	13491
347.624	8467
347.710	4562
347.796	3038
347.882	3069
347.967	2921
348.053	2452
348.139	2864
348.225	2441
348.311	2882
348.397	2889
348.482	3604
348.568	3195
348.654	4774
348.740	14004
348.825	12985
348.911	5947
348.997	5636
349.083	7660
349.168	3575
349.254	1858
349.340	3020
349.425	2946
349.511	3033
349.597	2342
349.682	2975
349.768	4976
349.854	3673
349.939	2984
350.025	2951
350.110	2584
350.196	2754
350.282	2113
350.367	3971
350.453	3017
350.538	2673
350.624	1588
350.709	3392
350.795	1693
350.880	2856
350.966	3683
351.051	3066
351.137	2888
351.222	3100
351.308	2803
351.393	3491
351.479	2172
351.564	2497
351.649	3061
351.735	2677
351.820	2351
351.906	3345
351.991	1715
352.076	3738
352.162	3128
352.247	3077
352.332	2343
352.418	2402
352.503	2559
352.588	4247
352.673	2340
352.759	2956
352.844	2115
352.929	2333
353.014	2012
353.100	3227
353.185	2443
353.270	2341
353.355	2874
353.441	2928
353.526	1700
353.611	2975
353.696	2146
353.781	3268
353.866	1538
353.952	3325
354.037	1997
354.122	3788
354.207	2461
354.292	3206
354.377	2530
354.462	2816
354.547	1950
354.632	3903
354.717	3328
354.802	2119
354.887	2200
354.972	3120
355.057	2786
355.142	1787
355.227	2951
355.312	2885
355.397	1787
355.482	3289
355.567	1950
355.652	3156
355.737	2843
355.822	4567
355.907	2593
355.991	3840
356.076	2100
356.161	3429
356.246	2232
356.331	2539
356.416	2162
356.501	9593
356.585	6584
356.670	2553
356.755	4265
356.840	3268
356.924	6577
357.009	16149
357.094	6931
357.179	2819
357.263	2744
357.348	4078
357.433	2487
357.517	2999
357.602	2586
357.687	2579
357.771	3157
357.856	3227
357.941	3443
358.025	6646
358.110	20850
358.195	10445
358.279	3363
358.364	3775
358.448	4161
358.533	7149
358.617	4312
358.702	5882
358.787	3334
358.871	3470
358.956	2699
359.040	3192
359.125	3185
359.209	3845
359.294	3524
359.378	4919
359.462	4036
359.547	3616
359.631	2316
359.716	2299
359.800	2394
359.885	3929
359.969	2797
360.053	3848
360.138	3203
360.222	2725
360.306	2254
360.391	3676
360.475	3337
360.559	3965
360.644	3737
360.728	3076
360.812	5627
360.896	11802
360.981	5157
361.065	4038
361.149	3920
361.233	3674
361.318	1787
361.402	2766
361.486	3263
361.570	3515
361.654	4186
361.739	3471
361.823	8170
361.907	13008
361.991	5864
362.075	6118
362.159	6408
362.243	15085
362.327	34838
362.411	56991
362.495	20249
362.580	10199
362.664	8054
362.748	9449
362.832	15045
362.916	30013
363.000	90172
363.084	130283
363.168	51455
363.252	16566
363.336	9885
363.420	8956
363.503	13398
363.587	14364
363.671	6191
363.755	6492
363.839	7573
363.923	7152
364.007	8826
364.091	12033
364.175	17590
364.258	49145
364.342	100620
364.426	182551
364.510	94743
364.594	29346
364.677	14534
364.761	14509
364.845	10739
364.929	5596
365.013	5228
365.096	4858
365.180	3910
365.264	6997
365.347	17164
365.431	7917
365.515	3279
365.598	2684
365.682	4481
365.766	4021
365.849	3926
365.933	3854
366.017	4706
366.100	4171
366.184	2565
366.267	4991
366.351	3522
366.435	3192
366.518	2537
366.602	4274
366.685	3927
366.769	3694
366.852	3657
366.936	4877
367.019	3632
367.103	2949
367.186	6054
367.270	4673
367.353	3162
367.436	5620
367.520	3864
367.603	4624
367.687	2946
367.770	4851
367.853	5251
367.937	5819
368.020	6745
368.104	3445
368.187	4079
368.270	4089
368.353	3188
368.437	4166
368.520	4729
368.603	4409
368.687	3279
368.770	6898
368.853	3270
368.936	4852
369.020	4449
369.103	3247
369.186	1915
369.269	3254
369.352	3157
369.436	3484
369.519	3266
369.602	1813
369.685	5249
369.768	1733
369.851	3086
369.934	2552
370.018	2442
370.101	2882
370.184	5959
370.267	5451
370.350	3894
370.433	4761
370.516	10071
370.599	21163
370.682	7525
370.765	7109
370.848	7013
370.931	7249
371.014	6161
371.097	3399
371.180	5278
371.263	5671
371.346	3214
371.429	5650
371.511	4071
371.594	4893
371.677	6219
371.760	8643
371.843	6371
371.926	13668
372.009	22369
372.091	16105
372.174	8912
372.257	12318
372.340	9010
372.423	10193
372.505	10302
372.588	6954
372.671	6910
372.754	8386
372.836	6346
372.919	9462
373.002	11795
373.085	6864
373.167	6995
373.250	7196
373.332	8322
373.415	14477
373.498	22631
373.580	14118
373.663	31372
373.746	30729
373.828	7308
373.911	7442
373.993	5104
374.076	10259
374.159	8685
374.241	5961
374.324	7508
374.406	7452
374.489	9067
374.571	18496
374.654	7916
374.736	7066
374.819	12339
374.901	19444
374.983	17309
375.066	7755
375.148	5934
375.231	11480
375.313	15455
375.395	8072
375.478	5551
375.560	6318
375.643	5714
375.725	7428
375.807	13619
375.890	13047
375.972	4795
376.054	5149
376.136	5323
376.219	4865
376.301	6586
376.383	9436
376.465	5248
376.548	4039
376.630	5123
376.712	9638
376.794	4891
376.877	4302
376.959	2582
377.041	3317
377.123	3662
377.205	4716
377.287	2615
377.369	4669
377.452	3186
377.534	4897
377.616	3667
377.698	4413
377.780	2961
377.862	4088
377.944	4630
378.026	2842
378.108	4199
378.190	3521
378.272	4421
378.354	4117
378.436	2523
378.518	2776
378.600	4914
378.682	4893
378.764	4456
378.846	5314
378.928	3444
379.010	3754
379.091	4404
379.173	4551
379.255	3062
379.337	3758
379.419	3278
379.501	6975
379.583	4034
379.664	4355
379.746	2981
379.828	6357
379.910	4385
379.991	5709
380.073	3467
380.155	3948
380.237	3390
380.318	3781
380.400	3227
380.482	5218
380.564	4580
380.645	4456
380.727	4219
380.809	5372
380.890	3552
380.972	2613
381.053	4420
381.135	5284
381.217	4249
381.298	6667
381.380	4094
381.461	4783
381.543	8908
381.624	11183
381.706	5722
381.787	5622
381.869	6052
381.951	8033
382.032	17933
382.113	15326
382.195	4869
382.276	8988
382.358	8019
382.439	12909
382.521	16527
382.602	23074
382.684	18128
382.765	29048
382.846	77492
382.928	171604
383.009	96804
383.090	76003
383.172	204364
383.253	254674
383.334	89345
383.416	40195
383.497	30377
383.578	34610
383.659	65377
383.741	180607
383.822	324623
383.903	175368
383.984	53944
384.066	32549
384.147	19845
384.228	14254
384.309	12329
384.390	12101
384.471	10105
384.553	9429
384.634	8644
384.715	9482
384.796	7550
384.877	7605
384.958	10422
385.039	7880
385.120	7076
385.201	7715
385.282	6211
385.363	9909
385.444	9842
385.525	10444
385.606	11933
385.687	10935
385.768	8077
385.849	7644
385.930	14435
386.011	19492
386.092	8276
386.173	7324
386.254	6753
386.335	7470
386.416	6159
386.496	7071
386.577	7117
386.658	6617
386.739	5538
386.820	8354
386.901	5575
386.981	8083
387.062	7985
387.143	8305
387.224	10571
387.304	13265
387.385	11110
387.466	9199
387.547	12071
387.627	10867
387.708	12156
387.789	14859
387.869	12240
387.950	10375
388.031	7399
388.111	4838
388.192	7517
388.273	9308
388.353	6195
388.434	6042
388.514	5623
388.595	11137
388.676	9794
388.756	6685
388.837	6835
388.917	5352
388.998	3426
389.078	6094
389.159	4047
389.239	2630
389.320	7330
389.400	2645
389.480	5685
389.561	6786
389.641	5799
389.722	4371
389.802	3756
389.883	6156
389.963	7542
390.043	5683
390.124	3275
390.204	4783
390.284	5315
390.365	4168
390.445	6868
390.525	6674
390.605	6262
390.686	4458
390.766	4747
390.846	5799
390.927	4051
391.007	3474
391.087	4092
391.167	4320
391.247	3751
391.328	6480
391.408	6112
391.488	5592
391.568	3308
391.648	5321
391.728	5671
391.808	6779
391.888	6257
391.969	7459
392.049	6620
392.129	8431
392.209	7917
392.289	10851
392.369	9404
392.449	10948
392.529	9787
392.609	12523
392.689	12917
392.769	17285
392.849	18929
392.929	25933
393.009	33347
393.089	47750
393.169	86962
393.248	203389
393.328	403572
393.408	391131
393.488	193367
393.568	81713
393.648	43326
393.728	27984
393.807	19557
393.887	17980
393.967	13918
394.047	11007
394.127	8993
394.206	9017
394.286	11430
394.366	32247
394.446	33445
394.525	9696
394.605	6326
394.685	7656
394.764	9614
394.844	19455
394.924	21109
395.003	9022
395.083	5734
395.163	6043
395.242	4466
395.322	6075
395.402	3393
395.481	7237
395.561	9466
395.640	27874
395.720	48060
395.799	26646
395.879	12409
395.958	7621
396.038	12135
396.117	44512
396.197	47194
396.276	17178
396.356	12305
396.435	16841
396.515	20532
396.594	31701
396.673	66639
396.753	185644
396.832	358479
396.912	267582
396.991	92448
397.070	40917
397.150	22978
397.229	21867
397.308	39307
397.388	69259
397.467	30903
397.546	12140
397.625	6323
397.705	9643
397.784	6463
397.863	6483
397.942	5587
398.022	6171
398.101	5929
398.180	12391
398.259	7432
398.338	6468
398.417	3852
398.497	4302
398.576	4542
398.655	3839
398.734	4024
398.813	4700
398.892	5104
398.971	11347
399.050	5648
399.129	3681
399.208	3530
399.287	3893
399.366	2148
399.445	3150
399.524	3605
399.603	2446
399.682	3206
399.761	4610
399.840	11714
399.919	9986
399.998	3259
400.077	2589
400.156	1911
400.235	5840
400.313	1950
400.392	2249
400.471	4016
400.550	4926
400.629	2231
400.708	3855
400.786	2226
400.865	3319
400.944	2787
401.023	4705
401.102	1853
401.180	2932
401.259	2238
401.338	2704
401.416	2086
401.495	1765
401.574	2630
401.652	1578
401.731	2801
401.810	1439
401.888	1835
401.967	1845
402.046	1031
402.124	2074
402.203	790
402.281	2556
402.360	1104
402.438	3907
402.517	1506
402.596	3130
402.674	1414
402.753	1875
402.831	2942
402.910	3097
402.988	1793
403.066	6525
403.145	4976
403.223	4779
403.302	4926
403.380	5494
403.459	4950
403.537	3257
403.615	2215
403.694	1686
403.772	3140
403.850	3051
403.929	1343
404.007	1895
404.085	3292
404.164	2391
404.242	1202
404.320	3630
404.398	3807
404.477	3471
404.555	9390
404.633	8207
404.711	3262
404.789	3025
404.868	1463
404.946	896
405.024	1977
405.102	1862
405.180	1299
405.258	1419
405.336	2469
405.415	1312
405.493	1771
405.571	2484
405.649	1567
405.727	1163
405.805	3145
405.883	3638
405.961	3063
406.039	2246
406.117	804
406.195	2113
406.273	1874
406.351	6418
406.429	4727
406.507	1961
406.585	1068
406.663	2148
406.740	1072
406.818	441
406.896	271
406.974	3032
407.052	389
407.130	4595
407.208	5366
407.285	4009
407.363	-33
407.441	2404
407.519	1075
407.596	2485
407.674	2474
407.752	7035
407.830	6180
407.907	2572
407.985	274
408.063	2030
408.141	398
408.218	2411
408.296	370
408.373	2105
408.451	2431
408.529	2229
408.606	1853
408.684	2980
408.762	3058
408.839	3730
408.917	3282
408.994	3744
409.072	3038
409.149	5716
409.227	8932
409.304	14656
409.382	13788
409.459	16304
409.537	21541
409.614	17756
409.692	12667
409.769	13484
409.846	22212
409.924	26231
410.001	15628
410.079	11713
410.156	8090
410.233	6937
410.311	4120
410.388	4267
410.465	4587
410.543	3609
410.620	4718
410.697	4772
410.775	4302
410.852	3730
410.929	5140
411.006	5700
411.083	3680
411.161	3766
411.238	4173
411.315	3150
411.392	3039
411.469	4349
411.547	3002
411.624	1714
411.701	1910
411.778	2575
411.855	2281
411.932	1371
412.009	865
412.086	3237
412.163	2268
412.240	1875
412.317	2461
412.394	2009
412.471	1991
412.548	1502
412.625	1332
412.702	1990
412.779	1884
412.856	1616
412.933	1509
413.010	2282
413.087	1897
413.164	1876
413.241	2308
413.318	1255
413.395	2085
413.471	1783
413.548	513
413.625	2701
413.702	62
413.779	1844
413.855	1623
413.932	1178
414.009	848
414.086	2095
414.162	1708
414.239	1879
414.316	1905
414.393	4093
414.469	654
414.546	1364
414.623	1801
414.699	1834
414.776	473
414.853	755
414.929	502
415.006	528
415.082	1597
415.159	1651
415.236	1334
415.312	2478
415.389	577
415.465	915
415.542	1532
415.618	296
415.695	1014
415.771	970
415.848	684
415.924	875
416.000	1030
416.077	2863
416.153	11
416.230	303
416.306	620
416.383	1498
416.459	2037
416.535	1078
416.612	918
416.688	2175
416.764	1294
416.841	1223
416.917	884
416.993	2681
417.069	1616
417.146	1521
417.222	664
417.298	799
417.374	349
417.451	1116
417.527	888
417.603	1261
417.679	536
417.755	1417
417.831	696
417.908	1097
417.984	1307
418.060	911
418.136	1910
418.212	1120
418.288	872
418.364	1600
418.440	1124
418.516	2617
418.592	1865
418.668	1589
418.744	185
418.820	1135
418.896	1203
418.972	1405
419.048	728
419.124	3240
419.200	361
419.276	2006
419.352	734
419.428	1949
419.504	847
419.579	2197
419.655	1090
419.731	1851
419.807	1973
419.883	1947
419.959	1807
420.034	2368
420.110	1508
420.186	3335
420.262	3395
420.337	2591
420.413	1896
420.489	2968
420.565	4102
420.640	3600
420.716	3735
420.792	3585
420.867	4120
420.943	3676
421.019	4208
421.094	4378
421.170	5043
421.245	5499
421.321	5265
421.397	5994
421.472	7610
421.548	10587
421.623	9804
421.699	10589
421.774	11547
421.850	12290
421.925	15749
422.001	18425
422.076	21661
422.152	27971
422.227	35929
422.302	52024
422.378	72871
422.453	114683
422.529	174708
422.604	193113
422.679	148539
422.755	187118
422.830	174569
422.905	116897
422.981	78937
423.056	56159
423.131	41609
423.207	32902
423.282	25140
423.357	21337
423.432	16674
423.508	16284
423.583	12702
423.658	12042
423.733	10451
423.808	10470
423.883	9532
423.959	10245
424.034	11664
424.109	11878
424.184	7118
424.259	6628
424.334	5488
424.409	5572
424.484	3824
424.559	3762
424.634	3477
424.709	4250
424.784	3192
424.859	3741
424.934	2729
425.009	3632
425.084	4022
425.159	2464
425.234	3263
425.309	3208
425.384	2377
425.459	2612
425.534	2616
425.609	2364
425.683	1924
425.758	2458
425.833	1839
425.908	2882
425.983	1720
426.058	3624
426.132	2376
426.207	2632
426.282	2991
426.357	2532
426.431	1776
426.506	2726
426.581	1915
426.655	3098
426.730	1623
426.805	1699
426.879	2123
426.954	1610
427.029	1291
427.103	2897
427.178	4160
427.253	3111
427.327	1310
427.402	1360
427.476	1675
427.551	1682
427.625	2380
427.700	1329
427.774	658
427.849	2554
427.923	1711
427.998	2150
428.072	2016
428.147	6509
428.221	28495
428.296	81184
428.370	41261
428.444	6604
428.519	2555
428.593	2899
428.667	3304
428.742	4656
428.816	10744
428.890	52818
428.965	71133
429.039	17962
429.113	4314
429.188	2440
429.262	1814
429.336	2178
429.410	1788
429.485	1640
429.559	2902
429.633	3094
429.707	3442
429.781	10224
429.855	49851
429.930	66516
430.004	17888
430.078	15313
430.152	35923
430.226	108604
430.300	99410
430.374	20975
430.448	6969
430.522	5772
430.596	10051
430.670	18012
430.744	63756
430.818	62141
430.892	10184
430.966	2628
431.040	1712
431.114	1078
431.188	1426
431.262	1106
431.336	256
431.410	2554
431.484	2217
431.557	1486
431.631	906
431.705	4374
431.779	21911
431.853	77782
431.927	47207
432.000	7966
432.074	2009
432.148	1288
432.222	520
432.295	369
432.369	946
432.443	346
432.516	1660
432.590	4510
432.664	1431
432.737	-62
432.811	-596
432.885	170
432.958	384
433.032	190
433.106	-561
433.179	816
433.253	130
433.326	167
433.400	-59
433.473	1096
433.547	-149
433.620	261
433.694	-283
433.767	1033
433.841	-444
433.914	-22
433.988	112
434.061	-112
434.134	279
434.208	686
434.281	87
434.355	272
434.428	348
434.501	-495
434.575	-590
434.648	402
434.721	-403
434.795	122
434.868	-200
434.941	1016
435.014	175
435.088	380
435.161	1646
435.234	2922
435.307	2611
435.381	3984
435.454	5431
435.527	11337
435.600	10879
435.673	8680
435.746	5471
435.819	4394
435.892	3003
435.966	1897
436.039	990
436.112	2260
436.185	436
436.258	406
436.331	-104
436.404	1126
436.477	-574
436.550	611
436.623	501
436.696	376
436.769	710
436.842	1057
436.915	331
436.987	960
437.060	639
437.133	274
437.206	-407
437.279	803
437.352	338
437.425	289
437.498	19
437.570	550
437.643	184
437.716	95
437.789	-577
437.861	176
437.934	-264
438.007	802
438.080	-334
438.152	767
438.225	277
438.298	3476
438.370	7849
438.443	3022
438.516	57
438.588	816
438.661	-238
438.734	1101
438.806	-749
438.879	1066
438.951	-226
439.024	482
439.096	-98
439.169	-38
439.241	35
439.314	686
439.386	-261
439.459	512
439.531	139
439.604	253
439.676	522
439.749	779
439.821	-639
439.893	12
439.966	-588
440.038	565
440.110	-307
440.183	-71
440.255	-460
440.327	1410
440.400	629
440.472	3762
440.544	1883
440.617	1191
440.689	1188
440.761	744
440.833	631
440.905	830
440.978	319
441.050	661
441.122	43
441.194	-168
441.266	282
441.338	294
441.411	22
441.483	1326
441.555	1327
441.627	656
441.699	139
441.771	983
441.843	951
441.915	977
441.987	330
442.059	1790
442.131	1111
442.203	2906
442.275	2564
442.347	5991
442.419	13708
442.491	64712
442.563	123341
442.635	45632
442.706	9533
442.778	5447
442.850	2119
442.922	2437
442.994	2528
443.066	3928
443.137	3309
443.209	5398
443.281	8229
443.353	20580
443.425	72901
443.496	188836
443.568	184511
443.640	74139
443.711	16556
443.783	7820
443.855	4248
443.926	3192
443.998	1874
444.070	2878
444.141	2360
444.213	1386
444.285	1847
444.356	2212
444.428	2133
444.499	2146
444.571	1261
444.642	2479
444.714	1790
444.785	2070
444.857	2615
444.928	3387
445.000	3399
445.071	5189
445.143	6319
445.214	9060
445.285	14764
445.357	40965
445.428	130555
445.500	216870
445.571	172078
445.642	112142
445.714	36674
445.785	13706
445.856	4759
445.928	4448
445.999	2551
446.070	2633
446.141	1877
446.213	896
446.284	452
446.355	1855
446.426	506
446.497	863
446.569	639
446.640	558
446.711	154
446.782	1403
446.853	-41
446.924	544
446.995	-559
447.066	1056
447.138	57
447.209	565
447.280	-426
447.351	-30
447.422	-819
447.493	270
447.564	-167
447.635	244
447.706	-143
447.777	751
447.847	103
447.918	4
447.989	-542
448.060	229
448.131	420
448.202	504
448.273	-665
448.344	132
448.414	-209
448.485	662
448.556	-126
448.627	199
448.698	655
448.768	74
448.839	-1142
448.910	-657
448.981	-52
449.051	312
449.122	-913
449.193	215
449.263	-345
449.334	-986
449.405	61
449.475	29
449.546	199
449.616	732
449.687	-12
449.758	1024
449.828	-1318
449.899	-186
449.969	-63
450.040	165
450.110	-534
450.181	80
450.251	-969
450.322	148
450.392	-545
450.463	290
450.533	-516
450.604	-92
450.674	430
450.744	761
450.815	-505
450.885	711
450.955	1232
451.026	952
451.096	-905
451.166	-163
451.237	1207
451.307	2889
451.377	296
451.447	90
451.518	-317
451.588	-81
451.658	-256
451.728	267
451.799	652
451.869	1706
451.939	-523
452.009	605
452.079	-350
452.149	415
452.219	138
452.289	1699
452.360	1101
452.430	99
452.500	593
452.570	3135
452.640	7864
452.710	22885
452.780	21101
452.850	8974
452.920	2935
452.990	1769
453.060	304
453.129	881
453.199	92
453.269	1756
453.339	2906
453.409	4076
453.479	5354
453.549	6991
453.619	5450
453.688	1248
453.758	-213
453.828	383
453.898	-238
453.968	167
454.037	408
454.087	28
454.107	-137
454.168	-412
454.177	-468
454.247	-286
454.249	-312
454.316	-1347
454.330	-1074
454.386	-69
454.411	-276
454.456	-699
454.492	-710
454.525	-754
454.574	-261
454.595	-39
454.655	-249
454.665	-312
454.734	-63
454.736	-49
454.804	-27
454.817	135
454.873	692
454.898	691
454.943	714
454.979	551
455.013	355
455.060	198
455.082	116
455.141	64
455.152	40
455.221	605
455.222	627
455.291	1179
455.303	1077
455.360	706
455.384	419
455.430	-205
455.465	303
455.499	678
455.546	799
455.569	869
455.627	804
455.638	774
455.707	-194
455.708	-177
455.777	144
455.789	88
455.846	-155
455.869	-40
455.916	180
455.950	138
455.985	46
456.031	149
456.054	208
456.112	258
456.124	249
456.193	1127
456.193	1115
456.262	548
456.274	673
456.332	1234
456.355	959
456.401	523
456.436	580
456.470	408
456.516	83
456.540	9
456.597	528
456.609	577
456.678	1120
456.678	1111
456.747	1098
456.759	1029
456.817	640
456.840	915
456.886	1226
456.920	912
456.955	654
457.001	1079
457.024	1317
457.082	1735
457.093	1736
457.162	1576
457.163	1593
457.232	1494
457.243	1606
457.301	2142
457.324	1980
457.370	1767
457.405	2172
457.439	2620
457.485	2648
457.508	2624
457.566	3233
457.577	3577
457.646	5580
457.647	5643
457.715	16697
457.727	19072
457.784	34957
457.808	45947
457.853	55825
457.889	60467
457.922	56162
457.969	35656
457.991	37386
458.050	51620
458.060	54368
458.129	95515
458.130	96625
458.198	80892
458.211	70855
458.267	34830
458.292	22511
458.336	15883
458.372	15899
458.405	25267
458.453	41352
458.474	53544
458.533	97898
458.543	100361
458.611	140794
458.614	141290
458.680	73168
458.694	54590
458.749	22701
458.775	15144
458.818	9259
458.855	7161
458.887	5976
458.936	4873
458.955	4422
459.016	3370
459.024	3331
459.093	4587
459.097	4542
459.162	2850
459.177	2906
459.230	3414
459.257	3210
459.299	2903
459.338	3211
459.368	3499
459.418	2994
459.437	2608
459.499	2538
459.505	2622
459.574	2369
459.579	2431
459.643	2646
459.659	2710
459.711	3162
459.740	3310
459.780	2995
459.820	2452
459.849	2419
459.900	2669
459.917	2667
459.981	2402
459.986	2370
460.054	2582
460.061	2579
460.123	2494
460.141	2564
460.191	2915
460.222	2739
460.260	2486
460.302	2710
460.328	2751
460.382	2790
460.397	2827
460.462	2864
460.465	2909
460.534	3921
460.543	4087
460.602	9440
460.623	11542
460.671	17434
460.703	23023
460.739	20801
460.783	14641
460.808	11746
460.864	4133
460.876	3748
460.944	3033
460.945	3015
461.013	3180
461.024	3011
461.081	2731
461.104	3123
461.150	3339
461.184	3139
461.218	3233
461.264	3308
461.286	3228
461.345	3006
461.355	2990
461.423	3297
461.425	3292
461.491	2600
461.505	2540
461.559	2985
461.585	3094
461.628	3163
461.665	3542
461.696	3980
461.745	4406
461.764	4151
461.825	2912
461.832	2899
461.901	3336
461.905	3364
461.969	2651
461.985	2425
462.037	3371
462.065	3885
462.105	3586
462.145	3208
462.173	3070
462.225	3399
462.241	3542
462.305	3344
462.310	3345
462.378	3931
462.385	3924
462.446	3779
462.465	3767
462.514	3425
462.545	3294
462.582	3286
462.625	3428
462.650	3467
462.705	3305
462.718	3233
462.785	2981
462.786	2989
462.854	3121
462.865	3215
462.922	3325
462.945	3139
462.990	3108
463.025	3340
463.058	3366
463.104	3315
463.126	3301
463.184	3333
463.194	3342
463.262	2837
463.264	2841
463.330	3592
463.344	3672
463.398	4041
463.424	4275
463.466	3536
463.504	2908
463.533	3298
463.583	3679
463.601	3478
463.663	3112
463.669	3138
463.737	3325
463.743	3321
463.805	4132
463.823	4402
463.873	4282
463.903	4159
463.940	4081
463.982	4135
464.008	3935
464.062	3239
464.076	3445
464.142	4609
464.144	4599
464.211	3947
464.221	3840
464.279	3793
464.301	3716
464.347	3519
464.381	3547
464.414	3829
464.461	4240
464.482	4161
464.540	3650
464.550	3545
464.617	2766
464.620	2742
464.685	3265
464.699	3324
464.753	3850
464.779	4230
464.820	4075
464.859	3724
464.888	3455
464.938	3112
464.956	3384
465.018	4292
465.023	4258
465.091	3766
465.098	3696
465.158	3924
465.177	4053
465.226	4045
465.257	3937
465.293	3676
465.336	3406
465.361	3713
465.416	4405
465.428	4419
465.495	4408
465.496	4412
465.563	3770
465.575	3711
465.631	4248
465.654	4408
465.698	4195
465.734	4027
465.765	4042
465.813	3964
465.833	4146
465.893	4885
465.900	4916
465.968	4861
465.972	4861
466.035	4593
466.052	4473
466.102	4174
466.131	4047
466.170	3777
466.210	3446
466.237	3849
466.290	4637
466.304	4637
466.369	4440
466.372	4439
466.439	4281
466.449	4226
466.506	3670
466.528	3497
466.573	4159
466.607	4561
466.641	5076
466.687	5888
466.708	6183
466.766	6854
466.775	6638
466.842	4955
466.845	4865
466.909	5046
466.925	5087
466.977	5060
467.004	5025
467.044	4756
467.083	4490
467.111	4702
467.163	5049
467.178	4921
467.242	4353
467.245	4393
467.312	5060
467.321	5141
467.379	5594
467.400	5742
467.446	5686
467.480	5627
467.559	5506
467.638	5177
467.717	5361
467.796	6622
467.875	6864
467.955	5830
468.034	7413
468.113	9652
468.192	12625
468.271	13103
468.350	20521
468.429	29877
468.508	32176
468.588	18483
468.667	10822
468.746	8239
468.825	6777
468.904	6224
468.983	5579
469.062	6457
469.141	6161
469.220	5725
469.299	5118
469.378	4379
469.456	7197
469.535	6027
469.614	4970
469.693	5064
469.772	6352
469.851	6381
469.930	5934
470.009	6333
470.088	7714
470.166	12189
470.245	21614
470.324	27133
470.403	15590
470.482	8896
470.560	6587
470.639	6419
470.718	6259
470.797	5491
470.875	5434
470.954	5319
471.033	6052
471.111	5117
471.190	5577
471.269	4928
471.347	4258
471.426	4382
471.505	5036
471.583	5168
471.662	5899
471.740	5184
471.819	4872
471.898	5164
471.976	5504
472.055	4472
472.133	6054
472.212	6049
472.290	5489
472.369	4976
472.447	4548
472.526	5333
472.604	6054
472.683	5175
472.761	4862
472.839	4858
472.918	5309
472.996	6483
473.075	6044
473.153	5984
473.231	5075
473.310	6473
473.388	6074
473.466	5351
473.545	6331
473.623	5304
473.701	5913
473.780	6415
473.858	4277
473.936	7338
474.014	4844
474.093	5561
474.171	6114
474.249	6173
474.327	5635
474.405	5878
474.484	5910
474.562	6131
474.640	5195
474.718	5436
474.796	4783
474.874	5426
474.952	5237
475.030	5040
475.108	5895
475.187	5065
475.265	5965
475.343	5153
475.421	5293
475.499	5319
475.577	5298
475.655	5898
475.733	5606
475.811	6647
475.889	6815
475.966	6414
476.044	5537
476.122	5269
476.200	5344
476.278	5443
476.356	5058
476.434	5259
476.512	6285
476.590	5410
476.667	5888
476.745	5332
476.823	5896
476.901	5741
476.979	5902
477.056	5445
477.134	5681
477.212	5381
477.290	5266
477.367	4426
477.445	5010
477.523	5272
477.601	6212
477.678	5275
477.756	5423
477.834	5803
477.911	5275
477.989	4989
478.066	5224
478.144	5512
478.222	5507
478.299	5373
478.377	5804
478.454	6124
478.532	5287
478.609	5292
478.687	4923
478.764	4542
478.842	4525
478.919	4062
478.997	5738
479.074	4962
479.152	4956
479.229	5787
479.307	3853
479.384	5128
479.461	4868
479.539	5026
479.616	4697
479.694	4505
479.771	5788
479.848	4640
479.926	3821
480.003	6602
480.080	5133
480.157	4942
480.235	5121
480.312	5733
480.389	5740
480.467	5958
480.544	6132
480.621	6518
480.698	7271
480.775	7334
480.853	5971
480.930	6126
481.007	5730
481.084	5373
481.161	5750
481.238	5930
481.315	5086
481.392	5538
481.470	5557
481.547	5894
481.624	5513
481.701	6255
481.778	5688
481.855	6292
481.932	7086
482.009	7419
482.086	8555
482.163	9768
482.240	10470
482.317	11463
482.393	8600
482.470	8003
482.547	7602
482.624	6676
482.701	7215
482.778	6271
482.855	5725
482.932	6229
483.009	7144
483.085	9441
483.162	9324
483.239	11213
483.316	10116
483.393	10951
483.469	8669
483.546	8382
483.623	7044
483.699	6838
483.776	5926
483.853	5767
483.930	6356
484.006	6917
484.083	8169
484.160	6886
484.236	6534
484.313	6845
484.389	7085
484.466	9526
484.543	9812
484.619	14959
484.696	18940
484.772	10669
484.849	7742
484.925	7276
485.002	6240
485.078	6702
485.155	5219
485.231	5103
485.308	4980
485.384	5582
485.461	6837
485.537	4768
485.614	7605
485.690	5446
485.766	5389
485.843	5193
485.919	5136
485.995	4871
486.072	4898
486.148	5393
486.224	5098
486.301	4607
486.377	5847
486.453	4104
486.530	6040
486.606	5945
486.682	5678
486.758	6249
486.835	6610
486.911	5402
486.987	8095
487.063	8986
487.139	9559
487.215	10711
487.292	13102
487.368	15102
487.444	18040
487.520	26557
487.596	39541
487.672	105949
487.748	348432
487.824	503072
487.900	137354
487.976	34840
488.052	19855
488.128	13679
488.204	9692
488.280	9451
488.356	8819
488.432	8794
488.508	9508
488.584	6465
488.660	6823
488.736	6927
488.812	4692
488.888	6703
488.964	6287
489.039	6414
489.115	8274
489.191	6816
489.267	5938
489.343	5106
489.418	5952
489.494	5008
489.570	4652
489.646	6495
489.722	5232
489.797	5294
489.873	6753
489.949	7447
490.024	6521
490.100	6533
490.176	6610
490.251	6155
490.327	6074
490.403	5522
490.478	5844
490.554	5913
490.629	5859
490.705	5457
490.781	5362
490.856	5378
490.932	5373
491.007	5603
491.083	5195
491.158	5071
491.234	5473
491.309	7882
491.385	5735
491.460	4839
491.536	5911
491.611	5152
491.686	5384
491.762	5823
491.837	6020
491.913	6673
491.988	8046
492.063	7007
492.139	6578
492.214	5120
492.289	5010
492.365	4156
492.440	5334
492.515	3966
492.590	5417
492.666	4266
492.741	5794
492.816	6123
492.891	5353
492.967	5134
493.042	5495
493.117	4587
493.192	5106
493.267	5574
493.342	5912
493.418	6025
493.493	5833
493.568	5616
493.643	5646
493.718	5282
493.793	4612
493.868	6453
493.943	5810
494.018	6425
494.093	5273
494.168	6109
494.243	4912
494.318	5769
494.393	5971
494.468	6015
494.543	5760
494.618	5679
494.693	5905
494.768	5887
494.842	6267
494.917	6442
494.992	5920
495.067	6026
495.142	5374
495.217	6117
495.292	6804
495.366	5194
495.441	5793
495.516	7500
495.591	6521
495.665	7880
495.740	12259
495.815	7884
495.890	6458
495.964	4189
496.039	8663
496.114	6638
496.188	7830
496.263	7007
496.338	5883
496.412	6124
496.487	5923
496.561	5690
496.636	6232
496.710	5960
496.785	6249
496.860	6208
496.934	5633
497.009	6483
497.083	7249
497.158	7929
497.232	6976
497.307	8098
497.381	9138
497.455	9122
497.530	7033
497.604	6781
497.679	5588
497.753	6155
497.827	6306
497.902	5861
497.976	7522
498.050	10495
498.125	25775
498.199	25950
498.273	8623
498.348	8202
498.422	7456
498.496	9657
498.570	10186
498.645	6391
498.719	4398
498.793	5985
498.867	6438
498.941	6764
499.016	12792
499.090	25039
499.164	13770
499.238	7756
499.312	7587
499.386	7603
499.460	8072
499.534	9378
499.609	12564
499.683	8784
499.757	6623
499.831	7325
499.905	17091
499.979	16692
500.053	6421
500.127	7043
500.201	5507
500.275	7092
500.349	7484
500.422	7122
500.496	9928
500.570	11445
500.644	19414
500.718	22936
500.792	8779
500.866	5157
500.940	5725
501.013	5516
501.087	5225
501.161	5176
501.235	4322
501.309	8823
501.382	13612
501.456	15066
501.530	6652
501.603	6298
501.677	4549
501.751	2525
501.825	6146
501.898	5582
501.972	7676
502.046	6122
502.119	4525
502.193	4984
502.266	7043
502.340	5577
502.413	5519
502.487	7864
502.561	5224
502.634	5558
502.708	4961
502.781	4090
502.855	5801
502.928	3787
503.002	4223
503.075	3287
503.149	4712
503.222	4175
503.295	4180
503.369	6324
503.442	5771
503.516	8408
503.589	14108
503.662	12739
503.736	11660
503.809	17689
503.882	19462
503.956	30163
504.029	64360
504.102	194442
504.175	271262
504.249	87142
504.322	28946
504.395	16011
504.468	10758
504.542	7327
504.615	6574
504.688	6311
504.761	3378
504.834	6457
504.907	4568
504.980	5469
505.053	4095
505.127	1351
505.200	6705
505.273	4295
505.346	3237
505.419	2622
505.492	5340
505.565	3534
505.638	3658
505.711	3425
505.784	2466
505.857	2715
505.930	4917
506.003	1570
506.076	5125
506.149	2668
506.221	1618
506.294	4592
506.367	2656
506.440	7380
506.513	6458
506.586	3490
506.659	3099
506.731	3338
506.804	2717
506.877	2233
506.950	2943
507.022	3824
507.095	1716
507.168	4126
507.241	3345
507.313	2662
507.386	2197
507.459	4230
507.531	2135
507.604	2289
507.677	3611
507.749	1828
507.822	4113
507.894	2954
507.967	3693
508.040	2609
508.112	3559
508.185	2705
508.257	2004
508.330	4997
508.402	2498
508.475	3183
508.547	3158
508.620	2606
508.692	2466
508.765	3526
508.837	2264
508.909	2913
508.982	2694
509.054	3156
509.127	3236
509.199	1957
509.271	1996
509.344	2666
509.416	2791
509.488	2264
509.560	3342
509.633	2279
509.705	3068
509.777	3285
509.849	3226
509.922	1803
509.994	3186
510.066	3830
510.138	1606
510.210	5173
510.283	2026
510.355	3205
510.427	3671
510.499	2858
510.571	2445
510.643	2153
510.715	3900
510.787	1046
510.859	4545
510.931	3325
511.003	2633
511.076	3831
511.148	2045
511.219	2219
511.291	2245
511.363	4366
511.435	3008
511.507	1910
511.579	4754
511.651	4183
511.723	2566
511.795	3122
511.867	2277
511.939	3532
512.010	2819
512.082	4199
512.154	2185
512.226	2769
512.298	3655
512.369	2908
512.441	3791
512.513	3530
512.585	1084
512.656	4033
512.728	2037
512.800	2983
512.871	4321
512.943	3040
513.015	1510
513.086	3672
513.158	2789
513.230	2002
513.301	3225
513.373	3885
513.444	2951
513.516	2781
513.588	3542
513.659	3141
513.731	3532
513.802	2329
513.874	5221
513.945	3304
514.016	3255
514.088	2916
514.159	2219
514.231	4433
514.302	3080
514.374	3348
514.445	1495
514.516	6630
514.588	3026
514.659	3824
514.730	3034
514.802	4853
514.873	1320
514.944	5639
515.016	3548
515.087	3331
515.158	2806
515.229	4953
515.301	2620
515.372	3936
515.443	3233
515.514	3877
515.585	2401
515.656	5184
515.728	5252
515.799	4371
515.870	5673
515.941	4726
516.012	4123
516.083	6779
516.154	4975
516.225	9532
516.296	11425
516.367	11574
516.438	14461
516.509	19322
516.580	31722
516.651	131280
516.722	416030
516.793	130250
516.864	26540
516.935	25719
517.006	31235
517.077	40856
517.148	106364
517.219	517772
517.289	650546
517.360	88189
517.431	25266
517.502	14381
517.573	13943
517.643	11829
517.714	12178
517.785	14744
517.856	14617
517.926	22634
517.997	27264
518.068	34234
518.138	47727
518.209	84120
518.280	337059
518.350	1009705
518.421	334483
518.492	59238
518.562	38698
518.633	40937
518.703	54362
518.774	129106
518.845	354637
518.915	298818
518.986	76021
519.056	30968
519.127	21907
519.197	15252
519.268	15248
519.338	13338
519.408	7595
519.479	6703
519.549	6113
519.620	7384
519.690	5794
519.760	4857
519.831	5180
519.901	4933
519.971	4898
520.042	4484
520.112	3492
520.182	4431
520.253	4535
520.323	3531
520.393	3187
520.463	5589
520.534	684
520.604	5704
520.674	4548
520.744	4202
520.814	2827
520.885	4706
520.955	4118
521.025	10646
521.095	5992
521.165	5462
521.235	3300
521.305	2847
521.375	3619
521.445	3780
521.515	2174
521.585	4547
521.655	1412
521.725	4148
521.795	4884
521.865	1132
521.935	6137
522.005	2727
522.075	3172
522.145	4500
522.215	2408
522.285	4645
522.355	3466
522.424	5493
522.494	3591
522.564	4578
522.634	3145
522.704	7179
522.774	3497
522.843	3792
522.913	3060
522.983	3001
523.053	2708
523.122	4931
523.192	3439
523.262	4791
523.331	3274
523.401	4123
523.471	3598
523.540	4276
523.610	4105
523.680	3818
523.749	4342
523.819	4420
523.888	3889
523.958	4094
524.027	4157
524.097	5041
524.166	4113
524.236	2295
524.305	5498
524.375	2738
524.444	3364
524.514	6057
524.583	4213
524.653	3230
524.722	4833
524.791	3482
524.861	6576
524.930	3467
524.999	4322
525.069	5643
525.138	4961
525.207	5139
525.277	7247
525.346	6268
525.415	7602
525.484	8761
525.554	8210
525.623	12873
525.692	14558
525.761	19235
525.830	24056
525.900	31890
525.969	51014
526.038	101560
526.107	229412
526.176	621895
526.245	432651
526.314	125708
526.383	314655
526.452	387015
526.522	583227
526.591	457456
526.660	72925
526.729	45492
526.797	49499
526.867	74140
526.935	233456
527.004	844569
527.073	450267
527.142	59000
527.211	25456
527.280	16806
527.349	13182
527.418	8857
527.487	9722
527.555	6449
527.624	6889
527.693	4774
527.762	7936
527.831	5091
527.899	6671
527.968	5131
528.037	3292
528.106	5686
528.174	5527
528.243	4800
528.312	5320
528.380	4324
528.449	3629
528.518	6299
528.586	2710
528.655	5537
528.723	3886
528.792	4274
528.861	3067
528.929	3876
528.998	4719
529.066	3988
529.135	4553
529.203	2175
529.272	3334
529.340	5327
529.409	5304
529.477	2710
529.545	3776
529.614	6364
529.682	2361
529.751	4773
529.819	6435
529.887	4956
529.956	3716
530.024	5080
530.092	3557
530.161	5087
530.229	4820
530.297	3831
530.365	5657
530.434	5053
530.502	4134
530.570	4910
530.638	2948
530.707	4469
530.775	5731
530.843	4847
530.911	4948
530.979	5103
531.047	4298
531.115	4851
531.183	5050
531.252	5320
531.320	5386
531.388	4744
531.456	5076
531.524	3716
531.592	6516
531.660	7156
531.728	3839
531.796	4969
531.864	5877
531.932	5762
532.000	4674
532.067	4428
532.135	5246
532.203	6828
532.271	6122
532.339	7806
532.407	7982
532.475	6847
532.542	7104
532.610	7436
532.678	6110
532.746	9929
532.814	13068
532.881	6851
532.949	7067
533.017	6199
533.084	5607
533.152	5985
533.220	6260
533.287	5516
533.355	6222
533.423	6086
533.490	5370
533.558	7234
533.625	7427
533.693	6203
533.761	7109
533.828	7195
533.896	5785
533.963	8084
534.031	8069
534.098	10839
534.166	11998
534.233	10970
534.300	13971
534.368	13288
534.435	13155
534.503	14020
534.570	16865
534.637	19101
534.705	21002
534.772	26382
534.840	58166
534.907	274349
534.974	287805
535.041	34079
535.109	17208
535.176	12314
535.243	12072
535.310	11557
535.378	10805
535.445	10884
535.512	11999
535.579	11441
535.646	9777
535.714	11626
535.781	13219
535.848	12451
535.915	12398
535.982	10714
536.049	11328
536.116	12757
536.183	11123
536.250	10600
536.317	10800
536.384	11588
536.451	12268
536.518	12486
536.585	10578
536.652	13048
536.719	12830
536.786	10308
536.853	11702
536.920	12889
536.987	12505
537.053	10815
537.120	15558
537.187	15146
537.254	12855
537.321	12597
537.388	14163
537.454	12558
537.521	12690
537.588	12180
537.654	13382
537.721	13549
537.788	14384
537.855	12412
537.921	14193
537.988	12697
538.055	12113
538.121	10475
538.188	11957
538.254	11091
538.321	12267
538.388	12738
538.454	14964
538.521	14628
538.587	14984
538.654	13816
538.720	12577
538.787	14238
538.853	13494
538.920	12536
538.986	11010
539.053	11742
539.119	13057
539.185	12274
539.252	13979
539.318	12703
539.385	15941
539.451	12928
539.517	13568
539.583	14119
539.650	13669
539.716	14511
539.782	12273
539.849	12270
539.915	13384
539.981	12138
540.047	12661
540.114	12427
540.180	14182
540.246	13907
540.312	14793
540.378	15642
540.444	14205
540.510	14067
540.576	16294
540.643	13413
540.709	12138
540.775	13343
540.841	12534
540.907	13230
540.973	13630
541.039	13435
541.105	13622
541.171	14188
541.237	15539
541.303	15290
541.369	15590
541.435	14644
541.500	13562
541.566	11996
541.632	13131
541.698	12947
541.764	14899
541.830	13293
541.896	12643
541.961	14329
542.027	12183
542.093	15173
542.159	15276
542.224	12324
542.290	15058
542.356	13161
542.421	12946
542.487	13504
542.553	12765
542.618	12521
542.684	13015
542.750	13243
542.815	14301
542.881	13534
542.947	15739
543.012	15677
543.078	12580
543.143	12228
543.209	12904
543.274	12217
543.340	14009
543.405	14057
543.471	13519
543.536	14657
543.602	15028
543.667	13770
543.732	14392
543.798	13402
543.863	14465
543.928	13541
543.994	12987
544.059	15330
544.124	14966
544.190	15319
544.255	14633
544.320	15168
544.386	14443
544.451	16867
544.516	15613
544.581	14924
544.646	16328
544.712	19078
544.777	16436
544.842	16332
544.907	15437
544.972	16373
545.037	16656
545.102	17600
545.168	17540
545.233	18947
545.298	18752
545.363	17250
545.428	19278
545.493	19824
545.558	18682
545.623	19581
545.688	19410
545.753	21083
545.818	20831
545.883	22037
545.947	22238
546.012	23644
546.077	23964
546.142	26650
546.207	25841
546.272	27197
546.337	27846
546.401	30650
546.466	30805
546.531	30982
546.596	36196
546.661	37048
546.725	39727
546.790	40717
546.855	45742
546.919	47885
546.984	54551
547.049	59328
547.113	68061
547.178	75824
547.243	85211
547.307	98652
547.372	108432
547.436	108650
547.501	115030
547.565	125231
547.630	112798
547.695	108528
547.759	109493
547.823	111092
547.888	113003
547.952	116835
548.017	120177
548.081	123462
548.146	119886
548.210	126116
548.274	137473
548.339	133549
548.403	119753
548.468	114041
548.532	112745
548.596	116362
548.660	115734
548.725	128556
548.789	137651
548.853	131864
548.917	127475
548.982	124728
549.046	109777
549.110	101541
549.174	103819
549.238	124505
549.303	134266
549.367	137587
549.431	130812
549.495	121482
549.559	122470
549.623	142216
549.687	156328
549.751	151586
549.815	183334
549.879	183215
549.943	177239
550.007	185850
550.071	181952
550.135	165438
550.199	155842
550.263	153501
550.327	145300
550.391	149064
550.455	166726
550.519	175709
550.582	186686
550.646	211015
550.710	211350
550.774	207667
550.838	211664
550.901	216775
550.965	228628
551.029	235985
551.093	251811
551.156	275927
551.220	304985
551.284	334700
551.347	261144
551.411	227281
551.475	218146
551.538	225150
551.602	211517
551.666	201586
551.729	189909
551.793	185877
551.856	181772
551.920	179268
551.983	179857
552.047	175930
552.110	179892
552.174	179436
552.237	185032
552.301	170372
552.364	165098
552.428	159768
552.491	166193
552.554	168606
552.618	169241
552.681	173732
552.745	168976
552.808	189483
552.871	204727
552.934	182779
552.998	172363
553.061	164491
553.124	160146
553.187	158293
553.251	163641
553.314	163066
553.377	164547
553.440	173627
553.503	177503
553.567	177516
553.630	175991
553.693	177823
553.756	177329
553.819	174035
553.882	169460
553.945	169503
554.008	169516
554.071	171534
554.134	173461
554.197	163639
554.260	160870
554.323	160754
554.386	165173
554.449	171235
554.512	169780
554.575	163347
554.638	160935
554.701	160235
554.764	157489
554.827	154555
554.889	148268
554.952	140936
555.015	138423
555.078	140425
555.141	142350
555.203	137279
555.266	138766
555.329	137049
555.391	130840
555.454	129443
555.517	124893
555.580	119444
555.642	116325
555.705	113182
555.768	114895
555.830	108298
555.893	104205
555.955	100891
556.018	100277
556.080	100284
556.143	102185
556.206	100891
556.268	98230
556.330	97178
556.393	93721
556.455	90822
556.518	89121
556.580	86851
556.643	83530
556.705	82546
556.767	81580
556.830	78722
556.892	77503
556.955	76277
557.017	74089
557.079	74312
557.142	71774
557.204	70542
557.266	71566
557.328	65483
557.391	61604
557.453	60764
557.515	60443
557.577	59773
557.639	61077
557.701	60542
557.764	60169
557.826	62707
557.888	62736
557.950	65455
558.012	70523
558.074	90828
558.136	193858
558.198	392301
558.260	133276
558.322	64746
558.384	65414
558.446	68370
558.508	73628
558.570	80360
558.632	90291
558.694	114882
558.756	192201
558.818	522889
558.880	947131
558.942	383326
559.003	419278
559.065	184102
559.127	81223
559.189	77985
559.251	87049
559.312	125585
559.374	291039
559.436	755003
559.498	334346
559.559	91081
559.621	77601
559.683	90663
559.744	148140
559.806	441525
559.868	541257
559.929	123125
559.991	87406
560.052	148123
560.114	386256
560.176	220047
560.237	235196
560.299	324416
560.360	69676
560.422	35994
560.483	31012
560.545	28104
560.606	28314
560.667	26953
560.729	26009
560.790	23645
560.852	24254
560.913	23535
560.974	23241
561.036	21918
561.097	21992
561.158	21469
561.220	21923
561.281	20336
561.342	21654
561.403	20803
561.465	20012
561.526	20642
561.587	20458
561.648	18461
561.709	18452
561.771	19523
561.832	18441
561.893	17127
561.954	17431
562.015	17208
562.076	16816
562.137	16428
562.198	16470
562.259	16733
562.320	16855
562.381	16811
562.442	16588
562.503	16101
562.564	16698
562.625	15859
562.686	16316
562.747	15161
562.808	15475
562.869	14943
562.930	16066
562.991	15284
563.051	14469
563.112	15138
563.173	15315
563.234	15398
563.294	14517
563.355	14288
563.416	13856
563.477	14822
563.537	13091
563.598	14512
563.659	13804
563.720	13576
563.780	13254
563.841	13539
563.901	13700
563.962	13592
564.023	13858
564.083	14012
564.144	12101
564.204	13598
564.265	12586
564.325	13512
564.386	14367
564.446	13477
564.507	13002
564.567	12390
564.628	11916
564.688	12312
564.749	11237
564.809	12964
564.869	12154
564.930	11831
564.990	12823
565.050	11816
565.111	11485
565.171	11576
565.231	11757
565.292	12895
565.352	11372
565.412	12845
565.472	12366
565.532	11783
565.593	12201
565.653	11916
565.713	11790
565.773	12032
565.833	12267
565.893	12974
565.953	12156
566.013	11163
566.074	11170
566.134	11295
566.194	11265
566.254	12021
566.314	10946
566.374	10265
566.434	11385
566.494	11086
566.554	11018
566.614	11997
566.673	11491
566.733	13441
566.793	11884
566.853	12526
566.913	11875
566.973	12197
567.033	12440
567.092	11172
567.152	11904
567.212	11127
567.272	12853
567.331	12021
567.391	12503
567.451	13038
567.511	13301
567.570	13614
567.630	13166
567.690	12237
567.749	12279
567.809	12203
567.868	12306
567.928	12351
567.988	11374
568.047	11772
568.107	13030
568.166	13464
568.226	12513
568.285	12712
568.345	13199
568.404	12898
568.464	12578
568.523	12032
568.582	12548
568.642	11646
568.701	11431
568.761	11136
568.820	11181
568.879	10874
568.939	11719
568.998	11857
569.057	11806
569.116	11236
569.176	12404
569.235	12231
569.294	11980
569.353	11215
569.413	11538
569.472	10931
569.531	11492
569.590	11431
569.649	11820
569.708	10672
569.767	11967
569.827	10750
569.886	11623
569.945	10987
570.004	11396
570.063	11291
570.122	12382
570.181	12590
570.240	11768
570.299	11639
570.358	12363
570.417	12264
570.475	12894
570.534	12944
570.593	12417
570.652	12522
570.711	12388
570.770	11722
570.829	12104
570.887	13284
570.946	12504
571.005	12749
571.064	12933
571.122	14613
571.181	12832
571.240	12209
571.299	11675
571.357	12363
571.416	12596
571.475	12431
571.533	12290
571.592	13442
571.650	13192
571.709	13701
571.768	15290
571.826	14426
571.885	14080
571.943	11875
572.002	12265
572.060	12564
572.119	11901
572.177	11917
572.236	11791
572.294	12536
572.352	13240
572.411	12936
572.469	12834
572.528	13057
572.586	11767
572.644	11338
572.703	11726
572.761	11431
572.819	10878
572.877	10301
572.936	11280
572.994	10270
573.052	11397
573.110	11627
573.169	12466
573.227	10848
573.285	11700
573.343	11023
573.401	11497
573.459	11983
573.517	11908
573.576	12678
573.634	12056
573.692	11114
573.750	11813
573.808	10972
573.866	10432
573.924	11555
573.982	9948
574.040	11087
574.098	11135
574.155	9984
574.213	10816
574.271	10995
574.329	12533
574.387	10626
574.445	9581
574.503	9888
574.560	9140
574.618	9912
574.676	9772
574.734	9146
574.792	9436
574.849	8566
574.907	7890
574.965	8727
575.022	7856
575.080	8577
575.138	8747
575.195	7517
575.253	8365
575.311	9256
575.368	8345
575.426	8597
575.483	8950
575.541	8969
575.598	8442
575.656	7853
575.713	9513
575.771	9198
575.828	8263
575.886	8602
575.943	8105
576.001	6627
576.058	7833
576.115	8233
576.173	8159
576.230	8636
576.287	9043
576.345	8752
576.402	8601
576.459	8710
576.517	8231
576.574	7834
576.631	8411
576.688	7045
576.746	7805
576.803	7507
576.860	6102
576.917	8022
576.974	7831
577.031	7839
577.089	8087
577.146	6972
577.203	7314
577.260	7093
577.317	6910
577.374	6915
577.431	7079
577.488	6064
577.545	7839
577.602	7430
577.659	6762
577.716	6964
577.773	7694
577.830	7346
577.886	7508
577.943	6903
578.000	8236
578.057	6633
578.114	7706
578.171	7902
578.227	7309
578.284	7078
578.341	7188
578.398	7406
578.454	7638
578.511	6833
578.568	7271
578.625	7562
578.681	7321
578.738	6477
578.794	6805
578.851	7856
578.908	7785
578.964	7094
579.021	7507
579.077	7417
579.134	8309
579.190	7950
579.247	7841
579.303	7606
579.360	6988
579.416	6635
579.473	7363
579.529	8083
579.586	7747
579.642	7478
579.698	6625
579.755	7636
579.811	7534
579.867	7391
579.924	7375
579.980	6619
580.036	7788
580.093	7268
580.149	8315
580.205	7792
580.261	8274
580.317	7235
580.374	7060
580.430	8182
580.486	7753
580.542	7318
580.598	8119
580.619	8070
580.654	7988
580.692	7605
580.710	7422
580.765	7717
580.767	7732
580.823	8412
580.838	8597
580.879	9091
580.911	8752
580.935	8508
580.984	8340
580.991	8331
581.047	9106
581.057	8864
581.103	7750
581.130	8111
581.159	8491
581.203	8361
581.215	8339
581.270	8071
581.276	7998
581.326	7302
581.349	7375
581.382	7513
581.422	7708
581.438	7771
581.494	7460
581.494	7460
581.550	7505
581.567	7570
581.606	7749
581.640	7425
581.661	7257
581.713	8559
581.717	8658
581.773	8076
581.786	8113
581.829	8247
581.859	8392
581.885	8559
581.932	8622
581.940	8619
581.996	8456
582.004	8443
582.052	8423
582.077	8370
582.107	8249
582.150	8214
582.163	8228
582.219	7918
582.223	7908
582.274	7710
582.296	7612
582.330	7481
582.368	7449
582.386	7503
582.441	9053
582.441	9053
582.497	8457
582.514	8128
582.552	7602
582.587	8165
582.608	8407
582.659	7624
582.663	7568
582.719	9043
582.732	8803
582.774	8110
582.805	8226
582.830	8308
582.877	8497
582.885	8535
582.941	8769
582.950	8676
582.996	8065
583.023	8894
583.052	9993
583.095	8810
583.107	8438
583.162	9113
583.168	9130
583.218	9089
583.240	8512
583.273	7791
583.313	8339
583.328	8624
583.384	8971
583.385	8959
583.439	8003
583.458	8140
583.494	8717
583.531	8613
583.549	8575
583.603	9071
583.605	9078
583.660	9396
583.676	9210
583.715	8930
583.748	9084
583.770	9175
583.820	9714
583.825	9751
583.881	9161
583.893	9031
583.936	8732
583.965	8736
583.991	8635
584.038	9120
584.046	9234
584.101	9289
584.110	9305
584.156	9442
584.183	9405
584.211	9344
584.255	9978
584.266	10116
584.321	10010
584.328	9917
584.376	9424
584.400	9697
584.431	10071
584.472	10504
584.486	10680
584.541	10946
584.545	11002
584.596	11401
584.617	11015
584.651	10892
584.689	11733
584.706	11915
584.761	11583
584.762	11585
584.816	12839
584.834	13007
584.871	13254
584.906	13807
584.926	14130
584.978	14248
584.980	14267
585.035	15275
585.051	15945
585.090	17777
585.123	18760
585.145	19304
585.195	20083
585.200	20276
585.254	23973
585.267	24870
585.309	27376
585.340	29660
585.364	31875
585.412	36943
585.419	37792
585.473	46272
585.484	49122
585.528	65696
585.556	81437
585.583	110176
585.628	179660
585.637	202392
585.692	407098
585.700	437006
585.747	524175
585.772	433407
585.801	265981
585.845	100869
585.856	80056
585.910	44509
585.917	41071
585.965	31681
585.989	28939
586.019	27178
586.061	24347
586.074	23580
586.128	22509
586.133	22329
586.183	21377
586.205	21115
586.237	20841
586.277	20851
586.292	20944
586.346	20653
586.349	20629
586.401	20658
586.421	20762
586.455	20771
586.493	20637
586.509	20892
586.564	22117
586.565	22119
586.618	23403
586.637	24432
586.672	27431
586.709	30092
586.727	30933
586.781	32262
586.781	32280
586.835	26077
586.853	24659
586.889	23278
586.925	22078
586.944	21798
586.996	21979
586.998	22017
587.052	22284
587.068	22303
587.106	22624
587.140	22909
587.161	23186
587.212	23259
587.215	23293
587.269	23976
587.284	24160
587.323	24574
587.356	24708
587.377	24918
587.427	25768
587.431	25870
587.485	26322
587.499	26448
587.539	26802
587.571	27092
587.593	27817
587.643	29535
587.648	29678
587.702	30378
587.715	30501
587.755	30496
587.786	30480
587.810	30825
587.858	30878
587.864	30902
587.917	31064
587.930	31089
587.971	31057
588.001	31255
588.025	31634
588.073	31207
588.079	31204
588.133	31154
588.145	31054
588.187	31187
588.217	31527
588.241	31797
588.288	32358
588.295	32569
588.348	33635
588.360	33822
588.402	34230
588.431	34332
588.456	34573
588.503	34903
588.510	35167
588.564	37396
588.575	37769
588.617	39118
588.646	40143
588.671	41250
588.718	43334
588.725	44016
588.778	50080
588.789	51656
588.832	70438
588.861	85279
588.886	116778
588.932	187704
588.939	193465
588.993	230825
589.004	226787
589.047	124282
589.075	69795
589.100	57962
589.147	43618
589.154	43293
589.207	41102
589.218	40595
589.261	40907
589.290	41254
589.314	42441
589.361	45274
589.368	46395
589.421	56136
589.433	58698
589.475	91415
589.504	116903
589.528	147546
589.576	213158
589.582	206974
589.635	109041
589.647	90403
589.689	59118
589.718	41805
589.742	40788
589.790	38281
589.795	38295
589.849	38307
589.861	38268
589.902	38203
589.932	37631
589.955	37363
590.004	36990
590.009	37025
590.062	36689
590.075	36480
590.115	36878
590.146	37179
590.168	37389
590.218	37229
590.222	37348
590.275	38365
590.289	38461
590.328	39190
590.360	39704
590.381	40153
590.431	40859
590.435	40977
590.488	41327
590.503	41358
590.541	41417
590.574	41411
590.594	42242
590.645	43867
590.647	44013
590.700	45236
590.716	45537
590.753	47152
590.787	48290
590.806	48505
590.859	48926
590.859	49060
590.912	50150
590.930	50400
590.965	50808
591.001	51032
591.018	50727
591.071	49158
591.072	49029
591.124	49774
591.143	49828
591.177	49763
591.214	49550
591.230	50300
591.283	52435
591.285	52384
591.336	51755
591.356	51385
591.389	51498
591.427	51318
591.442	51166
591.495	49979
591.498	49784
591.547	51474
591.569	52070
591.600	52502
591.640	52707
591.653	53141
591.706	54448
591.711	54460
591.759	55657
591.782	56025
591.811	57407
591.853	59115
591.864	59252
591.917	59063
591.924	58895
591.969	59379
591.995	59396
592.022	59759
592.066	60030
592.075	60568
592.127	62901
592.137	63173
592.180	63556
592.208	63526
592.233	64575
592.279	66100
592.285	66568
592.338	69085
592.350	69475
592.390	68972
592.421	68271
592.443	68985
592.491	70004
592.495	70308
592.548	71958
592.562	72228
592.600	71757
592.633	70999
592.653	71151
592.704	70687
592.705	71144
592.775	73746
592.846	76824
592.916	77893
592.987	76442
593.058	77669
593.128	79756
593.199	79473
593.270	80861
593.341	82096
593.411	85054
593.482	89349
593.553	92087
593.623	92042
593.694	94984
593.764	95226
593.835	93091
593.906	95062
593.976	98355
594.047	100907
594.117	105122
594.188	107398
594.258	107363
594.329	106948
594.399	109933
594.470	111937
594.540	115539
594.611	116543
594.681	117142
594.751	117061
594.822	123205
594.892	126786
594.963	130716
595.033	132760
595.103	136930
595.174	138896
595.244	143124
595.314	147527
595.384	150306
595.455	154770
595.525	160086
595.595	166258
595.665	163797
595.736	162609
595.806	164803
595.876	167272
595.946	167796
596.016	176182
596.087	182790
596.157	180272
596.227	182396
596.297	193106
596.367	205005
596.437	214812
596.507	214420
596.577	213501
596.647	220595
596.717	231180
596.787	234331
596.857	232467
596.927	238035
596.997	237056
597.067	239692
597.137	244144
597.207	247074
597.277	247943
597.347	234842
597.417	229761
597.487	229236
597.557	236977
597.626	241909
597.696	244608
597.766	240825
597.836	227402
597.906	216746
597.975	211968
598.045	218261
598.115	227496
598.185	243310
598.254	272902
598.324	293663
598.394	296628
598.464	286926
598.533	280315
598.603	262376
598.672	253717
598.742	260391
598.812	261495
598.881	269403
598.951	267759
599.020	274340
599.090	281761
599.159	285515
599.229	274672
599.299	269407
599.368	277917
599.437	270983
599.507	251237
599.576	243884
599.646	238334
599.715	236715
599.785	234463
599.854	226446
599.924	223946
599.993	222253
600.062	228514
600.132	234417
600.201	249825
600.270	288459
600.340	299905
600.409	295201
600.478	292812
600.547	300028
600.617	265754
600.686	214963
600.755	196508
600.824	184279
600.894	179652
600.963	182056
601.032	177986
601.101	171636
601.170	163287
601.239	159311
601.308	159073
601.378	158771
601.447	159871
601.516	159851
601.585	161886
601.654	164620
601.723	165548
601.792	169804
601.861	174132
601.930	179133
601.999	180819
602.068	181498
602.137	184557
602.206	185376
602.275	189750
602.343	190948
602.412	192001
602.481	195351
602.550	197341
602.619	201971
602.688	204579
602.756	204708
602.825	207881
602.894	213635
602.963	217190
603.032	219941
603.100	219263
603.169	221816
603.238	221297
603.307	224299
603.375	226920
603.444	230924
603.513	235097
603.581	238407
603.650	240632
603.719	236838
603.787	246972
603.856	251922
603.924	258463
603.993	269264
604.061	277665
604.130	288895
604.198	294478
604.267	298662
604.335	305694
604.404	308351
604.472	312926
604.541	316097
604.609	318144
604.678	316503
604.746	317428
604.815	331237
604.883	333770
604.951	333294
605.020	342158
605.088	349144
605.156	354742
605.225	361734
605.293	360051
605.361	358113
605.429	363685
605.498	372723
605.566	381781
605.634	398247
605.702	412744
605.771	423850
605.839	426425
605.907	418872
605.975	401212
606.043	395868
606.111	398763
606.180	395524
606.248	392467
606.316	387704
606.384	388681
606.452	391999
606.520	403877
606.588	417595
606.656	419964
606.724	411405
606.792	389263
606.860	354860
606.928	325095
606.996	312735
607.064	307140
607.132	317133
607.200	335985
607.267	345088
607.335	352728
607.403	359483
607.471	346358
607.539	338684
607.607	335125
607.674	297375
607.742	297549
607.810	297078
607.878	296843
607.946	304347
608.013	319397
608.081	322507
608.149	326667
608.216	339325
608.284	346866
608.352	348321
608.419	343734
608.487	336521
608.555	333376
608.622	343475
608.690	364842
608.757	396819
608.825	403437
608.893	393839
608.960	370230
609.028	356575
609.095	360388
609.163	354790
609.230	316507
609.298	296386
609.365	314040
609.432	338107
609.500	365019
609.567	415045
609.635	466164
609.702	482365
609.769	457241
609.837	354349
609.904	314115
609.971	318180
610.039	334503
610.106	379818
610.173	554445
610.241	916568
610.308	579638
610.375	366352
610.442	336693
610.509	325683
610.577	330409
610.644	335559
610.711	343776
610.778	353701
610.845	368338
610.912	390779
610.980	402557
611.047	400502
611.114	395101
611.181	384757
611.248	384642
611.315	404622
611.382	413966
611.449	430616
611.516	430896
611.583	426158
611.650	428189
611.717	432660
611.784	437264
611.851	445488
611.918	454973
611.984	489984
612.051	572473
612.118	810843
612.185	1282791
612.252	919327
612.319	560165
612.386	525576
612.452	494138
612.519	475791
612.586	470888
612.653	480213
612.719	496756
612.786	478372
612.853	450635
612.919	445107
612.986	448490
613.053	427817
613.120	403951
613.186	392391
613.253	398310
613.319	394164
613.386	399059
613.453	403379
613.519	404075
613.586	398847
613.652	401665
613.719	395505
613.785	405244
613.852	408518
613.918	403075
613.985	413643
614.051	423946
614.118	416106
614.184	402719
614.250	405559
614.317	413798
614.383	409700
614.449	418594
614.516	414319
614.582	414432
614.648	406762
614.715	407343
614.781	395500
614.847	399442
614.914	396252
614.980	386005
615.046	386701
615.112	396692
615.179	400981
615.245	402987
615.311	398236
615.377	403350
615.443	405482
615.509	411318
615.575	419802
615.642	415620
615.708	425346
615.774	436416
615.840	448366
615.906	453271
615.972	492378
616.038	597724
616.104	902471
616.170	1374756
616.236	1132849
616.302	653632
616.368	582410
616.434	480323
616.500	458086
616.565	491978
616.631	558205
616.697	493132
616.763	502527
616.829	642319
616.895	921506
616.961	822584
617.026	495829
617.092	430474
617.158	421203
617.224	412548
617.289	385231
617.355	372833
617.421	370721
617.487	371704
617.552	355699
617.618	356330
617.684	354728
617.749	358653
617.815	342921
617.880	338360
617.946	337997
618.012	346468
618.077	351045
618.143	335372
618.208	340094
618.274	364040
618.339	359255
618.405	303345
618.470	307681
618.536	306482
618.601	301296
618.667	280353
618.732	270014
618.798	266700
618.863	265576
618.928	264391
618.994	266865
619.059	265383
619.124	267199
619.190	264834
619.255	263030
619.320	263918
619.386	267235
619.451	262153
619.516	254556
619.581	260107
619.647	268901
619.712	268809
619.777	256212
619.842	259195
619.907	263638
619.972	270199
620.038	266434
620.103	258712
620.168	260943
620.233	265386
620.298	264714
620.363	270417
620.428	276262
620.493	282253
620.558	286407
620.623	287953
620.688	286514
620.753	284517
620.818	290776
620.883	292057
620.948	289771
621.013	289298
621.078	280537
621.143	285665
621.207	288390
621.272	282054
621.337	274702
621.402	275213
621.467	271892
621.532	273224
621.596	273589
621.661	265712
621.726	265729
621.791	266818
621.855	267559
621.920	264223
621.985	269775
622.049	272745
622.114	273114
622.179	275700
622.243	282224
622.308	291537
622.373	301185
622.437	292256
622.502	279297
622.566	275778
622.631	275053
622.695	283815
622.760	279342
622.824	280195
622.889	280335
622.953	281224
623.018	298285
623.082	297282
623.147	297130
623.211	286463
623.276	288994
623.340	279944
623.404	272714
623.469	274030
623.533	277424
623.597	270037
623.662	269590
623.726	250701
623.790	237824
623.854	233574
623.919	236241
623.983	241121
624.047	243646
624.111	244644
624.176	249383
624.240	248798
624.304	257313
624.368	248970
624.432	248429
624.496	254437
624.560	268551
624.625	265844
624.689	268615
624.753	278208
624.817	265676
624.881	258622
624.945	236123
625.009	231007
625.073	235823
625.137	242651
625.201	251584
625.265	249586
625.329	240759
625.393	244411
625.456	247607
625.520	254295
625.584	258371
625.648	263428
625.712	266698
625.776	265825
625.839	249596
625.903	214610
625.967	202844
626.031	217455
626.095	253819
626.158	230163
626.222	186897
626.286	177111
626.349	171112
626.413	158527
626.477	159142
626.540	162300
626.604	160872
626.668	157531
626.731	154457
626.795	153263
626.858	155768
626.922	152338
626.986	152205
627.049	153491
627.113	158092
627.176	151610
627.240	147807
627.303	149318
627.366	146528
627.430	148761
627.493	145506
627.557	143147
627.620	147651
627.684	152838
627.747	152372
627.810	140248
627.874	126066
627.937	120902
628.000	127490
628.064	121545
628.127	110264
628.190	109197
628.253	106160
628.317	101647
628.380	97439
628.443	96041
628.506	94243
628.569	91283
628.632	87511
628.696	87146
628.759	86073
628.822	83436
628.885	80975
628.948	79441
629.011	78205
629.074	75922
629.137	74338
629.200	71423
629.263	72527
629.326	70248
629.389	70949
629.452	70839
629.515	68599
629.578	67761
629.641	69180
629.704	68021
629.767	66769
629.830	65173
629.892	64399
629.955	63504
630.018	67885
630.081	62881
630.144	63881
630.207	61593
630.269	64410
630.332	60142
630.395	61702
630.458	58967
630.520	57480
630.583	59276
630.646	59810
630.708	59560
630.771	61205
630.834	65178
630.896	61718
630.959	61014
631.021	59162
631.084	59860
631.146	60165
631.209	61435
631.272	58639
631.334	59821
631.397	60229
631.459	59776
631.522	60796
631.584	61764
631.646	65174
631.709	64453
631.771	65266
631.834	62215
631.896	61433
631.958	57338
632.021	59748
632.083	56764
632.145	57290
632.208	56092
632.270	56933
632.332	56267
632.395	55067
632.457	57322
632.519	54706
632.581	56567
632.643	54494
632.706	55110
632.768	53741
632.830	56359
632.892	57362
632.954	58049
633.016	58269
633.078	55547
633.141	57599
633.203	56241
633.265	55535
633.327	55828
633.389	56078
633.451	55313
633.513	54095
633.575	58382
633.637	55024
633.698	56517
633.760	59946
633.822	61673
633.884	61032
633.946	61506
634.008	61003
634.070	62258
634.132	64987
634.193	67205
634.255	72171
634.317	72162
634.379	71019
634.441	64869
634.502	60717
634.564	58496
634.626	54895
634.687	53777
634.749	52128
634.811	53744
634.873	52230
634.934	52754
634.996	54994
635.057	52144
635.119	53231
635.181	53619
635.242	54694
635.304	53062
635.365	56027
635.427	52596
635.488	53382
635.550	51972
635.611	52358
635.673	50227
635.734	54849
635.796	55706
635.857	59310
635.918	61013
635.980	66055
636.041	66830
636.102	71179
636.164	70739
636.225	68918
636.286	58902
636.348	57135
636.409	53400
636.470	52562
636.531	52533
636.593	50601
636.654	50155
636.715	49869
636.776	48376
636.838	47017
636.899	47465
636.960	46789
637.021	45709
637.082	45184
637.143	45048
637.204	43820
637.265	45350
637.326	46032
637.387	47042
637.448	45123
637.509	45476
637.570	46901
637.631	46091
637.692	43227
637.753	42994
637.814	43519
637.875	42116
637.936	43564
637.997	43079
638.058	42487
638.119	43539
638.179	43349
638.240	43376
638.301	43794
638.362	42380
638.423	41072
638.483	40651
638.544	38994
638.605	40848
638.666	39769
638.726	40644
638.787	40892
638.848	40874
638.908	39866
638.969	39108
639.030	38718
639.090	37085
639.151	39353
639.211	39401
639.272	39795
639.332	39234
639.393	40486
639.453	40183
639.514	41465
639.574	38535
639.635	36960
639.695	38213
639.756	35411
639.816	35675
639.877	34857
639.937	36780
639.997	36675
640.058	34632
640.118	35695
640.178	36801
640.239	36133
640.299	35682
640.359	36219
640.420	37791
640.480	40884
640.540	43305
640.600	42387
640.661	38859
640.721	38444
640.781	38608
640.841	34530
640.901	35651
640.961	36962
641.021	37788
641.082	37039
641.142	35721
641.202	36891
641.262	33801
641.322	36473
641.382	33987
641.442	35152
641.502	34314
641.562	36322
641.622	35623
641.682	37945
641.742	39292
641.802	38103
641.861	34460
641.921	33205
641.981	33237
642.041	32434
642.101	31403
642.161	29918
642.221	31267
642.280	31549
642.340	32274
642.400	32487
642.460	32767
642.519	33024
642.579	33070
642.639	35373
642.698	30928
642.758	36006
642.818	33023
642.877	32822
642.937	33557
642.997	33552
643.056	33014
643.116	32607
643.175	34193
643.235	33690
643.294	34060
643.354	35731
643.414	36908
643.473	40266
643.532	43571
643.592	52103
643.651	71424
643.711	112103
643.770	196880
643.830	436643
643.889	679385
643.948	204445
644.008	68426
644.067	49843
644.126	39616
644.186	37555
644.245	34619
644.304	32216
644.363	34024
644.423	29183
644.482	31779
644.541	33569
644.600	32715
644.659	39617
644.719	43528
644.778	60099
644.837	92468
644.896	179494
644.955	336934
645.014	104965
645.073	43133
645.132	36000
645.191	34516
645.250	33430
645.309	35475
645.368	37629
645.427	46101
645.486	74728
645.545	108304
645.604	39253
645.663	32217
645.722	31165
645.781	33567
645.840	34572
645.898	38628
645.957	48149
646.016	65039
646.075	104079
646.134	187789
646.192	455239
646.251	512119
646.310	114914
646.369	53075
646.427	47303
646.486	36829
646.545	33180
646.603	30929
646.662	29374
646.721	28303
646.779	28294
646.838	27991
646.896	33663
646.955	40105
647.014	59800
647.072	107840
647.131	252938
647.189	102517
647.248	31597
647.306	27883
647.365	27096
647.423	22620
647.481	26259
647.540	22920
647.598	23480
647.657	24792
647.715	24047
647.773	22871
647.832	23284
647.890	20940
647.948	21422
648.007	20985
648.065	19462
648.123	20065
648.181	21133
648.240	20235
648.298	19176
648.356	19317
648.414	20348
648.472	18529
648.531	19718
648.589	18187
648.647	17938
648.705	18303
648.763	19489
648.821	18726
648.879	18683
648.937	20401
648.995	22534
649.053	26623
649.111	34029
649.169	51697
649.227	87782
649.285	177367
649.343	420725
649.401	169943
649.459	37615
649.516	26325
649.574	21462
649.632	23068
649.690	24426
649.748	29597
649.806	41394
649.863	74227
649.921	192480
649.979	99959
650.037	22957
650.094	16750
650.152	16691
650.210	15010
650.268	15475
650.325	14310
650.383	13899
650.440	13051
650.498	13886
650.556	12684
650.613	13629
650.671	14159
650.728	13593
650.786	14654
650.843	19488
650.901	13307
650.958	12714
651.016	12113
651.073	12613
651.131	12203
651.188	11224
651.246	11325
651.303	11463
651.360	11902
651.418	12049
651.475	11799
651.532	10812
651.590	10261
651.647	10664
651.704	11066
651.762	11777
651.819	11145
651.876	10381
651.933	10495
651.990	9742
652.048	8717
652.105	9670
652.162	10320
652.219	9649
652.276	10405
652.333	10043
652.390	9323
652.448	10016
652.505	9968
652.562	9583
652.619	8870
652.676	9551
652.733	9464
652.790	9673
652.847	8418
652.904	9014
652.961	8160
653.017	8579
653.074	9257
653.131	8598
653.188	7744
653.245	8560
653.302	9656
653.359	9118
653.415	8778
653.472	8531
653.529	9039
653.586	7850
653.642	8518
653.699	9292
653.756	7905
653.813	8609
653.869	9370
653.926	8358
653.983	8309
654.039	9232
654.096	8253
654.152	8637
654.209	7775
654.266	8616
654.322	7657
654.379	8981
654.435	8409
654.492	8330
654.548	7850
654.605	8017
654.661	8618
654.717	8436
654.774	7369
654.830	7596
654.887	7855
654.943	8368
655.000	8505
655.056	8118
655.112	8474
655.168	7380
655.225	7564
655.281	8279
655.337	7865
655.394	8441
655.450	7711
655.506	7790
655.562	7160
655.618	7973
655.675	6931
655.731	8044
655.787	6975
655.843	7703
655.899	7486
655.955	8081
656.011	7948
656.067	7624
656.123	8411
656.179	7854
656.235	8778
656.291	7056
656.347	8870
656.403	7182
656.459	7728
656.515	7444
656.571	8009
656.627	7676
656.683	7240
656.739	8294
656.795	7537
656.850	7239
656.906	7701
656.962	8911
657.018	7630
657.074	9641
657.129	13844
657.185	21913
657.241	43737
657.297	20439
657.352	8820
657.408	7663
657.464	7794
657.519	6526
657.575	6130
657.630	7423
657.686	6002
657.742	6777
657.797	6399
657.853	6617
657.908	7916
657.964	6236
658.019	6841
658.075	7006
658.130	6663
658.186	5405
658.241	7473
658.297	4865
658.352	5447
658.407	6128
658.463	6148
658.518	6098
658.573	6147
658.629	5507
658.684	6201
658.739	6173
658.795	4327
658.850	5984
658.905	5420
658.960	6370
659.016	5988
659.071	5952
659.126	6629
659.181	5706
659.236	6346
659.291	6621
659.346	5847
659.401	5733
659.457	6223
659.512	4829
659.567	6574
659.622	6056
659.677	6013
659.732	5100
659.787	5411
659.842	5266
659.897	4711
659.952	6473
660.007	5016
660.061	5998
660.116	4117
660.171	4764
660.226	5450
660.281	6803
660.336	4859
660.391	6657
660.445	5552
660.500	5433
660.555	5623
660.610	5490
660.664	5742
660.719	5861
660.774	5979
660.828	5976
660.883	5214
660.938	5543
660.992	4231
661.047	6274
661.101	5053
661.156	5627
661.211	4600
661.265	5416
661.320	4818
661.374	5387
661.429	5136
661.483	5879
661.538	4263
661.592	5130
661.647	5375
661.701	5569
661.755	5320
661.810	5377
661.864	4815
661.919	4963
661.973	5159
662.027	5539
662.081	4733
662.136	4591
662.190	5127
662.244	5577
662.299	4268
662.353	5339
662.407	5140
662.461	4538
662.515	5397
662.569	4292
662.624	4712
662.678	5074
662.732	4702
662.786	5145
662.840	4938
662.894	5493
662.948	4994
663.002	4459
663.056	4380
663.110	4308
663.164	4764
663.218	5111
663.272	5452
663.326	5089
663.380	5306
663.434	5161
663.488	4837
663.542	4625
663.595	5327
663.649	4819
663.703	5236
663.757	5397
663.811	4192
663.864	4086
663.918	4860
663.972	3572
664.026	4258
664.079	4932
664.133	5675
664.187	5662
664.240	5065
664.294	5083
664.348	4695
664.401	5002
664.455	4524
664.508	4748
664.562	4457
664.615	4828
664.669	4196
664.722	4752
664.776	4644
664.829	4747
664.883	4901
664.936	4131
664.990	4413
665.043	4983
665.097	4245
665.150	5939
665.203	3742
665.257	5325
665.310	4707
665.363	4879
665.417	5153
665.470	4667
665.523	4965
665.576	6008
665.630	5469
665.683	5034
665.736	5361
665.789	5507
665.842	3690
665.895	4726
665.949	5404
666.002	5068
666.055	4853
666.108	5802
666.161	5416
666.214	5627
666.267	5932
666.320	6057
666.373	5581
666.426	5429
666.479	5612
666.532	5712
666.585	6166
666.638	4941
666.691	4928
666.744	6222
666.796	5618
666.849	5488
666.902	5951
666.955	5669
667.008	5094
667.060	5540
667.113	5339
667.166	6385
667.219	5425
667.271	6031
667.324	6390
667.377	6309
667.430	5830
667.482	5364
667.535	5588
667.587	5302
667.640	5581
667.693	5904
667.745	5857
667.798	5952
667.850	5058
667.903	6733
667.955	5901
668.008	5161
668.060	5725
668.113	5888
668.165	5982
668.218	5764
668.270	6364
668.322	5084
668.375	3867
668.427	5865
668.479	5051
668.532	6367
668.584	5751
668.636	4981
668.689	5697
668.741	4199
668.793	5141
668.845	5743
668.898	4933
668.950	6102
669.002	5896
669.054	4769
669.106	5141
669.158	5848
669.211	4770
669.263	4884
669.315	5311
669.367	4888
669.419	4482
669.471	5145
669.523	4879
669.575	5214
669.627	4371
669.679	5087
669.731	5812
669.783	5493
669.835	4752
669.886	4277
669.938	4688
669.990	5009
670.042	3858
670.094	4828
670.146	4303
670.197	5333
670.249	4953
670.301	4615
670.353	5541
670.404	5258
670.456	4191
670.508	5835
670.560	7264
670.611	8205
670.663	10635
670.715	25419
670.766	29064
670.818	8855
670.869	4900
670.921	6289
670.972	6637
671.024	5138
671.075	4993
671.127	5210
671.178	5033
671.230	4905
671.281	5840
671.333	5910
671.384	6459
671.436	9201
671.487	13632
671.538	17790
671.590	28078
671.641	48313
671.692	90648
671.744	154579
671.795	86436
671.846	28834
671.897	15033
671.949	10729
672.000	8533
672.051	6826
672.102	5496
672.153	5129
672.204	4624
672.256	5372
672.307	5179
672.358	4293
672.409	4198
672.460	4158
672.511	3480
672.562	3998
672.613	3930
672.664	4736
672.715	4339
672.766	2990
672.817	2964
672.868	3812
672.919	2857
672.970	3415
673.021	3560
673.071	2840
673.122	2601
673.173	3214
673.224	3273
673.275	2955
673.326	3754
673.376	2701
673.427	2908
673.478	3766
673.528	3720
673.579	3648
673.630	3125
673.680	4369
673.731	3012
673.782	2911
673.832	3579
673.883	3411
673.934	3186
673.984	3738
674.035	3027
674.085	3630
674.136	3176
674.186	3400
674.237	3360
674.287	3383
674.338	3857
674.388	3159
674.438	3138
674.489	4553
674.539	3513
674.589	4317
674.640	3319
674.690	4327
674.740	2875
674.791	3208
674.841	2584
674.891	2941
674.942	2890
674.992	2134
675.042	2711
675.092	2166
675.142	1946
675.193	2797
675.243	2740
675.293	3252
675.343	2708
675.393	2674
675.443	3481
675.493	3432
675.543	2205
675.593	3749
675.643	3054
675.693	3722
675.743	2454
675.793	3253
675.843	1914
675.893	3158
675.943	2407
675.993	3237
676.043	2984
676.093	2775
676.142	2500
676.192	3135
676.242	2578
676.292	1969
676.341	2106
676.391	2635
676.441	2289
676.491	2433
676.540	1703
676.590	2871
676.640	3071
676.689	2071
676.739	2044
676.789	2250
676.838	2173
676.888	2366
676.937	914
676.987	2501
677.037	2112
677.086	2444
677.136	1156
677.185	1787
677.235	1969
677.284	2968
677.333	1943
677.383	1432
677.432	1525
677.482	2460
677.531	2074
677.580	2146
677.630	1664
677.679	1875
677.728	2054
677.778	2175
677.827	1881
677.876	2384
677.925	2442
677.975	2775
678.024	2244
678.073	2101
678.122	2188
678.171	2367
678.220	2497
678.269	3418
678.319	2557
678.368	3321
678.417	2796
678.466	1998
678.515	1777
678.564	1784
678.613	2224
678.662	1528
678.711	1984
678.760	1328
678.809	1522
678.857	1958
678.906	1724
678.955	2121
679.004	1909
679.053	1227
679.102	990
679.151	1984
679.199	1225
679.248	2912
679.297	936
679.346	911
679.394	1232
679.443	1079
679.492	2296
679.540	1912
679.589	1344
679.638	1791
679.686	2666
679.735	2090
679.784	2262
679.832	2705
679.881	1342
679.929	2057
679.978	1942
680.026	2166
680.075	1239
680.123	908
680.172	1283
680.220	1780
680.268	1568
680.317	701
680.365	776
680.414	1773
680.462	1620
680.510	2174
680.559	1535
680.607	995
680.655	1497
680.703	2550
680.752	730
680.800	2107
680.848	1643
680.896	1452
680.945	1928
680.993	1272
681.041	1503
681.089	1767
681.137	1564
681.185	1511
681.233	1189
681.258	1796
681.281	2342
681.329	1181
681.377	703
681.380	789
681.425	1850
681.473	1289
681.502	1487
681.521	1566
681.569	2019
681.617	2154
681.624	2142
681.665	1851
681.713	1962
681.745	2511
681.761	2736
681.809	2312
681.857	3483
681.867	3220
681.904	2160
681.952	3082
681.989	2710
682.000	2563
682.048	1956
682.096	2182
682.111	2121
682.143	1902
682.191	2499
682.233	3010
682.239	3059
682.286	3162
682.334	2464
682.354	2669
682.382	2848
682.430	3589
682.476	3065
682.477	3031
682.525	2679
682.572	2866
682.598	2766
682.620	2631
682.667	2638
682.715	3456
682.720	3477
682.763	3362
682.810	3643
682.841	3341
682.857	3152
682.905	2915
682.952	4148
682.963	4034
683.000	3512
683.047	2920
683.085	4012
683.095	4295
683.142	3418
683.190	4472
683.206	4264
683.237	3791
683.284	3972
683.328	3042
683.332	2935
683.379	3833
683.426	3465
683.449	3395
683.473	3344
683.521	3738
683.568	4353
683.571	4360
683.615	4008
683.662	4835
683.693	3786
683.709	3189
683.757	3958
683.804	3917
683.814	3994
683.851	4260
683.898	4310
683.936	4514
683.945	4527
683.992	4410
684.039	4044
684.057	4196
684.086	4424
684.133	4746
684.179	4136
684.180	4100
684.227	5112
684.274	4737
684.300	4966
684.321	5081
684.368	4710
684.415	5290
684.422	5187
684.462	4510
684.509	5245
684.543	5522
684.556	5592
684.603	6145
684.649	4783
684.665	5004
684.696	5464
684.743	5958
684.786	5153
684.790	5055
684.837	5657
684.883	5330
684.908	5296
684.930	5329
684.977	5934
685.023	5496
685.029	5620
685.070	6336
685.117	5341
685.150	5440
685.164	5488
685.210	5939
685.257	6825
685.272	6577
685.303	6068
685.350	6574
685.393	5951
685.396	5865
685.443	5935
685.490	6045
685.514	6106
685.536	6297
685.583	6022
685.629	5759
685.636	5822
685.675	5935
685.722	6310
685.757	5789
685.768	5633
685.815	6293
685.861	5756
685.878	6161
685.908	7006
685.954	6030
686.000	6797
686.000	6797
686.047	6704
686.093	7194
686.121	6986
686.139	6850
686.185	7142
686.232	6822
686.242	6828
686.278	6895
686.324	6755
686.363	7290
686.370	7380
686.416	7063
686.463	7619
686.484	7520
686.509	7304
686.555	7378
686.601	7362
686.606	7345
686.647	7283
686.693	7058
686.727	7452
686.739	7588
686.785	7341
686.831	7443
686.848	7420
686.877	7345
686.923	7753
686.969	7409
686.969	7407
687.015	7364
687.061	8188
687.090	8854
687.107	9099
687.153	7899
687.199	8375
687.211	8197
687.245	7761
687.291	8073
687.332	7816
687.336	7815
687.382	8247
687.428	8282
687.453	8386
687.474	8366
687.520	8211
687.565	8209
687.574	8228
687.611	8521
687.657	9299
687.695	9100
687.702	9040
687.748	9597
687.794	8925
687.816	9260
687.839	9525
687.885	9266
687.931	9272
687.937	9217
687.976	9072
688.022	9496
688.058	9094
688.067	8996
688.113	8764
688.158	8811
688.179	9080
688.204	9442
688.249	9485
688.295	9177
688.300	9234
688.340	9556
688.386	9630
688.421	9400
688.431	9383
688.477	9452
688.522	9665
688.542	9930
688.567	10384
688.613	10453
688.658	10419
688.663	10448
688.703	10367
688.749	10602
688.784	10466
688.794	10485
688.839	10356
688.884	10413
688.905	10563
688.930	10610
688.975	9993
689.020	9824
689.026	9790
689.065	9907
689.110	10502
689.146	10083
689.155	9976
689.201	10496
689.246	10394
689.267	10577
689.291	10741
689.336	10701
689.381	10267
689.388	10219
689.426	10204
689.471	10137
689.509	10719
689.516	10811
689.561	10594
689.606	10088
689.630	10112
689.651	10205
689.696	10484
689.741	10754
689.750	10684
689.785	10478
689.830	10875
689.871	10663
689.875	10650
689.920	10549
689.965	10471
689.992	10622
690.010	10786
690.054	10487
690.099	10417
690.112	10477
690.144	10616
690.189	10405
690.233	10392
690.233	10407
690.278	10563
690.323	10792
690.354	10796
690.367	10783
690.412	10587
690.457	10584
690.474	10541
690.501	10459
690.546	10691
690.590	10413
690.595	10362
690.635	10216
690.680	10302
690.716	10313
690.724	10355
690.769	10619
690.813	10972
690.836	10762
690.857	10795
690.902	11385
690.946	11703
690.957	11855
690.991	12199
691.035	12638
691.077	12938
691.080	12950
691.124	12302
691.168	12178
691.198	11846
691.213	11781
691.257	12128
691.301	11685
691.318	11645
691.346	11590
691.390	11273
691.434	11315
691.439	11256
691.478	11251
691.522	12143
691.559	12096
691.567	12092
691.611	12385
691.655	11969
691.680	12210
691.699	12358
691.743	12028
691.787	12273
691.800	12111
691.831	11930
691.875	11989
691.919	11986
691.921	11970
691.964	12035
692.008	12215
692.041	11982
692.052	11990
692.096	11959
692.139	12409
692.162	12287
692.183	12108
692.227	11893
692.271	11854
692.282	11823
692.315	12054
692.359	12500
692.402	12461
692.403	12483
692.447	12407
692.490	12141
692.523	11978
692.534	11964
692.578	12011
692.622	11568
692.643	11568
692.666	11811
692.709	11997
692.753	12441
692.763	12423
692.797	12271
692.840	12296
692.884	12146
692.884	12174
692.928	12781
692.971	13074
693.004	13196
693.015	13168
693.059	12881
693.102	13071
693.124	12925
693.146	12905
693.189	12762
693.233	13010
693.245	13025
693.276	13121
693.320	12944
693.363	12663
693.365	12637
693.407	12873
693.450	13100
693.485	13088
693.493	13088
693.537	13222
693.580	12765
693.605	12856
693.624	13091
693.667	13356
693.710	13789
693.725	13744
693.753	13872
693.797	14180
693.840	14730
693.845	14753
693.883	14443
693.926	13950
693.966	13469
693.970	13471
694.013	13273
694.056	13346
694.086	12946
694.099	12902
694.142	13261
694.185	13238
694.206	13205
694.229	13340
694.272	13606
694.315	13928
694.326	13928
694.358	13904
694.401	14061
694.444	14135
694.446	14101
694.487	13874
694.530	13688
694.566	13425
694.573	13461
694.616	13590
694.659	13936
694.686	13877
694.702	13940
694.745	14322
694.787	14269
694.806	14397
694.830	14372
694.873	13983
694.916	13945
694.926	13817
694.959	14192
695.002	14926
695.044	15479
695.046	15467
695.087	15930
695.130	16288
695.166	16661
695.172	16667
695.215	16301
695.258	16289
695.286	16016
695.301	16274
695.343	16905
695.386	17812
695.406	18068
695.428	18529
695.471	19539
695.514	20638
695.526	20829
695.556	21975
695.599	23705
695.641	25423
695.646	25523
695.684	24031
695.726	22356
695.766	20958
695.769	20984
695.811	20581
695.854	19995
695.886	19734
695.896	19946
695.938	20471
695.981	20824
696.005	21124
696.023	21750
696.065	23033
696.108	24373
696.125	24849
696.150	25183
696.192	25616
696.235	26026
696.245	26110
696.277	26468
696.319	26665
696.361	26950
696.365	26902
696.404	26312
696.446	25736
696.485	24980
696.488	25043
696.530	25075
696.572	25246
696.604	25219
696.614	25218
696.656	24996
696.698	24809
696.724	24567
696.740	24815
696.783	25347
696.825	26083
696.844	26216
696.867	26096
696.909	25911
696.951	25610
696.964	25523
696.992	26239
697.034	26966
697.076	27751
697.083	27825
697.118	28397
697.160	28921
697.202	29474
697.203	29414
697.244	28972
697.286	28607
697.323	28009
697.327	28068
697.369	27990
697.411	28040
697.442	27960
697.453	28096
697.494	28343
697.536	28639
697.562	28737
697.578	28912
697.620	29138
697.661	29413
697.682	29477
697.703	29975
697.744	30768
697.786	31687
697.801	31876
697.828	31717
697.869	31456
697.911	31081
697.921	30939
697.952	30778
697.994	30319
698.035	30023
698.040	29897
698.077	30499
698.118	31205
698.160	31830
698.160	31752
698.201	32458
698.243	33013
698.279	33563
698.284	33741
698.325	34463
698.367	35291
698.399	35810
698.408	35998
698.449	36427
698.491	36892
698.518	37082
698.532	37068
698.573	36754
698.614	36437
698.638	36172
698.656	36353
698.697	36561
698.738	36729
698.757	36726
698.779	36765
698.820	36656
698.862	36531
698.877	36399
698.903	36601
698.944	36756
698.985	36918
698.996	36869
699.026	36841
699.067	36668
699.116	36371
699.235	37371
699.354	36653
699.474	34375
699.593	33398
699.713	34809
699.832	34637
699.951	35700
700.070	33756
700.190	33189
700.309	31879
700.428	30858
700.547	30068
700.667	31185
700.786	31251
700.905	29255
701.024	30031
701.143	28981
701.262	31894
701.381	31035
701.500	31953
701.619	30780
701.738	30500
701.857	30186
701.976	28231
702.095	30115
702.214	31137
702.333	29217
702.452	30328
702.571	31553
702.690	30361
702.809	29501
702.928	28473
703.047	27573
703.165	28109
703.284	28313
703.403	28041
703.522	25972
703.640	26288
703.759	26261
703.878	25419
703.997	25013
704.115	25918
704.234	25477
704.353	26805
704.471	23640
704.590	23993
704.708	23912
704.827	24015
704.946	23589
705.064	23483
705.183	23477
705.301	23392
705.420	22766
705.538	22662
705.656	21415
705.775	21156
705.893	22297
706.012	20994
706.130	21718
706.249	22829
706.367	20613
706.485	21537
706.604	19760
706.722	20093
706.840	21913
706.958	21820
707.077	19683
707.195	19916
707.313	20702
707.431	19379
707.549	18805
707.668	17837
707.786	21289
707.904	18981
708.022	20128
708.140	18389
708.258	18716
708.376	19812
708.494	17558
708.612	19697
708.730	18939
708.848	18084
708.966	18844
709.084	18427
709.202	18438
709.320	17888
709.438	17755
709.556	17156
709.674	16351
709.791	17237
709.909	16201
710.027	16894
710.145	15906
710.263	15939
710.380	16867
710.498	15762
710.616	15334
710.733	14950
710.851	16054
710.969	15992
711.086	14850
711.204	16193
711.322	15786
711.439	14806
711.557	13760
711.674	14216
711.792	14589
711.909	14644
712.027	14083
712.144	14196
712.262	14062
712.379	14948
712.497	14250
712.614	13579
712.732	15196
712.849	13390
712.966	14838
713.084	15464
713.201	12166
713.318	15385
713.436	15675
713.553	12706
713.670	15033
713.787	14829
713.905	13519
714.022	15540
714.139	15308
714.256	17084
714.373	21186
714.490	38266
714.608	95272
714.725	342853
714.842	239887
714.959	31731
715.076	17687
715.193	15573
715.310	15357
715.427	12372
715.544	13200
715.661	13208
715.778	12653
715.895	13113
716.011	12314
716.128	12166
716.245	12355
716.362	12140
716.479	10900
716.596	11235
716.713	12040
716.829	12377
716.946	11055
717.063	10460
717.180	11223
717.296	10937
717.413	11044
717.530	10359
717.646	9829
717.763	10240
717.880	11371
717.996	10447
718.113	11078
718.229	10467
718.346	9788
718.462	9343
718.579	10751
718.695	9687
718.812	10563
718.928	9052
719.045	9011
719.161	9334
719.277	10827
719.394	10603
719.510	10635
719.626	10908
719.743	13131
719.859	17748
719.975	36529
720.092	136016
720.208	214485
720.324	27332
720.440	11761
720.557	10370
720.673	10425
720.789	9402
720.905	10588
721.021	9849
721.137	7457
721.253	8307
721.369	8943
721.486	8459
721.602	8401
721.718	9293
721.834	8584
721.950	8274
722.066	7636
722.181	8369
722.297	8409
722.413	7971
722.529	8102
722.645	7849
722.761	7842
722.877	7029
722.993	8618
723.108	10281
723.224	8520
723.340	8383
723.456	7925
723.571	6404
723.687	7056
723.803	8197
723.918	8279
724.034	7258
724.150	7865
724.265	7670
724.381	7428
724.497	7125
724.612	8014
724.728	6543
724.843	6340
724.959	7135
725.074	7240
725.190	7040
725.305	7150
725.421	7393
725.536	7534
725.651	7805
725.767	7672
725.882	7347
725.997	7199
726.113	7814
726.228	6482
726.343	6366
726.459	7180
726.574	6726
726.689	7125
726.804	7527
726.920	7079
727.035	6842
727.150	8073
727.265	5511
727.380	6754
727.495	7103
727.610	7050
727.725	6556
727.841	6552
727.956	6747
728.071	6487
728.186	6123
728.301	6108
728.416	7539
728.531	6865
728.645	5902
728.760	6958
728.875	6707
728.990	6551
729.105	6202
729.220	5910
729.335	6653
729.449	6014
729.564	5847
729.679	5803
729.794	7524
729.908	6503
730.023	7126
730.138	7062
730.253	6946
730.367	7136
730.482	7017
730.596	6104
730.711	8125
730.826	11238
730.940	9754
731.055	9035
731.169	8506
731.284	9498
731.398	8752
731.513	9486
731.627	9502
731.742	13886
731.856	17256
731.970	14995
732.085	17343
732.199	23001
732.313	37070
732.428	92647
732.542	245723
732.656	113859
732.771	30915
732.885	22033
732.999	22483
733.113	24793
733.227	23899
733.342	21988
733.456	22850
733.570	21605
733.684	21752
733.798	20121
733.912	20555
734.026	20785
734.140	20672
734.254	18847
734.368	19480
734.482	19656
734.596	18671
734.710	18304
734.824	18761
734.938	18107
735.052	18800
735.166	17950
735.280	18690
735.393	17293
735.507	18214
735.621	17995
735.735	18324
735.849	17894
735.962	15869
736.076	18231
736.190	17244
736.303	17394
736.417	17730
736.531	16646
736.644	16417
736.758	15083
736.872	15219
736.985	16093
737.099	15840
737.212	16033
737.326	14419
737.439	16667
737.553	14578
737.666	16054
737.780	13969
737.893	15058
738.007	14886
738.120	15134
738.233	12611
738.347	14595
738.460	13572
738.573	15644
738.687	12546
738.800	14078
738.913	14763
739.026	14509
739.140	13343
739.253	14386
739.366	13341
739.479	13965
739.592	13089
739.705	12817
739.818	14154
739.932	11392
740.045	14467
740.158	12994
740.271	13652
740.384	13171
740.497	11690
740.610	14056
740.723	12187
740.836	12650
740.949	11636
741.062	13534
741.174	11333
741.287	12925
741.400	12363
741.513	10912
741.626	11949
741.739	11398
741.851	11198
741.964	12073
742.077	11409
742.189	10125
742.302	11503
742.415	10832
742.527	11058
742.640	11691
742.753	8632
742.865	12135
742.978	10828
743.090	10099
743.203	10842
743.316	10609
743.428	10152
743.541	10960
743.653	8899
743.766	10056
743.878	10445
743.990	9312
744.103	11002
744.215	9362
744.327	9754
744.440	12065
744.552	8709
744.664	9046
744.777	10974
744.889	9578
745.001	9251
745.113	10829
745.226	9348
745.338	9124
745.450	11179
745.562	9398
745.674	7781
745.786	10782
745.898	9617
746.010	8705
746.122	9004
746.234	9289
746.347	9637
746.459	9154
746.570	6720
746.682	9206
746.794	9940
746.906	7354
747.018	8783
747.130	9197
747.242	7569
747.354	8038
747.466	8949
747.577	7886
747.689	8050
747.801	7906
747.913	7456
748.024	7957
748.136	7777
748.248	7192
748.359	8599
748.471	8509
748.583	7224
748.694	7189
748.806	8416
748.918	6955
749.029	7307
749.141	8774
749.252	8688
749.364	7067
749.475	6287
749.587	7100
749.698	6991
749.809	7302
749.921	7044
750.032	7098
750.144	7214
750.255	5954
750.366	6690
750.478	6654
750.589	7257
750.700	6487
750.811	7638
750.923	6529
751.034	5814
751.145	8829
751.256	6443
751.367	6562
751.479	7022
751.590	6635
751.701	5721
751.812	5687
751.923	5769
752.034	7567
752.145	6214
752.256	6074
752.367	6398
752.478	6172
752.589	7102
752.700	5813
752.811	6788
752.922	5829
753.032	6529
753.143	6910
753.254	6192
753.365	7327
753.476	6413
753.586	6560
753.697	6286
753.808	5741
753.919	5763
754.029	5321
754.140	5701
754.251	6346
754.361	6478
754.472	6211
754.582	4793
754.693	5590
754.804	6453
754.914	5317
755.025	4626
755.135	6008
755.246	6852
755.356	5256
755.466	5334
755.577	5599
755.687	5659
755.798	5945
755.908	5161
756.018	5241
756.129	5775
756.239	5395
756.349	6367
756.460	4860
756.570	5304
756.680	4892
756.790	5561
756.900	6003
757.011	4891
757.121	4115
757.231	4740
757.341	5001
757.451	4212
757.561	4852
757.671	5465
757.781	5359
757.891	5340
758.001	4420
758.111	5141
758.221	6054
758.331	6048
758.441	4667
758.551	5404
758.661	5649
758.771	5542
758.880	4676
758.990	4253
759.100	4816
759.210	5781
759.320	5764
759.429	5855
759.539	6095
759.649	5281
759.758	5467
759.868	6321
759.978	5563
760.087	6258
760.197	6632
760.307	6600
760.416	5784
760.526	4874
760.635	6057
760.745	6276
760.854	5739
760.964	6834
761.073	7100
761.182	6731
761.292	5215
761.401	4568
761.511	4933
761.620	5311
761.729	5750
761.839	5309
761.948	5211
762.057	4167
762.166	5005
762.276	3942
762.385	5151
762.494	4431
762.603	4274
762.712	4559
762.822	4081
762.931	4286
763.040	3174
763.149	3714
763.258	3834
763.367	4051
763.476	4289
763.585	3754
763.694	4312
763.803	3746
763.912	4277
764.021	4392
764.130	3765
764.238	4774
764.347	3737
764.456	4127
764.565	4687
764.674	4279
764.783	4151
764.891	4010
765.000	5549
765.109	4218
765.217	3603
765.326	4836
765.435	5084
765.543	5479
765.652	5501
765.761	5741
765.869	7810
765.978	10150
766.086	18530
766.195	34523
766.303	95212
766.412	242054
766.520	157886
766.629	42241
766.737	18306
766.846	11678
766.954	8448
767.062	8654
767.171	5355
767.279	5723
767.387	4233
767.496	4187
767.604	4822
767.712	4351
767.820	3833
767.928	5190
768.037	3590
768.145	4463
768.253	5114
768.361	4357
768.469	3830
768.577	3881
768.685	4753
768.793	4482
768.901	4076
769.009	4795
769.117	5743
769.225	5408
769.333	7358
769.441	8802
769.549	16726
769.657	35593
769.765	115332
769.873	187632
769.981	54328
770.088	15360
770.196	9825
770.304	8586
770.412	8084
770.519	6608
770.627	6745
770.735	5973
770.842	6116
770.950	5665
771.058	6679
771.165	9628
771.273	8218
771.380	9436
771.488	12936
771.595	14552
771.703	12174
771.810	12529
771.918	13081
772.025	15305
772.133	17479
772.240	15490
772.348	19366
772.455	17972
772.562	14838
772.670	14740
772.777	16547
772.884	16203
772.991	14190
773.099	16279
773.206	15217
773.313	15198
773.420	14475
773.528	14582
773.635	13758
773.742	15367
773.849	14485
773.956	15002
774.063	13481
774.170	13937
774.277	14824
774.384	13327
774.491	13105
774.598	13901
774.705	13446
774.812	12415
774.919	12383
775.026	13330
775.133	14322
775.239	12261
775.346	12027
775.453	12578
775.560	11991
775.667	13066
775.773	11503
775.880	12671
775.987	11753
776.093	12974
776.200	13488
776.307	10116
776.413	11271
776.520	14190
776.627	11059
776.733	10884
776.840	9569
776.946	15341
777.053	10354
777.159	11586
777.266	10255
777.372	10926
777.478	12174
777.585	11724
777.691	9790
777.798	12644
777.904	10033
778.010	10527
778.117	11918
778.223	10670
778.329	10552
778.435	8691
778.542	11982
778.648	10543
778.754	9312
778.860	10922
778.966	10322
779.072	9579
779.178	9984
779.284	7448
779.391	9269
779.497	9259
779.603	11071
779.708	8194
779.815	8633
779.920	11459
780.026	9445
780.132	9612
780.238	8382
780.344	9267
780.450	12033
780.556	6855
780.661	8238
780.767	10463
780.873	7047
780.979	7965
781.085	10222
781.190	8804
781.296	8454
781.402	8281
781.507	8133
781.613	6426
781.719	8645
781.824	9467
781.930	8070
782.035	8523
782.141	9385
782.246	6334
782.352	7744
782.457	8033
782.563	8212
782.668	8386
782.773	6544
782.879	5783
782.984	8284
783.090	7430
783.195	7839
783.300	9321
783.405	7138
783.511	6213
783.616	6778
783.721	7879
783.826	5800
783.932	6234
784.037	7327
784.142	7602
784.247	6101
784.352	6626
784.457	5053
784.562	7976
784.667	7212
784.772	4956
784.877	4493
784.982	8420
785.087	7294
785.192	6481
785.297	6805
785.402	7212
785.507	6495
785.611	5503
785.716	5623
785.821	7002
785.926	6300
786.031	5337
786.135	6496
786.240	5848
786.345	4053
786.450	5452
786.554	6056
786.659	5197
786.763	5160
786.868	6167
786.973	7133
787.077	5173
787.182	4072
787.286	6010
787.391	7033
787.495	3718
787.600	4000
787.704	4908
787.809	6513
787.913	6098
788.017	5596
788.122	5639
788.226	5304
788.330	2998
788.435	5653
788.539	6878
788.643	5181
788.747	3698
788.852	5643
788.956	4118
789.060	6285
789.164	5139
789.268	4133
789.372	5861
789.476	4264
789.580	3967
789.684	3935
789.788	5928
789.892	4913
789.996	3585
790.100	2516
790.204	4664
790.308	5565
790.412	3272
790.516	3573
790.620	3530
790.724	6245
790.828	4246
790.931	2112
791.035	5293
791.139	3166
791.242	4061
791.346	4890
791.450	4696
791.554	3408
791.657	2474
791.761	5412
791.864	5500
791.968	5325
792.072	4666
792.175	3651
792.279	2960
792.382	3559
792.486	3577
792.589	4283
792.693	5464
792.796	3302
792.899	4639
793.003	5822
793.106	3173
793.209	3217
793.313	4272
793.416	2283
793.519	3949
793.623	5148
793.726	4404
793.829	3482
793.932	2386
794.035	2259
794.138	4814
794.242	5138
794.345	1176
794.448	2434
794.551	1253
794.654	5382
794.757	4548
794.860	2740
794.963	3255
795.066	2348
795.169	4586
795.272	3361
795.375	4135
795.477	3191
795.580	3270
795.683	1575
795.786	4164
795.889	1923
795.991	3683
796.094	3912
796.197	1754
796.300	4230
796.402	3308
796.505	2293
796.608	1593
796.710	3187
796.813	3399
796.915	3521
797.018	3838
797.120	3648
797.223	1737
797.326	4691
797.428	2962
797.530	2579
797.633	2379
797.735	4218
797.838	2207
797.940	4481
798.042	2749
798.145	2958
798.247	3394
798.349	893
798.452	3675
798.554	3114
798.656	2232
798.758	3690
798.860	2927
798.962	2338
799.065	2032
799.167	1667
799.269	3537
799.371	3474
799.473	4468
799.575	2996
799.677	2102
799.779	3575
799.881	986
799.983	3203
800.085	2738
800.187	2899
800.289	2621
800.390	2314
800.492	3683
800.594	3499
800.696	1849
800.798	2609
800.899	2773
801.001	2704
801.103	2391
801.205	2991
801.306	2054
801.408	1431
801.509	2349
801.611	3327
801.713	2535
801.814	1504
801.916	1786
802.017	1596
802.119	1248
802.220	2704
802.322	1687
802.423	3570
802.525	822
802.626	2023
802.727	3198
802.829	2961
802.930	-539
803.031	3347
803.133	2410
803.234	2632
803.335	2520
803.436	1667
803.538	2136
803.639	1633
803.740	2330
803.841	2066
803.942	3602
804.043	3254
804.144	909
804.245	2514
804.346	1530
804.447	1609
804.548	1447
804.649	3183
804.750	1528
804.851	1507
804.952	2120
805.053	2726
805.154	1510
805.255	3340
805.355	1941
805.456	2084
805.557	1567
805.658	1138
805.758	2214
805.859	2536
805.960	2803
806.061	2131
806.161	2175
806.262	2327
806.362	1081
806.463	1503
806.564	3408
806.664	1963
806.765	1365
806.865	2040
806.966	1419
807.066	1437
807.166	2813
807.267	2567
807.367	1199
807.468	2557
807.568	1025
807.668	2581
807.769	2571
807.869	1650
807.969	1772
808.069	2138
808.170	2681
808.270	1154
808.370	2739
808.470	2485
808.570	1146
808.670	2069
808.770	1757
808.870	1333
808.970	1958
809.070	927
809.170	1706
809.271	2725
809.370	1965
809.470	2157
809.570	1188
809.670	837
809.770	1600
809.870	2655
809.970	1716
810.070	2674
810.169	3055
810.269	556
810.369	2587
810.469	2131
810.568	1649
810.668	1413
810.768	1996
810.867	2429
810.967	1204
811.066	2210
811.166	1755
811.265	2187
811.365	1587
811.464	2038
811.564	2230
811.663	1722
811.763	859
811.862	3157
811.962	2797
812.061	2164
812.160	1007
812.260	1543
812.359	1626
812.458	1065
812.557	1743
812.657	1631
812.756	1793
812.855	2349
812.954	1545
813.053	1949
813.153	1823
813.252	1227
813.351	1984
813.450	1392
813.549	1445
813.648	2274
813.747	1645
813.846	2552
813.945	1661
814.044	2246
814.143	2721
814.242	3384
814.341	1194
814.439	2691
814.538	2904
814.637	2607
814.736	2596
814.835	3440
814.933	2184
815.032	4819
815.131	6406
815.229	11809
815.328	14702
815.427	10825
815.525	9245
815.624	9478
815.722	9224
815.821	10477
815.919	9899
816.018	8958
816.116	10027
816.215	9588
816.313	10765
816.412	13014
816.510	12624
816.609	14173
816.707	14116
816.805	12722
816.904	11423
817.002	12281
817.100	12127
817.198	14078
817.296	10600
817.395	12466
817.493	11827
817.591	10810
817.689	11366
817.787	11959
817.885	11175
817.983	9319
818.081	11079
818.179	11333
818.277	14434
818.375	11630
818.473	10073
818.571	9644
818.669	11842
818.767	11507
818.865	9794
818.963	8501
819.061	10968
819.158	9324
819.256	12989
819.354	9664
819.452	13739
819.549	10130
819.647	11411
819.745	8721
819.842	9328
819.940	10765
820.038	7625
820.135	8044
820.233	11168
820.330	8403
820.428	8511
820.525	11330
820.623	8342
820.720	8459
820.818	8960
820.915	9855
821.012	8202
821.110	6810
821.207	9263
821.304	7617
821.402	9008
821.499	9119
821.596	6903
821.693	8420
821.791	8925
821.888	8079
821.985	9148
822.082	6891
822.179	9126
822.276	8931
822.373	7191
822.470	7781
822.567	8551
822.664	6777
822.761	7923
822.858	8499
822.955	7168
823.052	7008
823.149	8005
823.246	7889
823.343	5672
823.440	6908
823.536	8234
823.633	8169
823.730	6360
823.827	7717
823.923	7050
824.020	5773
824.117	7888
824.213	7771
824.310	5833
824.407	5278
824.503	8744
824.600	6280
824.696	6290
824.793	9661
824.889	7730
824.986	5661
825.082	4531
825.179	6216
825.275	8210
825.371	8182
825.468	5548
825.564	2728
825.660	7561
825.757	8780
825.853	6910
825.949	4376
826.045	5731
826.142	6036
826.238	6929
826.334	7074
826.430	5960
826.526	4457
826.622	4191
826.718	7468
826.814	7780
826.910	6394
827.006	3742
827.102	3702
827.198	6210
827.294	7199
827.390	7449
827.486	5728
827.582	2536
827.678	4471
827.774	7293
827.869	4019
827.965	6378
828.061	4042
828.157	6875
828.252	6729
828.348	4285
828.444	4922
828.539	4120
828.635	5549
828.731	6631
828.826	4581
828.922	5403
829.017	6472
829.113	6922
829.208	3709
829.304	4448
829.399	6416
829.495	4709
829.590	4339
829.685	4839
829.781	6807
829.876	5775
829.971	2390
830.066	3007
830.162	4722
830.257	7966
830.352	3390
830.447	3965
830.543	3920
830.638	4643
830.733	6579
830.828	3729
830.923	4720
831.018	4346
831.113	6304
831.208	3353
831.303	1859
831.398	3056
831.493	5039
831.588	7482
831.683	4048
831.778	2817
831.873	2675
831.967	5586
832.062	4532
832.157	3494
832.252	3980
832.346	3814
832.441	5308
832.536	4455
832.631	5449
832.725	3415
832.820	3993
832.914	4037
833.009	3344
833.104	2681
833.198	4132
833.293	3651
833.387	5436
833.482	4414
833.576	4029
833.670	4241
833.765	2501
833.859	3756
833.954	4546
834.048	3832
834.142	3674
834.237	1847
834.331	3901
834.425	3786
834.519	2177
834.613	3477
834.708	3018
834.802	3551
834.896	3425
834.990	3978
835.084	2984
835.178	2528
835.272	3350
835.366	5015
835.460	5314
835.554	3470
835.648	2033
835.742	1173
835.836	2586
835.930	2641
836.024	3898
836.117	4309
836.211	2609
836.305	2797
836.399	3176
836.493	2406
836.586	4931
836.680	3726
836.774	2815
836.867	2740
836.961	2305
837.055	1596
837.148	1626
837.242	2807
837.335	3079
837.429	2369
837.522	2285
837.616	2548
837.709	2483
837.803	2049
837.896	4325
837.989	3396
838.083	2472
838.176	1389
838.269	775
838.363	3039
838.456	2064
838.549	3977
838.642	1765
838.735	2682
838.829	3154
838.922	2031
839.015	2352
839.108	725
839.201	2723
839.294	3300
839.387	2416
839.480	1293
839.573	2395
839.666	1843
839.759	3201
839.852	1660
839.945	3626
840.038	1889
840.131	1654
840.223	1758
840.316	2638
840.409	2977
840.502	3314
840.594	3208
840.687	451
840.780	1434
840.873	622
840.965	938
841.058	3067
841.150	3591
841.243	497
841.336	2412
841.428	2062
841.521	1826
841.613	1646
841.706	2147
841.798	2443
841.890	2201
841.983	1054
842.075	2366
842.167	2171
842.260	2174
842.352	3274
842.444	2295
842.537	941
842.629	1342
842.721	931
842.813	2486
842.905	1639
842.997	2233
843.090	1602
843.182	2405
843.274	174
843.366	2225
843.458	2554
843.550	3131
843.642	1921
843.734	1727
843.826	756
843.918	1585
844.009	2440
844.101	1493
844.193	2209
844.285	2266
844.377	2483
844.469	1932
844.560	852
844.652	1210
844.744	2099
844.835	2089
844.927	2334
845.019	1834
845.110	2117
845.202	2958
845.293	800
845.385	1085
845.476	1786
845.568	2367
845.659	1769
845.751	3021
845.842	1148
845.934	1862
846.025	2434
846.116	1885
846.208	2221
846.299	1558
846.390	765
846.482	1853
846.573	2553
846.664	1159
846.755	2018
846.846	1787
846.937	469
847.029	1371
847.120	1229
847.211	692
847.302	2923
847.393	-178
847.484	2083
847.575	-7
847.666	349
847.757	1237
847.847	1100
847.938	2697
848.029	2220
848.120	1049
848.211	856
848.302	-252
848.392	399
848.483	1456
848.574	1210
848.664	1574
848.755	834
848.846	1622
848.936	-141
849.027	1585
849.118	1899
849.208	375
849.299	1173
849.389	3463
849.480	4692
849.570	8988
849.661	18372
849.751	24086
849.841	7212
849.932	2200
850.022	1520
850.112	1965
850.203	1810
850.293	1066
850.383	449
850.474	-30
850.564	1651
850.654	971
850.744	1311
850.834	884
850.924	1338
851.014	1605
851.104	1134
851.194	674
851.284	711
851.374	1216
851.464	1310
851.554	807
851.644	946
851.734	1634
851.824	1847
851.914	1312
852.004	2471
852.094	727
852.183	489
852.273	870
852.363	625
852.452	2458
852.542	1428
852.632	774
852.721	1306
852.811	1615
852.901	1670
852.990	2174
853.080	1681
853.169	726
853.259	1791
853.348	1540
853.438	1877
853.527	2382
853.617	2933
853.706	6104
853.795	10259
853.885	21524
853.974	35486
854.063	66534
854.152	76612
854.242	26159
854.331	7313
854.420	3059
854.509	3341
854.598	2685
854.687	2649
854.777	2295
854.866	639
854.955	2038
855.044	1069
855.133	1192
855.222	1772
855.311	679
855.400	860
855.488	987
855.577	412
855.666	1111
855.755	1974
855.844	1059
855.933	1341
856.021	2177
856.110	821
856.199	945
856.288	514
856.376	1085
856.465	609
856.554	660
856.642	1663
856.731	1538
856.819	615
856.908	1125
856.996	973
857.085	799
857.173	577
857.262	516
857.350	761
857.438	127
857.527	766
857.615	927
857.703	1698
857.792	441
857.880	303
857.968	863
858.056	955
858.145	1370
858.233	826
858.321	616
858.409	1609
858.497	1100
858.585	511
858.673	1087
858.761	-142
858.849	1010
858.937	1126
859.025	958
859.113	1769
859.201	565
859.289	2503
859.377	1886
859.465	907
859.552	1842
859.640	920
859.728	879
859.816	1775
859.903	815
859.991	715
860.079	845
860.166	1608
860.254	927
860.342	1686
860.429	864
860.517	836
860.604	1084
860.692	1041
860.779	739
860.867	1268
860.954	2040
861.042	1754
861.129	1873
861.216	2088
861.304	1379
861.391	1247
861.478	1541
861.565	1685
861.653	1970
861.740	348
861.827	661
861.914	1911
862.001	936
862.089	1852
862.176	1674
862.263	884
862.350	1036
862.437	1274
862.524	894
862.611	1164
862.698	1375
862.785	1745
862.871	2649
862.958	2350
863.045	1783
863.132	2037
863.219	597
863.306	705
863.392	1391
863.479	1967
863.566	1579
863.652	2766
863.739	1526
863.826	1964
863.912	2250
863.999	1462
864.086	1541
864.172	2979
864.259	2410
864.345	1551
864.432	2358
864.518	2427
864.604	1527
864.691	1916
864.777	3683
864.863	4570
864.950	6696
865.036	9195
865.122	15697
865.209	14681
865.295	12938
865.381	12323
865.467	10852
865.553	11478
865.639	11883
865.726	14166
865.812	19734
865.898	28103
865.984	37109
866.070	62246
866.156	51660
866.242	21873
866.328	13291
866.414	10868
866.499	10650
866.585	10187
866.671	10652
866.757	10390
866.843	9416
866.928	10015
867.014	10215
867.100	10688
867.186	10593
867.271	10005
867.357	9759
867.442	8705
867.528	9160
867.614	9471
867.699	9672
867.785	9805
867.870	9047
867.956	9139
868.041	10331
868.127	9711
868.212	9343
868.297	9167
868.383	9703
868.468	8419
868.553	9422
868.639	8351
868.724	9027
868.809	8944
868.894	8315
868.979	8951
869.065	9012
869.150	7821
869.235	8569
869.320	8667
869.405	7209
869.490	9075
869.575	7957
869.660	5984
869.745	9318
869.830	9562
869.915	7226
870.000	7753
870.085	7184
870.169	9119
870.254	9576
870.339	5955
870.424	6863
870.509	7955
870.593	9318
870.678	7901
870.763	7150
870.847	7199
870.932	8944
871.016	8529
871.101	5768
871.186	8454
871.270	9118
871.355	5617
871.439	7026
871.523	8264
871.608	5763
871.692	5584
871.777	8784
871.861	7918
871.945	6612
872.030	7620
872.114	6709
872.198	5160
872.282	6092
872.367	5682
872.451	6101
872.535	6397
872.619	6355
872.703	6442
872.787	6869
872.871	7134
872.955	4647
873.039	4419
873.123	7163
873.207	7262
873.291	4824
873.375	4893
873.459	7600
873.543	5483
873.627	4794
873.711	5396
873.794	6586
873.878	5099
873.962	4719
874.045	4339
874.129	5418
874.137	5430
874.213	5547
874.245	5658
874.296	5849
874.352	5085
874.380	4712
874.460	5276
874.464	5299
874.547	4543
874.568	4746
874.631	5371
874.676	5563
874.714	5716
874.784	5799
874.798	5817
874.881	6264
874.892	5977
874.965	4005
874.999	4498
875.048	5159
875.107	5455
875.131	5578
875.215	4140
875.215	4139
875.298	3513
875.323	3928
875.381	4959
875.430	6003
875.465	6664
875.538	5739
875.548	5617
875.631	4036
875.646	3890
875.714	3315
875.753	3824
875.798	4336
875.861	5383
875.881	5701
875.964	4621
875.968	4604
876.047	4443
876.076	4411
876.130	4376
876.183	4505
876.213	4523
876.291	5483
876.296	5549
876.379	4852
876.398	4641
876.462	3878
876.506	3608
876.545	3424
876.613	3651
876.628	3705
876.711	4110
876.721	4277
876.794	5527
876.828	5249
876.877	4803
876.935	3783
876.960	3371
877.043	4041
877.043	4045
877.125	4910
877.150	5443
877.208	6462
877.258	4639
877.291	3505
877.365	3627
877.374	3627
877.456	3717
877.472	3665
877.539	3601
877.579	4191
877.622	4718
877.687	4231
877.704	4132
877.787	4105
877.794	4139
877.869	4506
877.901	4760
877.952	4923
878.008	3312
878.034	2626
878.115	2859
878.117	2869
878.199	3732
878.222	3939
878.282	4389
878.329	4477
878.364	4476
878.437	4424
878.447	4396
878.529	2335
878.544	2516
878.611	3591
878.651	3696
878.694	3888
878.758	4026
878.776	4053
878.858	4751
878.865	4734
878.941	3866
878.972	3246
879.023	2585
879.078	3251
879.105	3682
879.185	3638
879.187	3629
879.269	3904
879.292	3931
879.351	3876
879.399	3177
879.433	2700
879.506	2858
879.516	2938
879.598	3622
879.613	3625
879.680	3516
879.720	4024
879.762	4365
879.827	3611
879.844	3377
879.926	3100
879.933	3099
880.007	3553
880.040	3488
880.089	3366
880.147	4333
880.171	4760
880.253	5615
880.254	5618
880.335	5967
880.360	6407
880.417	8310
880.467	10616
880.499	11950
880.574	12591
880.580	12318
880.662	6865
880.680	5748
880.744	3298
880.787	2791
880.825	2714
880.893	3313
880.907	3486
880.989	3073
881.000	3166
881.070	3704
881.106	3573
881.152	3162
881.213	2553
881.233	2362
881.315	2090
881.319	2107
881.396	3202
881.426	3430
881.478	3260
881.532	3314
881.559	3579
881.639	3098
881.641	3066
881.722	2824
881.745	2796
881.803	3418
881.852	3593
881.885	3386
881.958	2718
881.966	2682
882.047	2761
882.064	2795
882.129	2721
882.171	2280
882.210	1889
882.277	1933
882.291	1997
882.372	3005
882.383	3058
882.454	3991
882.489	4087
882.535	3697
882.596	4020
882.616	4127
882.697	3442
882.702	3405
882.778	2446
882.808	2201
882.859	2160
882.914	2536
882.940	2626
883.020	2538
883.021	2542
883.102	3336
883.127	3503
883.183	3978
883.233	3967
883.264	3253
883.339	1717
883.345	1658
883.426	1241
883.445	1268
883.507	2160
883.551	2610
883.587	2963
883.657	3702
883.668	3745
883.749	3556
883.763	3519
883.830	2616
883.869	2129
883.910	2092
883.975	2695
883.991	2901
884.072	3140
884.081	3217
884.152	3848
884.187	3934
884.233	4072
884.292	3908
884.314	3443
884.394	1948
884.398	1875
884.475	1116
884.504	1030
884.555	1539
884.610	1966
884.636	2182
884.716	2961
884.716	2968
884.797	4024
884.821	3950
884.877	2917
884.927	2464
884.958	2348
885.033	1757
885.038	1716
885.118	1355
885.139	1306
885.199	1622
885.244	1702
885.279	1995
885.350	3270
885.359	3449
885.439	4231
885.456	4275
885.520	2934
885.561	2497
885.600	2302
885.667	1825
885.680	1900
885.760	2267
885.773	2328
885.840	2066
885.878	2017
885.920	1932
885.984	1801
886.000	1944
886.080	2458
886.089	2506
886.160	2753
886.195	2908
886.240	3037
886.300	3235
886.320	3152
886.400	2759
886.406	2707
886.480	2113
886.511	2081
886.560	1956
886.616	1641
886.640	1687
886.720	1725
886.722	1730
886.800	1693
886.827	1685
886.879	2171
886.932	2584
886.959	2979
887.038	3975
887.039	3970
887.119	3115
887.143	2902
887.198	2770
887.248	2637
887.278	2663
887.354	2325
887.358	2302
887.437	2136
887.459	2116
887.517	2799
887.564	3093
887.596	2479
887.669	1258
887.676	1265
887.755	1274
887.774	1316
887.835	1441
887.880	1587
887.914	2015
887.985	2687
887.994	2735
888.073	3423
888.090	3479
888.153	3859
888.195	4128
888.232	3288
888.300	1884
888.311	1955
888.391	2387
888.405	2462
888.470	1927
888.510	1587
888.549	1721
888.615	2104
888.628	2198
888.708	2609
888.720	2670
888.787	2841
888.825	2936
888.866	2303
888.930	1342
888.945	1410
889.024	1835
889.035	1883
889.103	2183
889.140	2351
889.182	2192
889.245	1999
889.261	2111
889.340	2615
889.349	2673
889.419	2053
889.454	1752
889.498	1751
889.559	1764
889.577	1925
889.656	2632
889.664	2703
889.735	2577
889.768	2513
889.814	2363
889.873	2157
889.978	1701
890.083	2225
890.187	2871
890.292	2574
890.397	1719
890.501	2451
890.606	1024
890.710	2400
890.815	3001
890.919	3443
891.024	2075
891.128	1946
891.233	1162
891.337	2128
891.442	2179
891.546	2085
891.650	1180
891.755	2119
891.859	2663
891.963	3586
892.068	2253
892.172	1614
892.276	1006
892.380	2497
892.484	2719
892.589	3007
892.693	2305
892.797	2018
892.901	1907
893.005	1791
893.109	2811
893.213	3473
893.317	1890
893.421	1151
893.525	974
893.629	1437
893.733	3218
893.837	2187
893.941	1617
894.045	1114
894.148	1097
894.252	1972
894.356	2045
894.460	3495
894.564	787
894.667	1444
894.771	892
894.875	1227
894.978	1371
895.082	1983
895.186	2965
895.289	2060
895.393	2062
895.496	3210
895.600	1694
895.703	1210
895.807	1236
895.910	1599
896.014	2018
896.117	987
896.221	2367
896.324	2470
896.427	1615
896.531	839
896.634	1222
896.737	1934
896.840	1182
896.944	2525
897.047	2740
897.150	1642
897.253	674
897.356	1471
897.460	579
897.563	647
897.666	2486
897.769	1989
897.872	1291
897.975	576
898.078	1533
898.181	1727
898.284	1093
898.387	3443
898.490	3467
898.593	1464
898.695	847
898.798	1986
898.901	1313
899.004	2069
899.107	1066
899.209	2125
899.312	1977
899.415	1402
899.518	-108
899.620	1187
899.723	904
899.826	1817
899.928	1152
900.031	778
900.133	3305
900.236	2340
900.338	577
900.441	1288
900.543	1666
900.646	2232
900.748	1667
900.851	2209
900.953	1377
901.055	1641
901.158	956
901.260	1502
901.362	1415
901.465	1500
901.567	1519
901.669	2308
901.771	1222
901.873	2132
901.976	1181
902.078	1509
902.180	592
902.282	1382
902.384	1277
902.486	3054
902.588	1720
902.690	1795
902.792	795
902.894	1869
902.996	2080
903.098	2743
903.200	744
903.302	1266
903.404	1288
903.505	1269
903.607	1253
903.709	3006
903.811	2382
903.913	1609
904.014	1479
904.116	997
904.218	1314
904.319	1399
904.421	2857
904.523	1797
904.624	1267
904.726	928
904.827	811
904.929	1208
905.030	538
905.132	2881
905.233	1746
905.335	1184
905.436	228
905.537	1016
905.639	422
905.740	1525
905.841	1572
905.943	656
906.044	1254
906.145	1712
906.247	1072
906.348	1097
906.449	926
906.550	1820
906.651	1147
906.752	1159
906.854	955
906.955	1167
907.056	1041
907.157	2039
907.258	1015
907.359	1072
907.460	591
907.561	916
907.662	544
907.762	1448
907.863	1189
907.964	2699
908.065	2081
908.166	658
908.267	1080
908.367	114
908.468	-25
908.569	1431
908.670	2071
908.770	2106
908.871	1551
908.971	2801
909.072	822
909.173	1150
909.273	1499
909.374	1904
909.474	873
909.575	1155
909.675	1013
909.776	1633
909.876	1243
909.977	1057
910.077	1398
910.177	2407
910.278	1504
910.378	1089
910.478	1134
910.579	1775
910.679	2306
910.779	1955
910.879	1140
910.980	1373
911.080	1711
911.180	1240
911.280	587
911.380	-157
911.480	939
911.580	1462
911.680	1002
911.780	768
911.880	2226
911.980	60
912.080	1117
912.180	878
912.280	1346
912.380	1656
912.480	404
912.580	1889
912.679	536
912.779	1763
912.879	1136
912.979	1119
913.078	738
913.178	809
913.278	195
913.377	768
913.477	711
913.577	1060
913.676	1630
913.776	2201
913.875	762
913.975	2329
914.074	1023
914.174	1440
914.273	-16
914.373	2470
914.472	547
914.572	331
914.671	321
914.770	991
914.870	1143
914.969	381
915.068	1888
915.167	1641
915.267	516
915.366	827
915.465	1661
915.564	1536
915.663	551
915.763	1325
915.862	1181
915.961	1408
916.060	647
916.159	1549
916.258	233
916.357	1658
916.456	1386
916.555	1319
916.654	1132
916.752	1961
916.851	622
916.950	838
917.049	927
917.148	132
917.247	744
917.345	716
917.444	888
917.543	1395
917.642	1241
917.740	1770
917.839	1787
917.937	2920
918.036	1446
918.135	649
918.233	1363
918.332	1676
918.430	856
918.529	1343
918.627	852
918.726	2034
918.824	1885
918.923	89
919.021	552
919.119	782
919.218	337
919.316	1294
919.414	1059
919.512	2145
919.611	449
919.709	1477
919.807	2124
919.905	1544
920.003	1449
920.102	1565
920.200	2087
920.298	1904
920.396	1022
920.494	1940
920.592	1422
920.690	2366
920.788	2289
920.886	1940
920.984	1895
921.082	2279
921.180	2971
921.277	2817
921.375	3821
921.473	4938
921.571	4824
921.669	4778
921.766	3982
921.864	4904
921.962	5012
922.060	3699
922.157	3331
922.255	4329
922.352	4456
922.450	4731
922.548	5060
922.645	6187
922.743	7537
922.840	12254
922.938	14256
923.035	12870
923.133	12406
923.230	14360
923.327	17506
923.425	15052
923.522	14265
923.619	13311
923.717	12538
923.814	11641
923.911	12127
924.008	13068
924.106	11175
924.203	10813
924.300	11718
924.397	11487
924.494	12084
924.591	11648
924.688	10610
924.786	11725
924.883	12507
924.979	11620
925.077	11294
925.173	10833
925.270	11333
925.367	10946
925.464	11899
925.561	11626
925.658	11636
925.755	9667
925.852	12031
925.948	10876
926.045	10629
926.142	11780
926.239	11733
926.335	8516
926.432	11047
926.529	11626
926.625	11846
926.722	9710
926.818	9852
926.915	11327
927.011	9986
927.108	10412
927.204	10196
927.301	9012
927.397	9758
927.494	11702
927.590	7333
927.687	9061
927.783	12209
927.879	11590
927.976	8880
928.072	8460
928.168	9753
928.264	10571
928.361	9118
928.457	12179
928.553	8700
928.649	9187
928.745	9767
928.841	8711
928.937	8879
929.033	9269
929.129	9155
929.225	10248
929.321	7742
929.417	6966
929.513	10515
929.609	8034
929.705	7604
929.801	9989
929.897	7950
929.993	8643
930.089	8290
930.184	7647
930.280	8334
930.376	11199
930.471	7027
930.567	8070
930.663	8456
930.758	7629
930.854	7619
930.950	8149
931.045	6325
931.141	8900
931.236	9479
931.332	8195
931.427	7306
931.523	9533
931.618	8382
931.714	4894
931.809	6427
931.905	8634
932.000	5911
932.095	6237
932.191	9420
932.286	9759
932.381	7726
932.476	5627
932.572	7731
932.667	6170
932.762	6158
932.857	7962
932.952	8866
933.047	6865
933.142	5511
933.237	6911
933.332	7793
933.427	8954
933.522	6891
933.617	6242
933.712	6412
933.807	8472
933.902	8693
933.997	8828
934.092	5226
934.187	6102
934.282	7371
934.376	7298
934.471	6678
934.566	6235
934.661	5953
934.755	7442
934.850	7774
934.945	6045
935.039	4869
935.134	4241
935.228	7076
935.323	9957
935.417	4641
935.512	4247
935.606	5065
935.701	6669
935.795	6677
935.890	6485
935.984	4566
936.079	3678
936.173	6307
936.267	5393
936.362	4120
936.456	6720
936.550	9505
936.644	6308
936.738	4296
936.833	4904
936.927	3838
937.021	5342
937.115	6196
937.209	5503
937.303	5564
937.397	4770
937.491	4991
937.585	7353
937.679	5415
937.773	4470
937.867	3649
937.961	4644
938.055	7816
938.149	6565
938.243	3805
938.337	3487
938.430	4397
938.524	7701
938.618	5341
938.712	4010
938.805	4979
938.899	6965
938.993	6913
939.086	3882
939.180	2651
939.274	3793
939.367	5361
939.461	6684
939.554	3991
939.648	3579
939.741	4076
939.835	5899
939.928	6785
940.022	5551
940.115	3967
940.208	6038
940.302	6962
940.395	7185
940.488	3417
940.582	4676
940.675	3123
940.768	4737
940.861	6005
940.954	5958
941.048	2022
941.141	3183
941.234	2587
941.327	5252
941.420	4792
941.513	4837
941.606	2945
941.699	4620
941.792	5157
941.885	4958
941.978	4691
942.071	5075
942.164	2955
942.257	3369
942.349	4416
942.442	5552
942.535	2714
942.628	3714
942.721	3999
942.813	3746
942.906	4868
942.999	4281
943.091	3368
943.184	4504
943.277	3642
943.369	2816
943.462	2490
943.554	4578
943.647	3868
943.739	5030
943.832	5177
943.924	1511
944.017	2700
944.109	3334
944.201	3366
944.294	3448
944.386	3240
944.478	2725
944.571	2198
944.663	3318
944.755	3614
944.847	3628
944.940	3507
945.032	2362
945.124	1815
945.216	3366
945.308	3866
945.400	3834
945.492	3927
945.584	4758
945.676	4455
945.768	4496
945.860	4528
945.952	4865
946.044	4185
946.136	2853
946.228	2906
946.320	3022
946.412	3873
946.503	4437
946.595	4567
946.687	2346
946.779	1732
946.870	2490
946.962	1544
947.054	2504
947.145	3868
947.237	2989
947.329	3401
947.420	3637
947.512	2788
947.603	2340
947.695	2674
947.786	2033
947.878	3191
947.969	3640
948.061	3394
948.152	2809
948.243	2144
948.335	1193
948.426	2681
948.517	3577
948.609	3438
948.700	3545
948.791	2080
948.882	2053
948.973	2097
949.065	3016
949.156	2751
949.247	1143
949.338	2188
949.429	1095
949.520	1916
949.611	2483
949.702	3034
949.793	2587
949.884	2678
949.975	2952
950.066	1294
950.157	1486
950.247	1965
950.338	1029
950.429	1669
950.520	1925
950.611	1876
950.701	3148
950.792	3672
950.883	3559
950.973	2309
951.064	3376
951.155	2327
951.245	2902
951.336	2993
951.427	3328
951.517	3362
951.608	3207
951.698	1664
951.788	2557
951.879	1120
951.969	1856
952.060	1726
952.150	3080
952.240	3410
952.331	1733
952.421	3762
952.511	1258
952.602	1290
952.692	1703
952.782	1698
952.872	2557
952.962	2266
953.052	1656
953.143	1125
953.233	1941
953.323	2458
953.413	2321
953.503	3483
953.593	2846
953.683	2695
953.773	1091
953.863	1202
953.953	1488
954.042	2586
954.132	2450
954.222	3059
954.312	1589
954.402	871
954.492	1922
954.581	1946
954.671	1221
954.761	1587
954.850	3169
954.940	172
955.030	1402
955.119	1233
955.209	1117
955.298	1219
955.388	2208
955.477	3507
955.567	570
955.656	1993
955.746	2652
955.835	2149
955.925	597
956.014	1548
956.103	2484
956.193	2876
956.282	2415
956.371	1342
956.461	2485
956.550	2364
956.639	2070
956.728	772
956.817	1929
956.906	1550
956.995	3451
957.085	1317
957.174	2225
957.263	1534
957.352	1795
957.441	1935
957.530	1797
957.619	946
957.708	2245
957.796	1484
957.885	1476
957.974	849
958.063	1721
958.152	134
958.241	993
958.329	769
958.418	1143
958.507	1486
958.596	3716
958.684	1006
958.773	1873
958.861	841
958.950	877
959.039	1165
959.127	1451
959.216	1674
959.304	1796
959.393	1371
959.481	1715
959.570	1028
959.658	314
959.746	130
959.835	2052
959.923	1121
960.011	259
960.100	2363
960.188	1830
960.276	327
960.365	1229
960.453	412
960.541	767
960.629	388
960.717	725
960.805	-110
960.893	1087
960.981	1023
961.069	3298
961.158	2230
961.245	3271
961.333	1669
961.421	1333
961.509	1139
961.597	1617
961.685	1426
961.773	1612
961.861	1298
961.949	3113
962.036	138
962.124	1351
962.212	683
962.299	1686
962.387	237
962.475	1678
962.562	124
962.650	1555
962.738	650
962.825	585
962.913	553
963.000	1750
963.088	1358
963.175	1742
963.263	848
963.350	1401
963.438	621
963.525	1188
963.612	888
963.700	327
963.787	1444
963.874	35
963.962	925
964.049	967
964.136	1081
964.223	-352
964.310	731
964.398	807
964.485	423
964.572	1034
964.659	1073
964.746	85
964.833	63
964.920	746
965.007	382
965.094	605
965.181	747
965.268	719
965.355	54
965.441	856
965.528	-348
965.615	1726
965.702	677
965.789	555
965.875	1677
965.962	2225
966.049	-9
966.136	1987
966.222	685
966.309	1828
966.395	2062
966.482	1391
966.569	1033
966.655	1670
966.742	870
966.828	1115
966.915	-90
967.001	524
967.087	-334
967.174	513
967.260	992
967.347	409
967.433	314
967.519	1114
967.605	322
967.692	1285
967.778	576
967.864	602
967.950	1191
968.036	252
968.123	815
968.209	1311
968.295	-546
968.381	1582
968.467	524
968.553	-1164
968.639	1150
968.725	-74
968.811	1257
968.897	1470
968.983	282
969.069	-381
969.154	461
969.240	1157
969.326	-440
969.412	-170
969.497	-576
969.583	139
969.669	1023
969.755	820
969.840	89
969.926	2738
970.012	2924
970.097	4114
970.183	3393
970.268	677
970.354	1132
970.439	186
970.525	927
970.610	-82
970.696	1494
970.781	626
970.866	-51
970.952	1274
971.037	88
971.122	989
971.208	644
971.293	1225
971.378	-588
971.463	447
971.549	38
971.634	574
971.719	589
971.804	345
971.889	927
971.974	225
972.059	570
972.144	1259
972.229	229
972.314	-285
972.399	487
972.484	42
972.569	975
972.654	-309
972.739	520
972.824	228
972.908	-477
972.993	322
973.078	495
973.163	283
973.247	-64
973.332	-1035
973.417	1382
973.501	354
973.586	27
973.671	-541
973.755	-146
973.840	1262
973.924	1304
974.009	1878
974.093	285
974.178	2737
974.262	677
974.346	215
974.431	-81
974.515	220
974.600	1097
974.684	1157
974.768	-315
974.852	1394
974.937	-892
975.021	1036
975.105	627
975.189	1372
975.273	1166
975.358	-132
975.442	-67
975.526	1053
975.610	-133
975.694	-329
975.778	740
975.862	1072
975.946	-1612
976.030	2049
976.114	284
976.198	536
976.281	213
976.365	807
976.449	507
976.533	660
976.617	-402
976.700	-183
976.784	-68
976.868	-1027
976.951	-354
977.035	-518
977.119	227
977.202	337
977.286	1324
977.369	1319
977.453	3224
977.536	2480
977.620	1344
977.703	1529
977.787	736
977.870	1471
977.953	1545
978.037	-174
978.120	1043
978.203	275
978.287	426
978.370	805
978.453	-262
978.536	1286
978.620	1063
978.703	735
978.786	798
978.869	548
978.952	-375
979.035	2225
979.118	1169
979.201	150
979.284	820
979.367	304
979.450	1038
979.533	527
979.616	-17
979.699	243
979.782	1381
979.865	1502
979.948	377
980.030	-108
980.113	1331
980.196	52
980.279	1154
980.361	854
980.444	693
980.526	1661
980.609	2865
980.692	3133
980.774	2225
980.857	1805
980.939	1834
981.022	1033
981.104	1592
981.187	1659
981.269	1703
981.352	1619
981.434	-198
981.516	1403
981.599	2195
981.681	1695
981.763	775
981.846	703
981.928	420
982.010	1285
982.092	441
982.174	2519
982.256	788
982.339	859
982.421	652
982.503	1722
982.585	421
982.667	590
982.749	710
982.831	1304
982.913	-294
982.995	2459
983.077	629
983.158	2517
983.240	-86
983.322	1618
983.404	4071
983.486	3217
983.568	2881
983.649	1880
983.731	1772
983.813	1600
983.894	1387
983.976	1741
984.058	808
984.139	2426
984.221	740
984.302	2136
984.384	1931
984.465	1696
984.547	2333
984.628	1561
984.710	2207
984.791	1601
984.872	1456
984.954	1549
985.035	2608
985.116	1109
985.198	1855
985.279	2077
985.360	1372
985.441	2039
985.522	2198
985.604	2087
985.685	524
985.766	2599
985.847	2727
985.928	919
986.009	1096
986.090	1484
986.171	2654
986.252	2184
986.333	1812
986.414	1852
986.495	1518
986.576	2048
986.656	2584
986.737	2834
986.818	2814
986.899	2487
986.980	1983
987.060	2837
987.141	1262
987.222	3336
987.302	3550
987.383	4389
987.464	3148
987.544	3573
987.625	2741
987.705	3973
987.786	2782
987.866	3239
987.947	3306
988.027	3666
988.108	2843
988.188	3150
988.268	2837
988.349	3250
988.429	2797
988.509	2666
988.589	2511
988.670	1319
988.750	3646
988.830	2187
988.910	1792
988.990	2391
989.070	2584
989.151	1771
989.231	1755
989.311	3177
989.391	2077
989.471	2611
989.551	2072
989.631	1646
989.711	3358
989.791	1962
989.870	1283
989.950	3220
990.030	1748
990.110	2491
990.190	30
990.269	1661
990.349	1886
990.429	2432
990.509	1609
990.588	1320
990.668	2178
990.747	1785
990.827	1396
990.907	1667
990.986	2181
991.066	2507
991.145	1073
991.225	1730
991.304	1336
991.383	2191
991.463	1906
991.542	2498
991.622	910
991.701	1130
991.780	1089
991.859	840
991.939	829
992.018	1483
992.097	1998
992.176	880
992.256	667
992.335	830
992.414	1277
992.493	1400
992.572	553
992.651	2161
992.730	943
992.809	1265
992.888	189
992.967	1723
993.046	1886
993.125	-90
993.203	-453
993.282	1714
993.361	1538
993.440	934
993.519	288
993.597	742
993.676	112
993.755	1952
993.834	997
993.912	-57
993.991	811
994.069	484
994.148	126
994.226	577
994.305	1272
994.384	312
994.462	1960
994.540	154
994.619	-435
994.697	946
994.776	982
994.854	351
994.932	-399
995.011	916
995.089	491
995.167	391
995.245	565
995.324	790
995.402	1603
995.480	288
995.558	492
995.636	19
995.714	-202
995.792	2279
995.870	-424
995.948	328
996.026	-391
996.104	-432
996.182	1088
996.260	102
996.338	-50
996.416	-178
996.494	321
996.572	1002
996.649	-624
996.727	-716
996.805	257
996.883	-208
996.960	-140
997.038	775
997.116	157
997.193	-65
997.271	899
997.348	228
997.426	417
997.504	813
997.581	554
997.658	-444
997.736	-1789
997.813	-162
997.891	47
997.968	-641
998.046	-575
998.123	-516
998.200	740
998.277	-956
998.355	-567
998.432	-791
998.509	-308
998.586	646
998.663	-261
998.741	-116
998.818	-964
998.895	-811
998.972	415
999.049	277
999.126	-1199
999.203	-288
999.280	-697
999.357	-1291
999.434	-661
999.511	-474
999.587	-710
999.664	-1384
999.741	-616
999.818	-169
999.895	-554
999.971	121
1000.048	-602
1000.125	339
1000.202	-1133
1000.278	-117
1000.355	-205
1000.431	-730
1000.508	-1175
1000.584	-370
1000.661	-220
1000.738	-893
1000.814	-1303
1000.890	-517
1000.967	-833
1001.043	-382
1001.120	-828
1001.196	41
1001.272	-1906
1001.349	-797
1001.425	-485
1001.501	-267
1001.577	-1221
1001.654	-175
1001.730	-1228
1001.806	-571
1001.882	-805
1001.958	373
1002.034	247
1002.110	-1469
1002.186	-1671
1002.262	-281
1002.338	-729
1002.414	-434
1002.490	-214
1002.566	-663
1002.642	-1571
1002.718	-179
1002.794	-1050
1002.870	-1230
1002.945	-1187
1003.021	-1299
1003.097	-1477
1003.173	-279
1003.248	-1875
1003.324	-622
1003.400	-938
1003.475	-2106
1003.551	-1115
1003.626	-527
1003.702	-2275
1003.777	-802
1003.853	-1545
1003.928	-1540
1004.004	-687
1004.079	-193
1004.155	-1098
1004.230	-1766
1004.305	-36
1004.381	-1157
1004.456	-1444
1004.531	-631
1004.607	-1593
1004.682	-813
1004.757	-864
1004.832	-1502
1004.907	-1989
1004.982	-1397
1005.057	-822
1005.133	-767
1005.208	-686
1005.283	-1697
1005.358	-648
1005.433	-1971
1005.508	-1631
1005.583	-1925
1005.657	-1232
1005.732	-762
1005.807	-1837
1005.882	-2249
1005.957	-1776
1006.032	-485
1006.106	-575
1006.181	-841
1006.256	-367
1006.331	-1049
1006.405	-1780
1006.480	-1289
1006.554	-1339
1006.629	-1479
1006.704	-1521
1006.778	-1062
1006.853	-1762
1006.927	-1439
1007.002	-2024
1007.076	-1427
1007.150	-1951
1007.225	-1361
1007.299	-1416
1007.373	-1953
1007.448	-1601
1007.522	-407
1007.596	-1333
1007.671	-1432
1007.745	-933
1007.819	-943
1007.893	-1199
1007.967	-868
1008.041	-2420
1008.115	-738
1008.190	-2275
1008.264	-1343
1008.338	-3105
1008.412	-1319
1008.486	-1586
1008.560	-1348
1008.633	-2073
1008.707	-1331
1008.781	-1211
1008.855	-1281
1008.929	-1848
1009.003	-1330
1009.076	-1525
1009.150	-2049
1009.224	-1323
1009.298	-841
1009.371	-2369
1009.445	-1058
1009.519	-1442
1009.592	-2229
1009.666	-1694
1009.739	-869
1009.813	-2168
1009.886	-475
1009.960	-2060
1010.033	-628
1010.107	-1508
1010.180	-1699
1010.253	-1031
1010.327	-2313
1010.400	-2212
1010.473	-1642
1010.547	-1360
1010.620	-1529
1010.693	-1459
1010.766	-1699
1010.840	-1526
1010.913	-1538
1010.986	-2959
1011.059	-933
1011.132	-1464
1011.205	-588
1011.278	-1759
1011.351	-2099
1011.424	-2100
1011.497	-1779
1011.570	-1572
1011.643	-1284
1011.716	-2350
1011.789	-1515
1011.862	-1966
1011.934	-771
1012.007	-3102
1012.080	-779
1012.153	-2018
1012.225	-1013
1012.298	-1718
1012.371	-2033
1012.443	-1498
1012.516	-1449
1012.588	-1591
1012.661	-2311
1012.733	-1803
1012.806	-1733
1012.879	-2213
1012.951	-1933
1013.023	-2041
1013.096	-704
1013.168	-2600
1013.241	-1072
1013.313	-2432
1013.385	-1639
1013.458	-1549
1013.530	-1561
1013.602	-1866
1013.674	-703
1013.746	-2784
1013.819	-2067
1013.891	-1834
1013.963	-2001
1014.035	-1336
1014.107	-685
1014.179	-2143
1014.251	-2159
1014.323	-1449
1014.395	-2098
1014.467	-2449
1014.539	-1374
1014.611	-2425
1014.683	-1779
1014.754	-2466
1014.826	-2199
1014.898	-1497
1014.970	-2693
1015.042	-1434
1015.113	-1425
1015.185	-1572
1015.257	-2452
1015.328	-1236
1015.400	-2237
1015.471	-1166
1015.543	-2851
1015.615	-1922
1015.686	-2227
1015.757	-1839
1015.829	-1205
1015.901	-2199
1015.972	-1021
1016.043	-1821
1016.115	-1333
1016.186	-1408
1016.257	-1542
1016.328	-595
1016.400	-770
1016.471	-2243
1016.542	-1639
1016.613	-1208
1016.685	-1568
1016.756	-1524
1016.827	-1510
1016.898	-2094
1016.969	-1565
1017.040	-1769
1017.111	-1357
1017.182	-2308
1017.253	-1741
1017.324	-1463
1017.395	-1613
1017.466	-715
1017.537	-1772
1017.608	-2015
1017.678	-1176
1017.749	-1016
1017.820	-1329
1017.891	-2265
1017.961	-1206
1018.032	-2634
1018.103	-1400
1018.173	-2343
1018.244	-1975
1018.315	-1840
1018.385	-1814
1018.456	-1781
1018.526	-1803
1018.597	-2164
1018.667	-2209
1018.738	-2238
1018.808	-1434
1018.878	-1533
1018.949	-2113
1019.019	-2117
1019.089	-1341
1019.160	-1743
1019.230	-2269
1019.300	-1323
1019.371	-2806
1019.441	-1712
1019.511	-1628
1019.581	-1602
1019.651	-1445
1019.721	-1296
1019.791	-1973
1019.861	-2129
1019.931	-1965
1020.001	-2163
1020.071	-1677
1020.141	-1283
1020.211	-1282
1020.281	-1504
1020.351	-2220
1020.421	-1733
1020.491	-1381
1020.560	-2418
1020.630	-1152
1020.700	-2469
1020.770	-2180
1020.839	-2041
1020.909	-757
1020.979	-2552
1021.048	-1153
1021.118	-1947
1021.187	-1231
1021.257	-3201
1021.326	-635
1021.396	-2357
1021.465	-1763
1021.535	-2441
1021.604	-2772
1021.674	-1109
1021.743	-1697
1021.812	-1162
1021.882	-1477
1021.951	-1928
1022.020	-1641
1022.089	-1925
1022.159	-1549
1022.228	-2135
1022.297	-1752
1022.366	-2468
1022.435	-2030
1022.504	-2249
1022.573	-1602
1022.642	-1753
1022.711	-1843
1022.781	-1781
1022.849	-1464
1022.918	-1611
1022.987	-1434
1023.056	-2511
1023.125	-1881
1023.194	-2481
1023.263	-1818
1023.331	-2199
1023.400	-2656
1023.469	-2078
1023.538	-1891
1023.606	-2877
1023.675	-2149
1023.744	-2067
1023.812	-1153
1023.881	-2420
1023.949	-1287
1024.018	-2292
1024.086	-1836
1024.155	-1944
1024.223	-2326
1024.292	-1744
1024.360	-1411
1024.429	-1559
1024.497	-1707
1024.565	-2508
1024.634	-1858
1024.702	-1554
1024.770	-1813
1024.838	-2249
1024.907	-1463
1024.975	-2157
1025.043	-1876
1025.111	-2404
1025.179	-1973
1025.247	-2047
1025.315	-2324
1025.383	-2954
1025.451	-2248
1025.519	-2952
1025.587	-2514
1025.655	-1566
1025.723	-2798
1025.791	-2169
1025.859	-2629
1025.927	-1906
1025.995	-1633
1026.062	-2224
1026.130	-1669
1026.198	-1984
1026.266	-1191
1026.333	-2300
1026.401	-1795
1026.469	-1657
1026.536	-1773
1026.604	-1936
1026.671	-2166
1026.739	-1854
1026.806	-1930
1026.874	-2294
1026.941	-2075
1027.009	-2451
1027.076	-1846
1027.144	-1523
1027.211	-2614
1027.278	-3538
1027.345	-1699
1027.413	-1729
1027.480	-2384
1027.547	-1450
1027.614	-2349
1027.682	-2168
1027.749	-2741
1027.816	-2374
1027.883	-2509
1027.950	-2539
1028.017	-2015
1028.084	-2976
1028.151	-2243
1028.218	-2082
1028.285	-1616
1028.352	-2355
1028.419	-2467
1028.486	-2244
1028.553	-2506
1028.619	-2327
1028.686	-1731
1028.753	-3215
1028.820	-1710
1028.886	-2442
1028.953	-1658
1029.020	-1448
1029.086	-2348
1029.153	-2673
1029.220	-2337
1029.286	-2172
1029.353	-1465
1029.419	-3265
1029.486	-1903
1029.552	-2690
1029.619	-3126
1029.685	-1854
1029.751	-2708
1029.818	-1899
1029.884	-3015
1029.951	-1087
1030.017	-2367
1030.083	-2861
1030.149	-1949
1030.216	-2700
1030.282	-1441
1030.348	-2214
1030.414	-2929
1030.480	-1889
1030.546	-2664
1030.612	-2646
1030.678	-2821
1030.744	-1945
1030.810	-1874
1030.876	-2667
1030.942	-3147
1031.008	-2294
1031.074	-1971
1031.140	-2468
1031.206	-1848
1031.272	-3664
1031.337	-2475
1031.403	-2774
1031.469	-2526
1031.534	-2819
1031.600	-1788
1031.666	-2798
1031.731	-2084
1031.797	-2774
1031.863	-1807
1031.928	-2733
1031.994	-2610
1032.059	-2624
1032.125	-2790
1032.190	-2204
1032.256	-2284
1032.321	-3109
1032.386	-2068
1032.452	-1781
1032.517	-2454
1032.582	-3104
1032.647	-2450
1032.713	-2956
1032.778	-3053
1032.843	-2545
1032.908	-2986
1032.974	-2091
1033.039	-2636
1033.104	-2177
1033.169	-2547
1033.234	-2501
1033.299	-3335
1033.364	-3512
1033.429	-1912
1033.494	-2750
1033.559	-3009
1033.624	-1825
1033.688	-2158
1033.753	-2964
1033.818	-2088
1033.883	-2364
1033.948	-1785
1034.013	-2085
1034.077	-851
1034.142	-1059
1034.207	-859
1034.271	1458
1034.336	2372
1034.400	173
1034.465	-937
1034.530	-1658
1034.594	-1658
1034.658	-3058
1034.723	-2970
1034.787	-1796
1034.852	-1983
1034.916	-2476
1034.981	-2083
1035.045	-2648
1035.109	-2968
1035.173	-2304
1035.238	-2565
1035.302	-3139
1035.366	-2283
1035.430	-2554
1035.495	-3071
1035.559	-2667
1035.623	-2430
1035.687	-2474
1035.751	-2283
1035.815	-2567
1035.879	-2101
1035.943	-2907
1036.007	-2599
1036.071	-2282
1036.135	-2626
1036.198	-2369
1036.262	-2705
1036.326	-3185
1036.390	-2873
1036.454	-2010
1036.517	-2210
1036.581	-1958
1036.645	-2153
1036.709	-2024
1036.772	-2883
1036.836	-2524
1036.900	-2400
1036.963	-2759
1037.026	-1682
1037.090	-2384
1037.154	-1754
1037.217	-2796
1037.280	-2325
1037.344	-3081
1037.407	-2714
1037.471	-1852
1037.534	-2921
1037.597	-2643
1037.661	-1845
1037.724	-2284
1037.787	-2212
1037.850	-2474
1037.913	-3143
1037.977	-2476
1038.040	-2997
1038.103	-2383
1038.166	-2589
1038.229	-2846
1038.292	-2450
1038.355	-2619
1038.418	-2880
1038.481	-2505
1038.544	-1983
1038.607	-2561
1038.670	-2959
1038.732	-3260
1038.795	-2840
1038.858	-2714
1038.921	-2106
1038.984	-2416
1039.046	-2667
1039.109	-2856
1039.172	-2881
1039.234	-2880
1039.297	-2577
1039.360	-3811
1039.422	-2275
1039.485	-2143
1039.547	-3199
1039.610	-2766
1039.672	-2627
1039.734	-2855
1039.797	-2738
1039.859	-2920
1039.922	-2552
1039.984	-2824
1040.046	-2968
1040.109	-2584
1040.171	-2593
1040.233	-3150
1040.295	-2240
1040.358	-3087
1040.420	-3663
1040.482	-2749
1040.544	-2985
1040.606	-2894
1040.668	-3147
1040.730	-3321
1040.792	-2785
1040.854	-2861
1040.916	-3440
1040.978	-2514
1041.040	-2500
1041.102	-3427
1041.164	-2908
1041.225	-3730
1041.287	-3011
1041.349	-2815
1041.411	-3176
1041.472	-2933
1041.534	-3067
1041.596	-3877
1041.657	-2844
1041.719	-2835
1041.781	-2663
1041.842	-3358
1041.904	-3040
1041.965	-3074
1042.027	-2744
1042.088	-2479
1042.150	-2179
1042.211	-2849
1042.272	-2421
1042.334	-3494
1042.395	-2973
1042.456	-3036
1042.518	-2814
1042.579	-1779
1042.640	-2496
1042.701	-3432
1042.763	-2810
1042.824	-3177
1042.885	-2630
1042.946	-2542
1043.007	-2851
1043.068	-2691
1043.129	-2486
1043.190	-2837
1043.251	-2245
1043.312	-3006
1043.373	-2146
1043.434	-2912
1043.495	-2987
1043.556	-2512
1043.616	-2254
1043.677	-2932
1043.738	-2046
1043.799	-2788
1043.859	-2524
1043.920	-2717
1043.981	-2266
1044.041	-2575
1044.102	-2353
1044.162	-2864
1044.223	-2230
1044.284	-2273
1044.344	-2080
1044.405	-2316
1044.465	-2016
1044.525	-2979
1044.586	-2164
1044.646	-1969
1044.707	-2367
1044.767	-2962
1044.827	-3353
1044.887	-2739
1044.948	-1948
1045.008	-2274
1045.068	-1646
1045.128	-2369
1045.188	-2988
1045.249	-2302
1045.309	-2722
1045.369	-2806
1045.429	-2884
1045.489	-2667
1045.549	-1901
1045.609	-2883
1045.669	-2808
1045.729	-2567
1045.789	-2649
1045.848	-2530
1045.908	-1960
1045.968	-2790
1046.028	-1980
1046.088	-2233
1046.147	-1704
1046.207	-2391
1046.267	-2364
1046.326	-1928
1046.386	-1713
1046.446	-1680
1046.505	-2524
1046.565	-1725
1046.624	-2067
1046.684	-1567
1046.743	-1562
1046.803	-1454
1046.862	-911
1046.922	0
