'Start Wavelength	183.907
'End Wavelength	1046.922
'Gate Delay	5.000
'Gate Width (ms)	1.050
'Laser Output Level	0.000
'X Position	0.000
'Y Position	0.000
'Z Position	0.000
'Grid Point Number	1.000
'Shot Number	100.000
183.907	757.000
183.977	114.000
184.047	25
184.116	916
184.186	552
184.256	100
184.325	73
184.395	-849
184.465	747
184.534	8
184.604	-612
184.674	441
184.743	157
184.813	207
184.883	-257
184.952	35
185.022	-264
185.092	151
185.161	-267
185.231	-632
185.301	-10
185.370	-175
185.440	183
185.509	-5
185.579	206
185.649	170
185.718	961
185.788	568
185.857	-160
185.927	450
185.996	112
186.066	660
186.136	-124
186.205	-163
186.275	682
186.344	-312
186.414	11
186.483	-345
186.553	512
186.622	153
186.692	19
186.761	339
186.831	826
186.900	79
186.970	-156
187.039	404
187.109	272
187.178	320
187.248	285
187.317	391
187.387	175
187.456	362
187.526	33
187.595	-231
187.664	583
187.734	320
187.803	299
187.873	45
187.942	-297
188.012	-68
188.081	319
188.150	225
188.220	749
188.289	212
188.358	154
188.428	-461
188.497	-614
188.567	541
188.636	106
188.705	49
188.775	482
188.844	-298
188.913	386
188.983	850
189.052	341
189.121	419
189.191	686
189.260	404
189.329	671
189.399	415
189.468	536
189.537	-264
189.606	461
189.676	-153
189.745	220
189.814	176
189.883	604
189.953	1017
190.022	923
190.091	714
190.161	506
190.230	250
190.299	-390
190.368	471
190.437	-258
190.507	339
190.576	-200
190.645	450
190.714	-543
190.783	20
190.853	-273
190.922	262
190.991	-165
191.060	146
191.129	-473
191.198	482
191.268	-67
191.337	554
191.406	290
191.475	336
191.544	-102
191.613	199
191.682	400
191.752	-532
191.821	99
191.890	132
191.959	1067
192.028	-288
192.097	274
192.166	581
192.235	-417
192.304	399
192.373	-430
192.442	24
192.511	190
192.580	-456
192.650	1190
192.719	198
192.788	138
192.857	464
192.926	209
192.995	104
193.064	367
193.133	648
193.202	-95
193.271	1437
193.340	439
193.409	809
193.478	1350
193.547	876
193.615	299
193.684	503
193.753	722
193.822	1260
193.891	-286
193.960	270
194.029	176
194.098	803
194.167	537
194.236	983
194.305	509
194.374	-161
194.443	-576
194.512	799
194.580	22
194.649	616
194.718	420
194.787	429
194.856	0
194.925	637
194.994	268
195.062	672
195.131	305
195.200	832
195.269	691
195.338	974
195.407	120
195.475	-313
195.544	977
195.613	464
195.682	348
195.751	972
195.819	585
195.888	677
195.957	630
196.026	329
196.094	550
196.163	581
196.232	-8
196.301	568
196.369	501
196.438	1158
196.507	222
196.576	-167
196.644	75
196.713	29
196.782	500
196.850	1104
196.919	-579
196.988	29
197.056	-112
197.125	-215
197.194	276
197.262	224
197.331	-116
197.400	84
197.468	-575
197.537	-171
197.606	400
197.674	710
197.743	20
197.812	289
197.880	883
197.949	493
198.017	1061
198.086	151
198.155	-248
198.223	1400
198.292	830
198.360	1148
198.429	579
198.497	838
198.566	99
198.635	1665
198.703	1204
198.772	949
198.840	824
198.909	1027
198.977	100
199.046	660
199.114	1013
199.183	498
199.251	510
199.320	518
199.388	612
199.457	68
199.525	479
199.594	-203
199.662	168
199.731	330
199.799	126
199.867	41
199.936	-404
200.004	607
200.073	96
200.141	515
200.210	-17
200.278	117
200.346	668
200.415	808
200.483	40
200.552	701
200.620	307
200.688	157
200.757	667
200.825	1324
200.893	47
200.962	717
201.030	134
201.098	-138
201.167	619
201.235	924
201.303	-624
201.372	876
201.440	-113
201.508	1384
201.577	922
201.645	-24
201.713	373
201.781	872
201.850	1206
201.918	976
201.986	820
202.055	682
202.123	72
202.191	492
202.259	101
202.327	650
202.396	539
202.464	-67
202.532	321
202.600	2504
202.669	2177
202.737	607
202.805	93
202.873	246
202.941	1116
203.009	1129
203.078	429
203.146	630
203.214	-122
203.282	-369
203.350	1681
203.418	134
203.487	717
203.555	887
203.623	69
203.691	647
203.759	596
203.827	453
203.895	552
203.963	961
204.031	-174
204.099	208
204.168	187
204.236	1069
204.304	476
204.372	844
204.440	472
204.508	-257
204.576	-146
204.644	-175
204.712	86
204.780	-173
204.848	-28
204.916	173
204.984	337
205.052	1033
205.120	1086
205.188	1383
205.256	672
205.324	707
205.392	712
205.460	1076
205.528	116
205.596	1509
205.664	891
205.732	1008
205.799	1001
205.867	2568
205.935	658
206.003	904
206.071	1211
206.139	782
206.207	622
206.275	938
206.343	260
206.411	864
206.478	659
206.546	970
206.614	924
206.682	-7
206.750	602
206.818	928
206.885	1768
206.953	-67
207.021	1296
207.089	1262
207.157	-576
207.225	461
207.292	699
207.360	1086
207.428	1189
207.496	938
207.563	732
207.631	765
207.699	485
207.767	432
207.834	563
207.902	1287
207.970	774
208.038	943
208.105	1171
208.173	965
208.241	349
208.309	1149
208.376	958
208.444	1596
208.512	1075
208.579	-125
208.647	392
208.715	2086
208.782	708
208.850	1043
208.918	365
208.985	1008
209.053	1913
209.120	1413
209.188	852
209.256	1167
209.323	-275
209.391	787
209.459	2671
209.526	1211
209.594	265
209.661	1788
209.729	581
209.796	1253
209.864	956
209.932	-120
209.999	2031
210.067	694
210.134	985
210.202	834
210.269	1126
210.337	2204
210.404	1502
210.472	1431
210.539	715
210.607	1527
210.674	551
210.742	1555
210.809	1019
210.877	1140
210.944	2021
211.012	145
211.079	2347
211.146	1294
211.214	973
211.281	1445
211.349	1187
211.416	1158
211.484	1795
211.551	1095
211.618	954
211.686	1038
211.753	897
211.821	1762
211.888	1241
211.955	1646
212.023	930
212.090	1176
212.157	1033
212.225	961
212.292	2465
212.359	3156
212.427	5865
212.494	4281
212.561	2006
212.629	1572
212.696	1471
212.763	1423
212.831	676
212.898	1986
212.965	741
213.032	1061
213.100	1099
213.167	1412
213.234	1983
213.301	1735
213.369	816
213.436	960
213.503	1167
213.570	1810
213.638	1320
213.705	430
213.772	1580
213.839	1598
213.906	2061
213.973	1389
214.041	1313
214.108	1682
214.175	1845
214.242	1756
214.309	1191
214.376	1142
214.444	637
214.511	1184
214.578	1190
214.645	2098
214.712	2365
214.779	1629
214.846	1213
214.913	1962
214.980	2117
215.048	1633
215.115	2649
215.182	1548
215.249	1031
215.316	1113
215.383	2462
215.450	2034
215.517	1784
215.584	1842
215.651	845
215.718	1610
215.785	1762
215.852	870
215.919	2314
215.986	2606
216.053	1429
216.120	702
216.187	918
216.254	1292
216.321	956
216.388	2094
216.455	1789
216.522	1299
216.589	1954
216.656	2030
216.722	2315
216.789	2637
216.856	1885
216.923	2050
216.990	2480
217.057	2541
217.124	2340
217.191	1811
217.258	3049
217.324	3614
217.391	3085
217.458	3213
217.525	2882
217.592	1983
217.659	1511
217.725	2550
217.792	2017
217.859	3119
217.926	680
217.993	1436
218.059	1741
218.126	1782
218.193	1465
218.260	878
218.327	296
218.393	650
218.460	494
218.527	1153
218.594	2215
218.660	3006
218.727	2711
218.794	771
218.860	1277
218.927	1181
218.994	1505
219.061	1209
219.127	1583
219.194	1833
219.261	1619
219.327	947
219.394	2565
219.461	308
219.527	317
219.594	1947
219.661	836
219.727	660
219.794	2315
219.860	446
219.927	1991
219.994	1938
220.060	2398
220.127	3151
220.193	2007
220.260	2261
220.326	4146
220.393	4495
220.460	5097
220.526	3741
220.593	2375
220.659	4833
220.726	3105
220.792	5325
220.859	5965
220.925	6832
220.992	7993
221.058	7765
221.125	7481
221.191	4628
221.258	2919
221.324	3831
221.391	1208
221.457	1730
221.524	1687
221.590	2893
221.657	4150
221.723	4106
221.789	3112
221.856	3319
221.922	1463
221.989	1950
222.055	981
222.121	101
222.188	3003
222.254	1751
222.321	1581
222.387	902
222.453	811
222.520	713
222.586	462
222.652	1550
222.719	-93
222.785	1451
222.851	945
222.918	1222
222.984	1151
223.050	1082
223.116	-739
223.183	1986
223.249	118
223.315	854
223.382	1086
223.448	1261
223.514	373
223.580	1943
223.647	114
223.713	351
223.779	753
223.845	1586
223.911	1251
223.978	-581
224.044	833
224.110	1860
224.176	1487
224.242	1510
224.309	-328
224.375	1470
224.441	1145
224.507	594
224.573	258
224.639	888
224.705	-959
224.772	778
224.838	489
224.904	1466
224.970	416
225.036	874
225.102	70
225.168	1797
225.234	1489
225.300	791
225.366	1261
225.432	1517
225.499	846
225.565	1066
225.631	1351
225.697	1092
225.763	1665
225.829	2442
225.895	2058
225.961	3235
226.027	3053
226.093	1938
226.159	3528
226.225	5733
226.291	10040
226.357	12758
226.423	8641
226.489	5986
226.554	4391
226.620	4330
226.686	4110
226.752	5850
226.818	9939
226.884	14735
226.950	14698
227.016	7892
227.082	6271
227.148	3281
227.214	3406
227.279	2712
227.345	1815
227.411	2613
227.477	2192
227.543	3027
227.609	3154
227.674	2629
227.740	1149
227.806	1981
227.872	1719
227.938	1951
228.003	1810
228.069	1646
228.135	909
228.201	798
228.267	800
228.332	2192
228.398	889
228.464	2102
228.530	999
228.595	1356
228.661	523
228.727	1362
228.792	2751
228.858	924
228.924	-385
228.990	3075
229.055	786
229.121	2202
229.187	853
229.252	984
229.318	595
229.384	615
229.449	850
229.515	-1354
229.581	417
229.646	2447
229.712	947
229.777	2902
229.843	2878
229.909	2417
229.974	2406
230.040	1836
230.105	1820
230.171	1522
230.236	2910
230.302	2254
230.368	2616
230.433	5065
230.499	3527
230.564	3148
230.630	1043
230.695	1527
230.761	2558
230.826	-157
230.892	3591
230.957	1284
231.023	621
231.088	1556
231.154	968
231.219	1544
231.284	1398
231.350	2919
231.415	619
231.481	2355
231.546	972
231.612	1471
231.677	967
231.742	-291
231.808	2387
231.873	626
231.939	-464
232.004	2215
232.069	2491
232.135	1703
232.200	513
232.265	1339
232.331	1119
232.396	743
232.461	387
232.527	624
232.592	255
232.657	548
232.723	1159
232.788	520
232.853	1810
232.918	1734
232.984	1080
233.049	433
233.114	969
233.179	1376
233.245	2253
233.310	1474
233.375	168
233.440	1649
233.506	3860
233.571	4810
233.636	1773
233.701	651
233.766	1387
233.832	1981
233.897	851
233.962	-256
234.027	3349
234.092	1046
234.157	1190
234.222	724
234.288	1203
234.353	2680
234.418	3997
234.483	3116
234.548	2552
234.613	1649
234.678	1507
234.743	1144
234.808	5279
234.873	2681
234.938	2551
235.004	869
235.069	1845
235.134	1176
235.199	2022
235.264	1803
235.329	-69
235.394	2870
235.459	1963
235.524	1138
235.589	1631
235.654	1018
235.719	524
235.784	1607
235.849	1392
235.913	2378
235.978	1945
236.043	3135
236.108	846
236.173	1399
236.238	2919
236.303	1663
236.368	794
236.433	3041
236.498	3269
236.563	4794
236.627	7626
236.692	20481
236.757	20728
236.822	10167
236.887	5705
236.952	6630
237.017	4144
237.081	5798
237.146	5949
237.211	13365
237.276	21263
237.341	26893
237.405	18173
237.470	10416
237.535	7003
237.600	4665
237.664	2981
237.729	2654
237.794	2906
237.859	9019
237.923	5433
237.988	3269
238.053	3316
238.118	2459
238.182	5043
238.247	6538
238.312	1889
238.376	2529
238.441	568
238.506	3288
238.570	516
238.635	2506
238.700	1696
238.764	1441
238.829	2415
238.893	2668
238.958	2713
239.023	2503
239.087	1184
239.152	2074
239.216	746
239.281	1937
239.346	2252
239.410	1724
239.475	1452
239.539	4767
239.604	2019
239.668	1707
239.733	811
239.797	1591
239.862	3415
239.926	4596
239.991	2138
240.055	1565
240.120	1251
240.184	1186
240.249	850
240.313	1035
240.378	1125
240.442	2501
240.507	4961
240.571	1752
240.635	1888
240.700	2088
240.764	1143
240.829	1295
240.893	332
240.957	708
241.022	2592
241.086	4554
241.151	1231
241.215	1057
241.279	2223
241.344	2150
241.408	2386
241.472	1103
241.537	2918
241.601	2735
241.665	940
241.730	827
241.794	2566
241.858	1210
241.922	1413
241.987	1904
242.051	1488
242.115	1042
242.179	1788
242.244	1080
242.308	2563
242.372	2340
242.436	1336
242.501	1993
242.565	372
242.629	1236
242.693	1868
242.757	570
242.822	1158
242.886	1767
242.950	1943
243.014	1306
243.078	2042
243.142	2050
243.206	1158
243.271	2123
243.335	1809
243.399	3551
243.463	8419
243.527	23482
243.591	9075
243.655	3741
243.719	1526
243.783	3151
243.847	3443
243.911	5925
243.975	4157
244.040	3305
244.104	3422
244.168	1887
244.232	2179
244.296	4022
244.360	4574
244.424	2009
244.488	1528
244.552	1912
244.615	11
244.679	1894
244.743	1994
244.807	1362
244.871	1337
244.935	2008
244.999	771
245.063	1069
245.127	3003
245.191	3135
245.255	2635
245.319	2646
245.383	1453
245.446	3013
245.510	1200
245.574	2165
245.638	2151
245.702	265
245.766	4810
245.829	4223
245.893	1693
245.957	1349
246.021	3403
246.085	1915
246.149	1829
246.212	6254
246.276	8756
246.340	4093
246.404	2708
246.467	3631
246.531	2316
246.595	3973
246.659	2659
246.722	1766
246.786	2515
246.850	3475
246.913	4051
246.977	1697
247.041	1831
247.104	2554
247.168	2738
247.232	5731
247.295	11027
247.359	6478
247.423	2751
247.486	4895
247.550	4675
247.614	2250
247.677	3316
247.741	2821
247.804	2093
247.868	3084
247.932	4094
247.995	12092
248.059	4921
248.122	2197
248.186	4465
248.249	5499
248.313	17070
248.376	21151
248.440	12699
248.503	5092
248.567	4758
248.630	4319
248.694	7720
248.757	10613
248.821	19567
248.884	15105
248.948	10270
249.011	16130
249.075	21326
249.138	20723
249.202	9072
249.265	4997
249.328	5598
249.392	3644
249.455	4546
249.519	2932
249.582	3742
249.645	6727
249.709	6444
249.772	5917
249.835	4707
249.899	3439
249.962	3650
250.025	3357
250.089	6813
250.152	11260
250.215	5763
250.279	3582
250.342	4042
250.405	4220
250.468	2756
250.532	4622
250.595	8393
250.658	19932
250.721	37586
250.785	15867
250.848	9476
250.911	5007
250.974	4527
251.038	5756
251.101	12043
251.164	6774
251.227	6385
251.290	6810
251.354	10952
251.417	28787
251.480	33501
251.543	24441
251.606	49161
251.669	44720
251.732	21303
251.795	17622
251.859	18749
251.922	33855
251.985	25284
252.048	10617
252.111	7763
252.174	6889
252.237	11145
252.300	24132
252.363	24275
252.426	43547
252.489	22203
252.552	10738
252.615	6934
252.678	8644
252.741	17647
252.804	22807
252.867	45058
252.930	31636
252.993	16351
253.056	9648
253.119	6109
253.182	5076
253.245	8290
253.308	7353
253.371	5621
253.434	5657
253.497	5423
253.559	10548
253.622	7521
253.685	7382
253.748	8711
253.811	4625
253.874	5294
253.937	4786
254.000	4892
254.062	6226
254.125	12160
254.188	9524
254.251	8265
254.314	3980
254.376	5919
254.439	8415
254.502	6406
254.565	6498
254.628	14813
254.690	7581
254.753	3962
254.816	3416
254.878	3701
254.941	7100
255.004	9271
255.067	3096
255.129	3712
255.192	2933
255.255	1797
255.317	2930
255.380	1890
255.443	1635
255.505	1745
255.568	375
255.631	1876
255.693	1931
255.756	1310
255.819	2275
255.881	1063
255.944	1938
256.006	1303
256.069	1336
256.132	1441
256.194	1964
256.257	4193
256.319	3451
256.382	2144
256.444	3124
256.507	2597
256.569	1919
256.632	3592
256.694	5217
256.757	13860
256.819	38633
256.882	21956
256.944	8964
257.007	5764
257.069	4767
257.132	3220
257.194	4240
257.257	3823
257.319	3953
257.381	5059
257.444	11808
257.506	37120
257.569	48450
257.631	21142
257.693	11481
257.756	5777
257.818	4086
257.880	3489
257.943	3324
258.005	2563
258.067	2453
258.130	2452
258.192	2572
258.254	4230
258.317	3571
258.379	3028
258.441	4628
258.503	6435
258.566	3977
258.628	7405
258.690	1972
258.753	3478
258.815	4678
258.877	3010
258.939	2904
259.001	2683
259.064	1928
259.126	2582
259.188	3029
259.250	2743
259.312	2134
259.375	2920
259.437	3353
259.499	2107
259.561	1412
259.623	2726
259.685	1536
259.747	2229
259.809	5151
259.872	9083
259.934	12254
259.996	13326
260.058	5562
260.120	1858
260.182	1486
260.244	1401
260.306	1369
260.368	2084
260.430	1101
260.492	2659
260.554	4401
260.616	2896
260.678	6493
260.740	10286
260.802	2445
260.864	2780
260.926	1035
260.988	2092
261.050	2564
261.112	3376
261.174	7718
261.236	7822
261.298	3198
261.359	3706
261.421	6256
261.483	1811
261.545	3059
261.607	722
261.669	1740
261.731	2617
261.793	6993
261.854	3251
261.916	2886
261.978	1928
262.040	2865
262.102	2456
262.164	1766
262.225	2018
262.287	1876
262.349	4922
262.411	4719
262.472	3328
262.534	1949
262.596	4675
262.658	2431
262.719	1491
262.781	3101
262.843	4400
262.904	3288
262.966	3155
263.028	3302
263.090	10715
263.151	30280
263.213	12288
263.275	6822
263.336	3118
263.398	2223
263.459	1749
263.521	2233
263.583	4982
263.644	4057
263.706	2055
263.767	1174
263.829	1265
263.891	1466
263.952	539
264.014	978
264.075	719
264.137	4641
264.198	2974
264.260	1016
264.321	1117
264.383	2715
264.444	6218
264.506	2300
264.567	1425
264.629	3178
264.690	3755
264.752	3524
264.813	2280
264.875	1494
264.936	1580
264.998	963
265.059	1473
265.120	2615
265.182	3343
265.243	19576
265.305	27650
265.366	7886
265.427	4084
265.489	3209
265.550	1183
265.611	2180
265.673	1357
265.734	2340
265.795	2169
265.857	1608
265.918	2065
265.979	7055
266.040	29938
266.102	35388
266.163	11469
266.224	6712
266.286	3817
266.347	1454
266.408	1580
266.469	2054
266.530	2435
266.592	1936
266.653	3912
266.714	5726
266.775	2617
266.836	2264
266.898	1150
266.959	1927
267.020	1973
267.081	2496
267.142	1902
267.203	1008
267.264	1562
267.326	3447
267.387	1235
267.448	1452
267.509	1265
267.570	1609
267.631	1140
267.692	524
267.753	1021
267.814	1230
267.875	3030
267.936	7037
267.997	2565
268.058	3196
268.119	1800
268.180	835
268.241	1335
268.302	1141
268.363	968
268.424	1271
268.485	1716
268.546	-88
268.607	615
268.668	1358
268.729	404
268.790	1657
268.851	2023
268.912	3617
268.972	5269
269.033	3052
269.094	711
269.155	943
269.216	1105
269.277	1377
269.338	1458
269.398	1267
269.459	1616
269.520	2073
269.581	2604
269.642	3384
269.702	2328
269.763	1989
269.824	1572
269.885	1743
269.945	3767
270.006	1875
270.067	817
270.128	583
270.188	624
270.249	736
270.310	1507
270.370	1838
270.431	781
270.492	855
270.553	828
270.613	2967
270.674	6292
270.734	2953
270.795	1400
270.856	2094
270.916	2050
270.977	1191
271.038	2386
271.098	2066
271.159	2503
271.219	3818
271.280	1493
271.340	1494
271.401	1857
271.462	2735
271.522	2580
271.583	2068
271.643	1379
271.704	1743
271.764	3244
271.825	5543
271.885	17571
271.946	25573
272.006	9268
272.066	10190
272.127	19648
272.187	7573
272.248	2966
272.308	3142
272.369	12071
272.429	8545
272.489	4249
272.550	5657
272.610	5952
272.671	4944
272.731	3064
272.791	4819
272.852	3333
272.912	3514
272.972	1769
273.033	1418
273.093	2717
273.153	3271
273.214	3079
273.274	3282
273.334	6732
273.394	19112
273.455	8442
273.515	6726
273.575	16205
273.635	8173
273.696	8779
273.756	17136
273.816	8472
273.876	4345
273.936	5412
273.997	9056
274.057	3726
274.117	3588
274.177	5072
274.237	19177
274.297	20205
274.358	10376
274.418	12872
274.478	11335
274.538	3970
274.598	2646
274.658	6114
274.718	9264
274.778	4617
274.838	2991
274.898	3746
274.958	11034
275.018	15134
275.078	12088
275.138	4816
275.198	2299
275.258	1643
275.318	2285
275.378	4760
275.438	5627
275.498	4037
275.558	5182
275.618	13458
275.678	11893
275.738	6768
275.798	5527
275.858	2911
275.918	1677
275.978	2164
276.038	2291
276.098	2180
276.157	3258
276.217	12105
276.277	6290
276.337	4190
276.397	2171
276.457	2275
276.517	2034
276.576	1584
276.636	1828
276.696	3378
276.756	5981
276.815	7123
276.875	3027
276.935	2620
276.995	3461
277.055	2037
277.114	1656
277.174	3373
277.234	9756
277.293	5136
277.353	3225
277.413	1422
277.472	2073
277.532	2567
277.592	4699
277.651	11295
277.711	25683
277.771	9576
277.830	25485
277.890	25078
277.950	15786
278.009	43447
278.069	20724
278.128	16856
278.188	28170
278.248	12940
278.307	26385
278.367	20109
278.426	5773
278.486	3799
278.545	3562
278.605	2849
278.664	2807
278.724	3669
278.783	6334
278.843	18063
278.902	7394
278.962	4061
279.021	4591
279.081	6742
279.140	6121
279.199	4052
279.259	4269
279.318	6083
279.378	7803
279.437	12341
279.496	33058
279.556	93535
279.615	90664
279.675	31368
279.734	15872
279.793	16815
279.853	23842
279.912	11271
279.971	6885
280.031	5478
280.090	8438
280.149	15889
280.208	18104
280.268	62544
280.327	76711
280.386	23069
280.445	13569
280.505	12666
280.564	7532
280.623	4881
280.682	6100
280.742	10531
280.801	4664
280.860	3267
280.919	2610
280.978	2547
281.037	2268
281.097	2062
281.156	2707
281.215	2334
281.274	2697
281.333	10783
281.392	10438
281.451	2807
281.510	2091
281.569	1689
281.628	1283
281.688	2250
281.747	2226
281.806	2114
281.865	2400
281.924	1567
281.983	2283
282.042	852
282.101	1668
282.160	1898
282.219	1940
282.278	1854
282.337	6372
282.396	5401
282.454	2217
282.513	2635
282.572	9254
282.631	7479
282.690	2115
282.749	2351
282.808	3039
282.867	3286
282.926	3261
282.985	2348
283.043	2446
283.102	2536
283.161	2919
283.220	4426
283.279	12878
283.338	5949
283.396	3214
283.455	2962
283.514	3983
283.573	4641
283.631	4461
283.690	3050
283.749	2658
283.808	5616
283.866	8396
283.925	3379
283.984	4569
284.043	4810
284.101	5577
284.160	5004
284.219	5541
284.277	6026
284.336	7153
284.395	16674
284.453	17308
284.512	9075
284.570	12507
284.629	13057
284.688	13411
284.746	15839
284.805	18895
284.863	24544
284.922	31522
284.981	39874
285.039	56282
285.098	80994
285.156	115041
285.215	108982
285.273	101388
285.332	122663
285.390	98277
285.449	69324
285.507	50006
285.566	35630
285.624	29636
285.683	23346
285.741	19253
285.799	16271
285.858	14724
285.916	12010
285.975	9035
286.033	8555
286.091	7565
286.150	6456
286.208	6512
286.267	6410
286.325	6347
286.383	7787
286.442	6908
286.500	4751
286.558	4449
286.616	3375
286.675	5066
286.733	4819
286.791	3416
286.850	4524
286.908	3823
286.966	7451
287.024	4318
287.083	3232
287.141	2667
287.199	3072
287.257	4209
287.315	3184
287.374	3804
287.432	7936
287.490	6292
287.548	3708
287.606	2108
287.664	2906
287.723	2797
287.781	4405
287.839	3473
287.897	4706
287.955	5212
288.013	7501
288.071	14486
288.129	43373
288.187	117313
288.245	74088
288.303	23683
288.361	13476
288.419	8063
288.477	5831
288.535	5180
288.593	3480
288.651	3545
288.709	2294
288.767	1881
288.825	1805
288.883	2205
288.941	2061
288.999	1932
289.057	1458
289.115	1214
289.173	2078
289.231	1728
289.289	2113
289.346	1097
289.404	2162
289.462	2547
289.520	4119
289.578	2145
289.636	1192
289.694	276
289.751	487
289.809	1725
289.867	936
289.925	2285
289.983	2311
290.040	666
290.098	1111
290.156	1312
290.214	1627
290.271	1152
290.329	1006
290.387	708
290.444	321
290.502	1427
290.560	1292
290.617	150
290.675	675
290.733	135
290.790	1461
290.848	1886
290.906	840
290.963	1356
291.021	1087
291.078	1590
291.136	1257
291.194	3301
291.251	11233
291.309	4393
291.366	1661
291.424	1258
291.481	1178
291.539	1804
291.596	2629
291.654	1042
291.711	1430
291.769	1252
291.826	2947
291.884	2622
291.941	819
291.999	1142
292.056	1994
292.114	2002
292.171	826
292.228	1338
292.286	1110
292.343	2801
292.401	4416
292.458	3417
292.515	2042
292.573	2423
292.630	849
292.687	1862
292.745	2420
292.802	1902
292.859	5368
292.917	11917
292.974	8921
293.031	3056
293.089	1842
293.146	1531
293.203	954
293.260	488
293.318	971
293.375	1938
293.432	1621
293.489	2037
293.546	1343
293.604	2478
293.661	7177
293.718	22808
293.775	12752
293.832	6080
293.889	4337
293.947	2819
294.004	2934
294.061	2592
294.118	4345
294.175	11288
294.232	14180
294.289	8117
294.346	4200
294.403	3659
294.460	2561
294.517	2305
294.574	1237
294.631	1965
294.688	2468
294.745	5045
294.802	19986
294.859	24262
294.916	8979
294.973	3860
295.030	3971
295.087	3736
295.144	1872
295.201	2180
295.258	1811
295.315	2546
295.372	6857
295.429	17895
295.486	9471
295.542	4129
295.599	7301
295.656	13824
295.713	10021
295.770	17344
295.827	7869
295.883	3053
295.940	2454
295.997	3711
296.054	4302
296.111	2529
296.167	2211
296.224	1805
296.281	1732
296.338	1494
296.394	1707
296.451	2344
296.508	6442
296.564	14893
296.621	9866
296.678	17659
296.734	30354
296.791	12709
296.848	5089
296.904	4928
296.961	11047
297.018	18476
297.074	16174
297.131	6431
297.187	4835
297.244	6125
297.301	15582
297.357	35484
297.414	15267
297.470	4726
297.527	3564
297.583	2486
297.640	2321
297.696	1911
297.753	1403
297.809	1471
297.866	541
297.922	1400
297.979	1462
298.035	2034
298.092	3297
298.148	9689
298.204	13235
298.261	5700
298.317	7551
298.374	23453
298.430	17200
298.486	6962
298.543	3994
298.599	3114
298.656	3643
298.712	6767
298.768	17247
298.824	15750
298.881	5194
298.937	3414
298.993	1782
299.050	2681
299.106	2365
299.162	2298
299.218	2964
299.275	1918
299.331	2154
299.387	5072
299.443	17922
299.500	23210
299.556	9757
299.612	3797
299.668	3037
299.724	3594
299.780	3208
299.837	2927
299.893	4998
299.949	14988
300.005	22184
300.061	16430
300.117	28530
300.173	16164
300.229	5497
300.285	5764
300.341	8772
300.397	5495
300.453	2724
300.510	1602
300.566	2823
300.622	3841
300.678	6989
300.734	15355
300.790	16822
300.845	21212
300.901	13282
300.957	15734
301.013	14986
301.069	6087
301.125	3589
301.181	3619
301.237	2026
301.293	1389
301.349	2673
301.405	2239
301.461	1980
301.516	2763
301.572	3087
301.628	5199
301.684	5237
301.740	6111
301.796	12439
301.851	9332
301.907	13986
301.963	15021
302.019	20166
302.074	55346
302.130	63324
302.186	32135
302.242	13031
302.297	7478
302.353	7596
302.409	12706
302.464	13288
302.520	9015
302.576	18671
302.631	26408
302.687	16158
302.743	7125
302.798	3917
302.854	2716
302.910	3605
302.965	4251
303.021	6559
303.076	7496
303.132	8032
303.187	9913
303.243	6081
303.299	2679
303.354	3024
303.410	2898
303.465	2560
303.521	2053
303.576	3198
303.632	3274
303.687	5429
303.743	17956
303.798	18938
303.853	8989
303.909	3830
303.964	3095
304.020	4760
304.075	8749
304.130	6497
304.186	11873
304.241	15026
304.297	12024
304.352	6712
304.358	6396
304.407	3832
304.449	3789
304.463	3778
304.518	3531
304.539	3721
304.573	4014
304.629	4320
304.630	4311
304.684	4210
304.720	9437
304.739	12037
304.794	23406
304.811	20491
304.850	13523
304.902	6743
304.905	6312
304.960	3988
304.992	4254
305.015	4411
305.071	3237
305.083	3148
305.126	2837
305.173	2425
305.181	2370
305.236	2479
305.264	2625
305.292	2777
305.347	2867
305.354	2974
305.402	3703
305.445	3640
305.457	3575
305.512	4766
305.535	4722
305.567	4818
305.622	5269
305.626	5384
305.678	8178
305.716	16811
305.733	19914
305.788	24941
305.807	21627
305.843	16102
305.897	17793
305.898	17791
305.953	20455
305.988	14222
306.008	10822
306.063	6756
306.078	5996
306.118	4362
306.168	3135
306.173	3013
306.228	2981
306.259	2666
306.283	2441
306.338	1607
306.349	1815
306.393	2690
306.440	3071
306.448	3125
306.503	3546
306.530	3605
306.558	4126
306.613	7225
306.620	7864
306.668	12440
306.711	17244
306.723	17774
306.778	16123
306.801	12124
306.833	7819
306.888	4475
306.892	4396
306.943	3534
306.982	2872
306.997	2764
307.052	4261
307.072	4454
307.107	5181
307.162	11883
307.163	11921
307.217	12653
307.253	9169
307.272	7505
307.327	5796
307.343	5503
307.381	5572
307.434	5310
307.436	5342
307.491	7928
307.524	10916
307.546	12197
307.600	15897
307.614	14787
307.655	10083
307.704	6101
307.710	5905
307.765	4951
307.795	5973
307.819	6651
307.874	9063
307.885	9253
307.929	10455
307.975	11697
307.984	12293
308.038	17931
308.065	22437
308.093	35453
308.148	69240
308.156	76331
308.202	107357
308.246	129261
308.257	127680
308.312	83989
308.336	62778
308.366	47307
308.421	28758
308.426	27285
308.475	18172
308.517	13946
308.530	12892
308.585	10664
308.607	10163
308.639	9934
308.694	9592
308.697	9638
308.748	10399
308.787	12193
308.803	12734
308.857	12834
308.877	12838
308.912	13868
308.967	15270
308.967	15343
309.021	22262
309.058	27950
309.076	33915
309.130	56036
309.148	64631
309.185	98057
309.238	153069
309.239	153411
309.293	161754
309.328	156766
309.348	142840
309.402	87218
309.418	71635
309.457	53378
309.508	35831
309.511	35262
309.566	32346
309.598	32201
309.620	34962
309.674	46208
309.688	49477
309.729	48763
309.778	42360
309.783	41509
309.837	30291
309.868	24151
309.892	23644
309.946	25002
309.959	26266
310.001	29375
310.049	31759
310.055	30842
310.109	19686
310.139	13216
310.163	10591
310.218	6457
310.229	5871
310.272	5087
310.319	4913
310.326	4761
310.381	3387
310.409	2821
310.435	2812
310.489	3095
310.499	3160
310.543	3107
310.589	3071
310.598	2986
310.652	2443
310.679	2210
310.706	2258
310.760	2322
310.769	2355
310.814	2347
310.859	2364
310.868	2342
310.923	2032
310.948	2043
310.977	2434
311.031	3083
311.038	3185
311.085	2610
311.128	1883
311.139	1858
311.193	2037
311.218	1990
311.247	1810
311.301	1665
311.308	1641
311.356	1585
311.398	1606
311.410	1565
311.464	1368
311.488	1269
311.518	1446
311.572	1829
311.578	1881
311.626	2212
311.668	2469
311.680	2446
311.734	2271
311.758	2262
311.788	2233
311.842	2085
311.847	2082
311.896	2479
311.937	2830
311.950	2844
312.004	2951
312.027	2998
312.058	2687
312.112	2151
312.117	2106
312.165	1541
312.207	1078
312.297	1152
312.386	1151
312.476	2230
312.566	3571
312.656	2134
312.745	1026
312.835	1574
312.925	1241
313.015	1964
313.104	864
313.194	1734
313.284	1836
313.374	2372
313.463	1638
313.553	1392
313.643	1286
313.732	1063
313.822	498
313.912	2244
314.001	1846
314.091	1361
314.180	1233
314.270	2026
314.360	2134
314.449	1587
314.539	689
314.628	1298
314.718	900
314.808	1490
314.897	1435
314.987	1693
315.076	1230
315.166	2138
315.255	1638
315.345	2161
315.434	858
315.524	1999
315.613	2274
315.703	2354
315.792	2964
315.881	5661
315.971	2149
316.060	4412
316.150	3183
316.239	2557
316.328	1359
316.418	1919
316.507	783
316.597	2605
316.686	1441
316.775	290
316.865	1811
316.954	1720
317.043	358
317.133	1468
317.222	903
317.311	1962
317.400	160
317.490	3746
317.579	1697
317.668	2049
317.757	2263
317.847	5482
317.936	9073
318.025	6469
318.114	2894
318.203	3323
318.293	5565
318.382	9975
318.471	6694
318.560	8535
318.649	6658
318.738	1678
318.828	1942
318.917	2204
319.006	1934
319.095	4942
319.184	10469
319.273	9257
319.362	5332
319.451	2242
319.540	1901
319.629	6252
319.718	7631
319.807	2990
319.896	5930
319.985	13507
320.074	4650
320.163	1113
320.252	2042
320.341	2540
320.430	1769
320.519	4231
320.608	1917
320.697	1931
320.786	1871
320.875	2879
320.964	2862
321.053	6157
321.142	7951
321.230	6968
321.319	5638
321.408	12368
321.497	3794
321.586	5197
321.675	4183
321.764	5306
321.852	3298
321.941	6735
322.030	4334
322.119	5660
322.207	13073
322.296	5105
322.385	2408
322.474	5840
322.562	16239
322.651	6691
322.740	5212
322.829	5923
322.917	3683
323.006	4251
323.095	3804
323.183	2701
323.272	4423
323.361	6606
323.449	8982
323.538	3440
323.626	7181
323.715	2949
323.804	1653
323.892	6689
323.981	4068
324.069	1849
324.158	3316
324.246	2548
324.335	2834
324.424	4690
324.512	1922
324.601	2322
324.689	2594
324.778	2927
324.866	2592
324.954	1322
325.043	1129
325.131	1783
325.220	3140
325.308	2109
325.397	2607
325.485	2120
325.574	563
325.662	1896
325.750	747
325.839	1393
325.927	1061
326.015	1315
326.104	1739
326.192	1721
326.280	823
326.369	1227
326.457	2136
326.545	3303
326.634	1302
326.722	688
326.810	636
326.898	1183
326.987	1322
327.075	3766
327.163	2950
327.251	747
327.340	796
327.428	857
327.516	314
327.604	1102
327.692	835
327.781	791
327.869	699
327.957	893
328.045	1268
328.133	1089
328.221	320
328.309	1483
328.397	1197
328.485	2229
328.574	2089
328.662	9461
328.750	3369
328.838	1556
328.926	374
329.014	381
329.102	2003
329.190	2810
329.278	1916
329.366	1318
329.454	13
329.542	509
329.630	226
329.718	838
329.806	555
329.893	811
329.981	-35
330.069	865
330.157	2293
330.245	7342
330.333	3068
330.421	2250
330.509	2328
330.597	11713
330.684	5282
330.772	2546
330.860	809
330.948	1367
331.036	1253
331.123	65
331.211	3
331.299	1154
331.387	1637
331.475	2566
331.562	760
331.650	194
331.738	346
331.825	438
331.913	319
332.001	-375
332.089	198
332.176	1700
332.264	1271
332.352	1768
332.439	1458
332.527	526
332.614	326
332.702	741
332.790	408
332.877	3150
332.965	5161
333.052	4129
333.140	4932
333.228	12722
333.315	2936
333.403	2192
333.490	2624
333.578	6532
333.665	19908
333.753	8395
333.840	807
333.928	1322
334.015	1872
334.103	5316
334.190	10566
334.278	2965
334.365	1232
334.452	616
334.540	526
334.627	746
334.715	1700
334.802	3379
334.889	10458
334.977	6462
335.064	1438
335.151	760
335.239	1149
335.326	2101
335.413	7116
335.501	6701
335.588	1164
335.675	1362
335.762	949
335.850	1595
335.937	1885
336.024	4976
336.111	9916
336.199	4710
336.286	1456
336.373	905
336.460	181
336.547	1083
336.635	680
336.722	1054
336.809	974
336.896	2095
336.983	4347
337.070	11145
337.157	11273
337.245	7018
337.332	2562
337.419	1033
337.506	599
337.593	1449
337.680	3462
337.767	6954
337.854	2749
337.941	2524
338.028	2547
338.115	-480
338.202	1846
338.289	2740
338.376	5761
338.463	2754
338.550	4167
338.637	4064
338.724	1301
338.811	1688
338.898	563
338.984	398
339.071	-648
339.158	1606
339.245	4075
339.332	1333
339.419	1047
339.506	1132
339.593	-473
339.679	1258
339.766	160
339.853	1687
339.940	3129
340.027	1208
340.113	810
340.200	1898
340.287	975
340.374	2279
340.460	3143
340.547	740
340.634	4001
340.720	12384
340.807	4835
340.894	1726
340.980	1076
341.067	1272
341.154	1553
341.240	2116
341.327	4553
341.414	1670
341.500	600
341.587	1454
341.674	1122
341.760	4279
341.847	3433
341.933	1035
342.020	-43
342.106	1312
342.193	1365
342.279	2956
342.366	1579
342.452	4022
342.539	1406
342.625	5880
342.712	13199
342.798	4166
342.885	1342
342.971	-314
343.058	317
343.144	525
343.230	895
343.317	778
343.403	60
343.490	702
343.576	-350
343.662	1258
343.749	243
343.835	1476
343.921	5348
344.008	36606
344.094	66960
344.180	11846
344.267	4593
344.353	18194
344.439	13264
344.525	6058
344.612	6353
344.698	7379
344.784	3496
344.870	1440
344.957	1031
345.043	1962
345.129	991
345.215	4438
345.301	77
345.387	906
345.474	-270
345.560	-33
345.646	-933
345.732	833
345.818	622
345.904	710
345.990	1268
346.076	997
346.162	563
346.249	909
346.335	1212
346.421	1816
346.507	8411
346.593	25584
346.679	3290
346.765	1986
346.851	1748
346.937	-191
347.023	1403
347.108	2150
347.194	391
347.280	1436
347.366	1966
347.452	8863
347.538	31033
347.624	23016
347.710	14265
347.796	2016
347.882	1567
347.967	1110
348.053	587
348.139	1084
348.225	257
348.311	-282
348.397	608
348.482	1393
348.568	2168
348.654	532
348.740	538
348.825	156
348.911	3821
348.997	16775
349.083	26726
349.168	2840
349.254	1008
349.340	1089
349.425	935
349.511	1357
349.597	1064
349.682	5004
349.768	17163
349.854	6220
349.939	1553
350.025	7032
350.110	17773
350.196	4424
350.282	-160
350.367	1285
350.453	224
350.538	397
350.624	1
350.709	1513
350.795	-607
350.880	158
350.966	876
351.051	652
351.137	-153
351.222	578
351.308	5217
351.393	12720
351.479	1297
351.564	526
351.649	1200
351.735	389
351.820	-19
351.906	662
351.991	1077
352.076	10154
352.162	11546
352.247	1999
352.332	972
352.418	2544
352.503	5006
352.588	23136
352.673	13018
352.759	2568
352.844	461
352.929	1288
353.014	1047
353.100	1847
353.185	1825
353.270	3608
353.355	3691
353.441	1446
353.526	1510
353.611	2995
353.696	3455
353.781	3245
353.866	474
353.952	2824
354.037	4084
354.122	8735
354.207	6778
354.292	2027
354.377	1403
354.462	2243
354.547	1966
354.632	2507
354.717	2113
354.802	1197
354.887	1005
354.972	1537
355.057	579
355.142	1002
355.227	1492
355.312	3066
355.397	6908
355.482	15469
355.567	5403
355.652	6622
355.737	6467
355.822	22002
355.907	14235
355.991	3428
356.076	2048
356.161	1956
356.246	2588
356.331	2348
356.416	6291
356.501	39587
356.585	30092
356.670	4620
356.755	5340
356.840	6343
356.924	27620
357.009	79334
357.094	25323
357.179	6452
357.263	4034
357.348	6058
357.433	4333
357.517	5157
357.602	4824
357.687	4494
357.771	5861
357.856	8822
357.941	8454
358.025	26590
358.110	85516
358.195	33461
358.279	6919
358.364	6218
358.448	17344
358.533	38394
358.617	25035
358.702	27478
358.787	9608
358.871	6661
358.956	4950
359.040	2555
359.125	1348
359.209	1976
359.294	3831
359.378	5166
359.462	3372
359.547	1714
359.631	752
359.716	-279
359.800	-206
359.885	1720
359.969	756
360.053	1792
360.138	543
360.222	2277
360.306	3407
360.391	2242
360.475	5451
360.559	9573
360.644	11678
360.728	7153
360.812	21304
360.896	50624
360.981	15029
361.065	5391
361.149	2322
361.233	1639
361.318	788
361.402	1440
361.486	1678
361.570	1586
361.654	1978
361.739	6729
361.823	34761
361.907	47551
361.991	6937
362.075	3782
362.159	6715
362.243	6078
362.327	2934
362.411	4149
362.495	2432
362.580	1549
362.664	463
362.748	1131
362.832	466
362.916	1202
363.000	10700
363.084	36875
363.168	52805
363.252	10101
363.336	3997
363.420	4713
363.503	10790
363.587	8248
363.671	2245
363.755	2058
363.839	4602
363.923	1194
364.007	4856
364.091	3506
364.175	4202
364.258	16719
364.342	9018
364.426	11788
364.510	4432
364.594	6022
364.677	10829
364.761	46452
364.845	26909
364.929	7668
365.013	5803
365.096	5788
365.180	4660
365.264	6169
365.347	15207
365.431	4848
365.515	70
365.598	227
365.682	2444
365.766	688
365.849	1708
365.933	775
366.017	2988
366.100	-562
366.184	-916
366.267	835
366.351	183
366.435	613
366.518	-681
366.602	803
366.685	1015
366.769	794
366.852	1473
366.936	3894
367.019	1388
367.103	41
367.186	1643
367.270	-135
367.353	-755
367.436	1209
367.520	-610
367.603	1821
367.687	893
367.770	4540
367.853	3446
367.937	14533
368.020	20467
368.104	2710
368.187	3781
368.270	5260
368.353	4400
368.437	3939
368.520	4308
368.603	5308
368.687	14696
368.770	25596
368.853	4162
368.936	4559
369.020	3063
369.103	760
369.186	-252
369.269	895
369.352	3441
369.436	3443
369.519	1902
369.602	-433
369.685	2271
369.768	139
369.851	53
369.934	605
370.018	1034
370.101	2984
370.184	3598
370.267	1997
370.350	4344
370.433	6895
370.516	24389
370.599	24485
370.682	4526
370.765	14214
370.848	18023
370.931	31397
371.014	9089
371.097	955
371.180	2023
371.263	1920
371.346	-495
371.429	1735
371.511	684
371.594	2964
371.677	3968
371.760	4629
371.843	6205
371.926	36588
372.009	69125
372.091	22046
372.174	15474
372.257	34364
372.340	10626
372.423	6706
372.505	6309
372.588	2992
372.671	12638
372.754	32386
372.836	12857
372.919	6905
373.002	8792
373.085	3736
373.167	6022
373.250	15627
373.332	33634
373.415	49726
373.498	87615
373.580	29940
373.663	44709
373.746	52891
373.828	9886
373.911	4914
373.993	3352
374.076	9098
374.159	5900
374.241	8709
374.324	26407
374.406	16259
374.489	30744
374.571	76396
374.654	25031
374.736	15648
374.819	48552
374.901	68448
374.983	59193
375.066	8926
375.148	2192
375.231	7759
375.313	11352
375.395	3811
375.478	509
375.560	1419
375.643	2300
375.725	15104
375.807	55625
375.890	31899
375.972	4872
376.054	4702
376.136	3977
376.219	2484
376.301	18611
376.383	45518
376.465	14016
376.548	8529
376.630	13550
376.712	40456
376.794	13921
376.877	1287
376.959	-386
377.041	1645
377.123	478
377.205	1114
377.287	-436
377.369	1692
377.452	425
377.534	190
377.616	454
377.698	-120
377.780	-168
377.862	1138
377.944	1364
378.026	-803
378.108	323
378.190	422
378.272	492
378.354	-135
378.436	-382
378.518	431
378.600	4158
378.682	6228
378.764	18354
378.846	12529
378.928	2463
379.010	3751
379.091	2289
379.173	783
379.255	123
379.337	2255
379.419	9768
379.501	28514
379.583	7376
379.664	1619
379.746	4944
379.828	19718
379.910	24991
379.991	20263
380.073	1611
380.155	1349
380.237	1128
380.318	1130
380.400	601
380.482	3637
380.564	4421
380.645	3942
380.727	3457
380.809	3486
380.890	1176
380.972	831
381.053	536
381.135	2981
381.217	6643
381.298	20262
381.380	7589
381.461	10192
381.543	43908
381.624	45555
381.706	7454
381.787	4368
381.869	6479
381.951	22753
382.032	71139
382.113	39704
382.195	6724
382.276	8086
382.358	16101
382.439	40314
382.521	46990
382.602	67414
382.684	36144
382.765	69207
382.846	108790
382.928	170470
383.009	91462
383.090	95051
383.172	256322
383.253	285668
383.334	100580
383.416	76891
383.497	43538
383.578	39377
383.659	84000
383.741	238466
383.822	386717
383.903	197398
383.984	74435
384.066	81466
384.147	42353
384.228	13607
384.309	9302
384.390	7298
384.471	5788
384.553	5990
384.634	5534
384.715	6747
384.796	4591
384.877	6576
384.958	20970
385.039	20065
385.120	6807
385.201	4572
385.282	3460
385.363	4608
385.444	5781
385.525	12091
385.606	32748
385.687	24413
385.768	4567
385.849	7110
385.930	36911
386.011	57537
386.092	11714
386.173	3378
386.254	2147
386.335	3559
386.416	2772
386.496	12456
386.577	17029
386.658	3823
386.739	1645
386.820	2559
386.901	181
386.981	1941
387.062	1299
387.143	4138
387.224	18135
387.304	13778
387.385	4598
387.466	763
387.547	2480
387.627	1495
387.708	8010
387.789	36147
387.869	38636
387.950	8546
388.031	982
388.111	-842
388.192	2266
388.273	3230
388.353	1370
388.434	1108
388.514	7283
388.595	37401
388.676	41206
388.756	16937
388.837	16202
388.917	9260
388.998	-132
389.078	3612
389.159	6454
389.239	3405
389.320	4554
389.400	548
389.480	8021
389.561	19440
389.641	8343
389.722	2929
389.802	3367
389.883	10243
389.963	25248
390.043	10785
390.124	1168
390.204	7287
390.284	20091
390.365	9866
390.445	11082
390.525	34913
390.605	30667
390.686	8441
390.766	3573
390.846	2639
390.927	1228
391.007	3020
391.087	2164
391.167	1263
391.247	-382
391.328	995
391.408	1611
391.488	1475
391.568	-1023
391.648	1097
391.728	3195
391.808	3299
391.888	2719
391.969	11278
392.049	15676
392.129	5361
392.209	8249
392.289	23583
392.369	9083
392.449	3698
392.529	1710
392.609	3775
392.689	6957
392.769	23168
392.849	15595
392.929	11252
393.009	27134
393.089	17446
393.169	12024
393.248	51450
393.328	203758
393.408	175125
393.488	30618
393.568	13091
393.648	6150
393.728	3524
393.807	2223
393.887	3797
393.967	2973
394.047	4650
394.127	6244
394.206	16814
394.286	65823
394.366	219835
394.446	204741
394.525	53273
394.605	13872
394.685	8688
394.764	9356
394.844	10252
394.924	6372
395.003	2925
395.083	2792
395.163	3320
395.242	2532
395.322	3056
395.402	109
395.481	4423
395.561	5928
395.640	13446
395.720	12267
395.799	15908
395.879	15323
395.958	26738
396.038	98759
396.117	279376
396.197	267885
396.276	86367
396.356	26923
396.435	13866
396.515	9693
396.594	8447
396.673	15096
396.753	65972
396.832	186340
396.912	110633
396.991	21957
397.070	5823
397.150	1485
397.229	2932
397.308	1912
397.388	3410
397.467	1556
397.546	999
397.625	-1099
397.705	2474
397.784	1127
397.863	352
397.942	-447
398.022	-15
398.101	2695
398.180	7644
398.259	1830
398.338	1341
398.417	-246
398.497	-362
398.576	751
398.655	-566
398.734	47
398.813	-396
398.892	3426
398.971	9230
399.050	421
399.129	-706
399.208	200
399.287	5496
399.366	5455
399.445	2223
399.524	458
399.603	12
399.682	1187
399.761	4921
399.840	10863
399.919	5646
399.998	159
400.077	-975
400.156	-1184
400.235	1431
400.313	-942
400.392	-451
400.471	9833
400.550	13502
400.629	1034
400.708	-84
400.786	-321
400.865	1003
400.944	814
401.023	2326
401.102	-1457
401.180	-536
401.259	-1150
401.338	-262
401.416	434
401.495	-74
401.574	351
401.652	-482
401.731	622
401.810	-1343
401.888	-532
401.967	-561
402.046	-771
402.124	754
402.203	-338
402.281	755
402.360	217
402.438	2084
402.517	-1019
402.596	152
402.674	-1028
402.753	-728
402.831	-672
402.910	191
402.988	1498
403.066	7634
403.145	3914
403.223	3631
403.302	5769
403.380	4967
403.459	3082
403.537	711
403.615	-748
403.694	-1496
403.772	-42
403.850	47
403.929	-1315
404.007	-1071
404.085	1789
404.164	775
404.242	2240
404.320	14632
404.398	46216
404.477	44606
404.555	62122
404.633	47758
404.711	32360
404.789	17979
404.868	2425
404.946	654
405.024	-189
405.102	0
405.180	-757
405.258	-2015
405.336	755
405.415	-973
405.493	-191
405.571	1010
405.649	-657
405.727	-1628
405.805	264
405.883	685
405.961	-343
406.039	-568
406.117	-1851
406.195	1823
406.273	12540
406.351	42795
406.429	18260
406.507	888
406.585	-863
406.663	321
406.740	350
406.818	-706
406.896	-1353
406.974	1131
407.052	2523
407.130	26471
407.208	29336
407.285	3840
407.363	-808
407.441	-544
407.519	-900
407.596	609
407.674	2261
407.752	8071
407.830	6326
407.907	1327
407.985	-614
408.063	-197
408.141	-675
408.218	-19
408.296	-1800
408.373	-410
408.451	334
408.529	-508
408.606	-1470
408.684	-616
408.762	-497
408.839	-537
408.917	-1161
408.994	-938
409.072	-1087
409.149	-261
409.227	550
409.304	54
409.382	-931
409.459	-840
409.537	-137
409.614	89
409.692	-321
409.769	-870
409.846	-58
409.924	1272
410.001	-925
410.079	442
410.156	695
410.233	267
410.311	-1538
410.388	-837
410.465	-343
410.543	-558
410.620	-109
410.697	194
410.775	-920
410.852	-1385
410.929	672
411.006	1080
411.083	-748
411.161	2009
411.238	1551
411.315	-457
411.392	-1261
411.469	1496
411.547	189
411.624	-734
411.701	-1651
411.778	381
411.855	679
411.932	-289
412.009	-890
412.086	-397
412.163	-156
412.240	13
412.317	376
412.394	-270
412.471	-62
412.548	-231
412.625	-482
412.702	-137
412.779	723
412.856	834
412.933	-635
413.010	4538
413.087	8160
413.164	11636
413.241	12784
413.318	1962
413.395	1037
413.471	1491
413.548	-521
413.625	309
413.702	-701
413.779	-697
413.855	-1299
413.932	-1344
414.009	-1537
414.086	-1353
414.162	-929
414.239	1156
414.316	8312
414.393	18526
414.469	3774
414.546	-881
414.623	-1432
414.699	-770
414.776	-780
414.853	-696
414.929	-1330
415.006	-743
415.082	-571
415.159	-854
415.236	-941
415.312	-311
415.389	1094
415.465	363
415.542	-902
415.618	-1076
415.695	320
415.771	-535
415.848	-1017
415.924	-560
416.000	-769
416.077	28
416.153	-1948
416.230	-1548
416.306	-1484
416.383	-465
416.459	-441
416.535	-537
416.612	-590
416.688	-160
416.764	-729
416.841	-1413
416.917	-1098
416.993	-83
417.069	-734
417.146	245
417.222	1447
417.298	-395
417.374	-1117
417.451	228
417.527	-393
417.603	-379
417.679	-780
417.755	530
417.831	-1442
417.908	-846
417.984	-1652
418.060	-1510
418.136	479
418.212	1430
418.288	-491
418.364	-174
418.440	-962
418.516	-326
418.592	-388
418.668	2167
418.744	3395
418.820	1914
418.896	-1160
418.972	-1562
419.048	-674
419.124	2082
419.200	-262
419.276	-1141
419.352	-1428
419.428	-544
419.504	-897
419.579	147
419.655	-860
419.731	-381
419.807	2219
419.883	5361
419.959	2061
420.034	-130
420.110	2372
420.186	11918
420.262	6822
420.337	248
420.413	-669
420.489	-731
420.565	73
420.640	-1480
420.716	-448
420.792	-1807
420.867	-674
420.943	-232
421.019	-192
421.094	-1283
421.170	-1050
421.245	-1374
421.321	-1024
421.397	-769
421.472	590
421.548	3322
421.623	1918
421.699	294
421.774	-279
421.850	-462
421.925	824
422.001	727
422.076	-573
422.152	116
422.227	1411
422.302	2310
422.378	4163
422.453	7765
422.529	24296
422.604	100353
422.679	178117
422.755	81890
422.830	18260
422.905	5479
422.981	1607
423.056	1762
423.131	560
423.207	-699
423.282	-41
423.357	2213
423.432	769
423.508	1493
423.583	3540
423.658	2655
423.733	-167
423.808	11
423.883	986
423.959	-80
424.034	-1147
424.109	-435
424.184	-1674
424.259	-817
424.334	-1180
424.409	-1065
424.484	-1319
424.559	-641
424.634	-1119
424.709	-401
424.784	-277
424.859	-1377
424.934	393
425.009	7620
425.084	12180
425.159	2063
425.234	-457
425.309	-977
425.384	-194
425.459	-204
425.534	-703
425.609	-976
425.683	-1350
425.758	-430
425.833	-1340
425.908	365
425.983	3643
426.058	12318
426.132	2616
426.207	-906
426.282	432
426.357	-1271
426.431	-1064
426.506	-677
426.581	-1888
426.655	-456
426.730	-1189
426.805	-921
426.879	-1005
426.954	-448
427.029	735
427.103	15138
427.178	34874
427.253	9979
427.327	-472
427.402	-328
427.476	382
427.551	162
427.625	-483
427.700	-961
427.774	-1821
427.849	-540
427.923	-1842
427.998	-1826
428.072	-1822
428.147	1038
428.221	8705
428.296	19837
428.370	7534
428.444	404
428.519	-469
428.593	42
428.667	-184
428.742	1178
428.816	2554
428.890	10991
428.965	13558
429.039	2575
429.113	353
429.188	-721
429.262	-1185
429.336	1410
429.410	4843
429.485	1568
429.559	223
429.633	-686
429.707	-1476
429.781	1073
429.855	11263
429.930	15160
430.004	5044
430.078	7610
430.152	9282
430.226	30687
430.300	23866
430.374	1490
430.448	1204
430.522	3316
430.596	7304
430.670	7536
430.744	31308
430.818	40094
430.892	5694
430.966	-920
431.040	66
431.114	-1430
431.188	-1755
431.262	-1398
431.336	-1708
431.410	773
431.484	1453
431.557	1215
431.631	-1465
431.705	-488
431.779	2788
431.853	15350
431.927	7062
432.000	-295
432.074	-927
432.148	-39
432.222	-2154
432.295	-749
432.369	-1068
432.443	1407
432.516	15358
432.590	34895
432.664	8486
432.737	-33
432.811	-541
432.885	-893
432.958	-818
433.032	-1471
433.106	-1603
433.179	-650
433.253	-1792
433.326	-838
433.400	-2387
433.473	-1128
433.547	-2140
433.620	-852
433.694	-141
433.767	-474
433.841	-1441
433.914	-439
433.988	-1631
434.061	-1150
434.134	-749
434.208	-992
434.281	-1773
434.355	-1874
434.428	-2150
434.501	-1448
434.575	-2075
434.648	-1097
434.721	-1650
434.795	-1317
434.868	-1993
434.941	-1416
435.014	-1171
435.088	29
435.161	412
435.234	1394
435.307	347
435.381	163
435.454	-1489
435.527	-803
435.600	-1723
435.673	-278
435.746	-1092
435.819	-1360
435.892	-1265
435.966	-1288
436.039	-1550
436.112	-696
436.185	-2447
436.258	-542
436.331	-2626
436.404	-927
436.477	-1682
436.550	-767
436.623	-1214
436.696	-1491
436.769	-1584
436.842	-1290
436.915	-1222
436.987	-1066
437.060	-1477
437.133	-1461
437.206	-2284
437.279	-920
437.352	-1587
437.425	-808
437.498	-1181
437.570	483
437.643	-314
437.716	-752
437.789	-1393
437.861	943
437.934	3576
438.007	1055
438.080	-1126
438.152	-376
438.225	1561
438.298	23230
438.370	51497
438.443	17985
438.516	3187
438.588	-389
438.661	-1397
438.734	-272
438.806	-1496
438.879	-576
438.951	-108
439.024	1471
439.096	-1883
439.169	-1333
439.241	-1462
439.314	-1306
439.386	-1832
439.459	-20
439.531	484
439.604	-959
439.676	-1029
439.749	-877
439.821	-2012
439.893	-1001
439.966	-713
440.038	-515
440.110	-1047
440.183	-371
440.255	52
440.327	1552
440.400	7395
440.472	32586
440.544	15424
440.617	1366
440.689	1445
440.761	2088
440.833	2885
440.905	1458
440.978	-1933
441.050	-1277
441.122	-1336
441.194	-1674
441.266	-1921
441.338	-1876
441.411	421
441.483	9343
441.555	10980
441.627	844
441.699	-1120
441.771	-1093
441.843	-1201
441.915	-1502
441.987	-1808
442.059	-1211
442.131	-1032
442.203	-158
442.275	-773
442.347	-763
442.419	-355
442.491	5476
442.563	11727
442.635	4379
442.706	750
442.778	1784
442.850	-1696
442.922	-1307
442.994	-1347
443.066	-551
443.137	782
443.209	2120
443.281	677
443.353	1248
443.425	9257
443.496	29555
443.568	22253
443.640	5151
443.711	222
443.783	-337
443.855	-626
443.926	-1020
443.998	-1183
444.070	-530
444.141	-818
444.213	87
444.285	456
444.356	-310
444.428	-733
444.499	-1008
444.571	-1719
444.642	-1016
444.714	-1277
444.785	112
444.857	-504
444.928	1413
445.000	-275
445.071	75
445.143	-33
445.214	697
445.285	939
445.357	5131
445.428	24093
445.500	46245
445.571	23038
445.642	9683
445.714	2972
445.785	2363
445.856	-578
445.928	45
445.999	654
446.070	333
446.141	-191
446.213	520
446.284	-1737
446.355	-746
446.426	-1150
446.497	-1003
446.569	-845
446.640	-260
446.711	206
446.782	-959
446.853	-1040
446.924	-99
446.995	-1176
447.066	-651
447.138	-589
447.209	-169
447.280	-2115
447.351	-1530
447.422	-1209
447.493	-1078
447.564	-981
447.635	68
447.706	-1174
447.777	-859
447.847	-1372
447.918	-1222
447.989	-1100
448.060	-853
448.131	109
448.202	305
448.273	-525
448.344	-249
448.414	-1772
448.485	-734
448.556	-693
448.627	-976
448.698	34
448.768	-1100
448.839	-804
448.910	-706
448.981	202
449.051	202
449.122	-1469
449.193	-1334
449.263	-1352
449.334	-527
449.405	402
449.475	1149
449.546	-561
449.616	44
449.687	-181
449.758	-346
449.828	-1382
449.899	-919
449.969	-1627
450.040	-846
450.110	-904
450.181	-1011
450.251	-1518
450.322	-1592
450.392	-682
450.463	-1205
450.533	-1460
450.604	1747
450.674	425
450.744	-821
450.815	-1930
450.885	-291
450.955	-1700
451.026	-1176
451.096	-2308
451.166	-897
451.237	-720
451.307	1068
451.377	-108
451.447	-1297
451.518	-1363
451.588	-1561
451.658	-1525
451.728	-1047
451.799	1022
451.869	1611
451.939	-1313
452.009	-950
452.079	-1178
452.149	-710
452.219	-552
452.289	2258
452.360	2843
452.430	1441
452.500	777
452.570	1201
452.640	107
452.710	1400
452.780	908
452.850	2693
452.920	1703
452.990	-18
453.060	-1137
453.129	-182
453.199	-590
453.269	2865
453.339	7260
453.409	11693
453.479	10706
453.549	14483
453.619	15401
453.688	6352
453.758	88
453.828	127
453.898	-1449
453.968	-666
454.037	-535
454.087	-1071
454.107	-1325
454.168	-692
454.177	-636
454.247	-972
454.249	-976
454.316	-1962
454.330	-1584
454.386	-283
454.411	-38
454.456	-156
454.492	763
454.525	1527
454.574	712
454.595	355
454.655	-21
454.665	-90
454.734	694
454.736	800
454.804	1892
454.817	2539
454.873	3792
454.898	4001
454.943	4063
454.979	3025
455.013	2379
455.060	3773
455.082	5010
455.141	7173
455.152	8885
455.221	29335
455.222	30422
455.291	76944
455.303	95999
455.360	152626
455.384	192115
455.430	224833
455.465	162524
455.499	111878
455.546	51437
455.569	27343
455.627	13326
455.638	11071
455.707	4661
455.708	4722
455.777	3869
455.789	3687
455.846	2643
455.869	2440
455.916	2049
455.950	1883
455.985	1549
456.031	1512
456.054	1464
456.112	1238
456.124	1179
456.193	1286
456.193	1249
456.262	922
456.274	1157
456.332	1991
456.355	1674
456.401	830
456.436	1135
456.470	1346
456.516	805
456.540	557
456.597	197
456.609	113
456.678	551
456.678	527
456.747	548
456.759	428
456.817	-59
456.840	301
456.886	833
456.920	740
456.955	774
457.001	1351
457.024	1651
457.082	2069
457.093	2127
457.162	3124
457.163	3162
457.232	3374
457.243	3560
457.301	5350
457.324	6459
457.370	7828
457.405	9138
457.439	7839
457.485	3532
457.508	2682
457.566	2129
457.577	2095
457.646	3220
457.647	3252
457.715	4619
457.727	4842
457.784	7740
457.808	9263
457.853	13825
457.889	18287
457.922	20522
457.969	24870
457.991	22812
458.050	13894
458.060	13403
458.129	9516
458.130	9516
458.198	6524
458.211	6076
458.267	4234
458.292	3321
458.336	2975
458.372	2938
458.405	3604
458.453	4769
458.474	5845
458.533	9861
458.543	10209
458.611	13349
458.614	13495
458.680	7913
458.694	6316
458.749	4050
458.775	3489
458.818	3043
458.855	2766
458.887	2832
458.936	2942
458.955	2834
459.016	2848
459.024	2868
459.093	3461
459.097	3492
459.162	3662
459.177	3666
459.230	3874
459.257	4185
459.299	4460
459.338	4645
459.368	5096
459.418	6021
459.437	5551
459.499	3695
459.505	3668
459.574	3456
459.579	3469
459.643	3507
459.659	3580
459.711	3960
459.740	3945
459.780	4309
459.820	4943
459.849	5711
459.900	7494
459.917	7900
459.981	9373
459.986	9206
460.054	7112
460.061	6833
460.123	5806
460.141	5751
460.191	7241
460.222	8041
460.260	8341
460.302	9075
460.328	8796
460.382	7626
460.397	7607
460.462	7710
460.465	7760
460.534	9707
460.543	9866
460.602	21592
460.623	26200
460.671	38971
460.703	49538
460.739	41612
460.783	28358
460.808	22767
460.864	6594
460.876	5745
460.944	4556
460.945	4539
461.013	4890
461.024	4789
461.081	4364
461.104	4800
461.150	4925
461.184	4237
461.218	4241
461.264	4519
461.286	4477
461.345	4274
461.355	4216
461.423	4207
461.425	4211
461.491	4366
461.505	4389
461.559	8032
461.585	9753
461.628	14742
461.665	19169
461.696	19872
461.745	21292
461.764	17815
461.825	6308
461.832	6414
461.901	6356
461.905	6400
461.969	5790
461.985	5659
462.037	5644
462.065	5748
462.105	5989
462.145	6330
462.173	8411
462.225	12013
462.241	12919
462.305	16670
462.310	16148
462.378	7901
462.385	6912
462.446	5507
462.465	5236
462.514	5364
462.545	5439
462.582	5443
462.625	5357
462.650	5465
462.705	5701
462.718	6007
462.785	8033
462.786	8052
462.854	8318
462.865	8397
462.922	9492
462.945	9982
462.990	7080
463.025	4676
463.058	4667
463.104	4575
463.126	4590
463.184	4851
463.194	4866
463.262	4918
463.264	4910
463.330	5267
463.344	5365
463.398	6163
463.424	6470
463.466	6342
463.504	6433
463.533	6743
463.583	7041
463.601	7410
463.663	8628
463.669	8680
463.737	9206
463.743	9249
463.805	13114
463.823	14212
463.873	20220
463.903	23857
463.940	24177
463.982	24776
464.008	19965
464.062	9155
464.076	8663
464.142	6455
464.144	6472
464.211	6461
464.221	6517
464.279	6731
464.301	6739
464.347	6519
464.381	6456
464.414	7388
464.461	8544
464.482	8813
464.540	9518
464.550	9406
464.617	8377
464.620	8331
464.685	9174
464.699	9341
464.753	11746
464.779	12978
464.820	14260
464.859	15258
464.888	14284
464.938	12674
464.956	12901
465.018	13434
465.023	13302
465.091	11338
465.098	11118
465.158	11100
465.177	11151
465.226	11771
465.257	11905
465.293	11756
465.336	11750
465.361	12200
465.416	13038
465.428	13669
465.495	17018
465.496	17105
465.563	25804
465.575	27322
465.631	31193
465.654	32723
465.698	21383
465.734	11930
465.765	11204
465.813	9845
465.833	9759
465.893	9731
465.900	9825
465.968	10455
465.972	10471
466.035	9501
466.052	9250
466.102	10077
466.131	10491
466.170	10434
466.210	10223
466.237	10804
466.290	12186
466.304	11912
466.369	10185
466.372	10232
466.439	11110
466.449	11207
466.506	12240
466.528	12614
466.573	16576
466.607	19456
466.641	26698
466.687	36717
466.708	39614
466.766	47349
466.775	43899
466.842	17273
466.845	15969
466.909	13101
466.925	12398
466.977	12621
467.004	12712
467.044	13885
467.083	15021
467.111	16656
467.163	19599
467.178	20661
467.242	24876
467.245	24944
467.312	25185
467.321	25163
467.379	22053
467.400	20849
467.446	19822
467.480	19003
467.559	17379
467.638	15463
467.717	16158
467.796	17050
467.875	17966
467.955	16648
468.034	24043
468.113	44399
468.192	61087
468.271	18193
468.350	14656
468.429	15969
468.508	16175
468.588	15092
468.667	13979
468.746	15003
468.825	15913
468.904	15232
468.983	21158
469.062	44536
469.141	68497
469.220	27137
469.299	15108
469.378	16552
469.456	22045
469.535	18627
469.614	17673
469.693	18262
469.772	22247
469.851	28559
469.930	23457
470.009	23238
470.088	24133
470.166	25676
470.245	37412
470.324	45182
470.403	33936
470.482	23258
470.560	19719
470.639	17603
470.718	19357
470.797	15917
470.875	17593
470.954	19501
471.033	21278
471.111	13205
471.190	13244
471.269	12915
471.347	12911
471.426	14113
471.505	16248
471.583	17998
471.662	16845
471.740	13903
471.819	14198
471.898	13821
471.976	14844
472.055	15095
472.133	16212
472.212	20008
472.290	19429
472.369	15589
472.447	17619
472.526	26486
472.604	47606
472.683	35362
472.761	15859
472.839	14388
472.918	14199
472.996	14293
473.075	15970
473.153	15229
473.231	13441
473.310	15491
473.388	14802
473.466	14801
473.545	15372
473.623	19346
473.701	18097
473.780	14835
473.858	12505
473.936	15488
474.014	13802
474.093	15341
474.171	18595
474.249	24167
474.327	16537
474.405	11837
474.484	12515
474.562	11702
474.640	12139
474.718	12570
474.796	12138
474.874	11774
474.952	11610
475.030	11895
475.108	10575
475.187	11888
475.265	12125
475.343	14114
475.421	15344
475.499	11939
475.577	14163
475.655	16419
475.733	26067
475.811	39688
475.889	36113
475.966	22899
476.044	12098
476.122	11682
476.200	14092
476.278	11807
476.356	11800
476.434	12419
476.512	12710
476.590	13869
476.667	13638
476.745	11349
476.823	13497
476.901	11700
476.979	11598
477.056	12061
477.134	12602
477.212	12574
477.290	12173
477.367	11609
477.445	11126
477.523	11529
477.601	10260
477.678	11352
477.756	14000
477.834	13689
477.911	10409
477.989	11985
478.066	11418
478.144	12533
478.222	12001
478.299	13583
478.377	12681
478.454	10817
478.532	10544
478.609	11594
478.687	13533
478.764	10614
478.842	11654
478.919	12172
478.997	12096
479.074	10489
479.152	13264
479.229	14856
479.307	10921
479.384	10590
479.461	10603
479.539	11667
479.616	13539
479.694	11659
479.771	12157
479.848	11136
479.926	15596
480.003	15897
480.080	11482
480.157	10234
480.235	10891
480.312	10841
480.389	11906
480.467	16296
480.544	18676
480.621	11723
480.698	11816
480.775	13683
480.853	13290
480.930	11268
481.007	12076
481.084	12400
481.161	14115
481.238	13260
481.315	10281
481.392	10082
481.470	10852
481.547	10035
481.624	10011
481.701	9692
481.778	10800
481.855	11554
481.932	15180
482.009	22733
482.086	15670
482.163	10581
482.240	12099
482.317	13723
482.393	11656
482.470	9609
482.547	11281
482.624	11346
482.701	11313
482.778	10366
482.855	9431
482.932	10016
483.009	10677
483.085	12641
483.162	14512
483.239	13676
483.316	8761
483.393	9996
483.469	10697
483.546	11497
483.623	12468
483.699	10133
483.776	11256
483.853	12089
483.930	16232
484.006	34475
484.083	56297
484.160	37814
484.236	60266
484.313	44612
484.389	32940
484.466	30265
484.543	28199
484.619	28279
484.696	30069
484.772	30816
484.849	31770
484.925	27493
485.002	27614
485.078	30018
485.155	29663
485.231	26568
485.308	24720
485.384	26880
485.461	30623
485.537	41975
485.614	46003
485.690	25317
485.766	24972
485.843	25956
485.919	31741
485.995	31859
486.072	23200
486.148	23235
486.224	23807
486.301	23337
486.377	28472
486.453	29043
486.530	29013
486.606	35756
486.682	37634
486.758	39960
486.835	42632
486.911	36142
486.987	51956
487.063	52951
487.139	64359
487.215	47713
487.292	29605
487.368	26484
487.444	30955
487.520	37329
487.596	33242
487.672	38169
487.748	60120
487.824	72214
487.900	38670
487.976	29253
488.052	29883
488.128	36704
488.204	28178
488.280	24352
488.356	27661
488.432	46153
488.508	61650
488.584	25802
488.660	22444
488.736	24173
488.812	24347
488.888	27593
488.964	34430
489.039	60673
489.115	86356
489.191	50642
489.267	23260
489.343	21320
489.418	20449
489.494	21846
489.570	18441
489.646	22857
489.722	21621
489.797	22808
489.873	40241
489.949	89961
490.024	73387
490.100	22911
490.176	21674
490.251	27617
490.327	32345
490.403	21135
490.478	19471
490.554	16739
490.629	17513
490.705	16570
490.781	19587
490.856	18442
490.932	20555
491.007	19074
491.083	20871
491.158	18872
491.234	23953
491.309	38252
491.385	35459
491.460	18895
491.536	21680
491.611	18752
491.686	19611
491.762	23882
491.837	42185
491.913	61466
491.988	85146
492.063	98761
492.139	34190
492.214	24110
492.289	18246
492.365	18059
492.440	21684
492.515	21113
492.590	23213
492.666	23007
492.741	30843
492.816	41317
492.891	39305
492.967	47673
493.042	59985
493.117	80294
493.192	126100
493.267	363075
493.342	1172644
493.418	1325138
493.493	257889
493.568	63719
493.643	40706
493.718	34282
493.793	33088
493.868	32526
493.943	25347
494.018	21681
494.093	19236
494.168	20129
494.243	19652
494.318	18483
494.393	16742
494.468	16478
494.543	16808
494.618	19566
494.693	19326
494.768	18673
494.842	17643
494.917	15766
494.992	18094
495.067	18942
495.142	18188
495.217	19985
495.292	20420
495.366	21481
495.441	23879
495.516	26496
495.591	33891
495.665	84829
495.740	176820
495.815	69826
495.890	24707
495.964	20349
496.039	26073
496.114	22224
496.188	23957
496.263	23382
496.338	21026
496.412	22055
496.487	24413
496.561	25496
496.636	26403
496.710	22231
496.785	23112
496.860	24143
496.934	21226
497.009	21971
497.083	21904
497.158	23046
497.232	24438
497.307	25840
497.381	21804
497.455	23171
497.530	26406
497.604	20155
497.679	21115
497.753	28395
497.827	30480
497.902	25835
497.976	32132
498.050	76362
498.125	278319
498.199	221474
498.273	34908
498.348	26082
498.422	24836
498.496	24556
498.570	23945
498.645	18077
498.719	17713
498.793	21264
498.867	30895
498.941	39296
499.016	116552
499.090	287389
499.164	70930
499.238	18327
499.312	17456
499.386	21115
499.460	19779
499.534	19056
499.609	24391
499.683	27840
499.757	25508
499.831	55322
499.905	200800
499.979	146263
500.053	31790
500.127	30996
500.201	25277
500.275	19755
500.349	20355
500.422	22017
500.496	28192
500.570	53693
500.644	121212
500.718	189932
500.792	35880
500.866	19233
500.940	24377
501.013	20527
501.087	20722
501.161	30780
501.235	35366
501.309	70037
501.382	179686
501.456	122965
501.530	39292
501.603	59897
501.677	24530
501.751	15408
501.825	19354
501.898	31089
501.972	74671
502.046	39388
502.119	19195
502.193	37618
502.266	78801
502.340	32362
502.413	39539
502.487	64727
502.561	36005
502.634	16613
502.708	16227
502.781	13291
502.855	14403
502.928	12001
503.002	14002
503.075	12695
503.149	13129
503.222	13597
503.295	13747
503.369	15660
503.442	20561
503.516	56597
503.589	125887
503.662	68466
503.736	27432
503.809	61629
503.882	42573
503.956	72729
504.029	52497
504.102	33268
504.175	36799
504.249	17230
504.322	16408
504.395	14586
504.468	12162
504.542	11066
504.615	8969
504.688	10790
504.761	8622
504.834	12657
504.907	14626
504.980	18683
505.053	11616
505.127	13454
505.200	17181
505.273	14287
505.346	10655
505.419	9812
505.492	12611
505.565	8517
505.638	9146
505.711	8497
505.784	8166
505.857	6867
505.930	10600
506.003	7571
506.076	10416
506.149	12212
506.221	12387
506.294	13808
506.367	29806
506.440	92718
506.513	36170
506.586	13101
506.659	9679
506.731	10474
506.804	10382
506.877	13559
506.950	10907
507.022	10649
507.095	10290
507.168	12628
507.241	10098
507.313	8780
507.386	8659
507.459	13127
507.531	9139
507.604	8197
507.677	8719
507.749	6278
507.822	12154
507.894	21132
507.967	26260
508.040	16191
508.112	14950
508.185	14063
508.257	11509
508.330	17214
508.402	12687
508.475	11956
508.547	13327
508.620	13195
508.692	17025
508.765	12515
508.837	10123
508.909	10764
508.982	10905
509.054	11445
509.127	11091
509.199	9702
509.271	9560
509.344	9569
509.416	10965
509.488	9201
509.560	10540
509.633	10335
509.705	13062
509.777	12659
509.849	15498
509.922	12336
509.994	11582
510.066	12157
510.138	12813
510.210	26338
510.283	19871
510.355	17334
510.427	15754
510.499	15341
510.571	13102
510.643	13424
510.715	19917
510.787	15731
510.859	13771
510.931	14024
511.003	18599
511.076	17497
511.148	11981
511.219	13804
511.291	20545
511.363	18711
511.435	14275
511.507	11146
511.579	12779
511.651	13891
511.723	11243
511.795	10218
511.867	12344
511.939	13235
512.010	21732
512.082	16474
512.154	11306
512.226	12454
512.298	19934
512.369	25143
512.441	19603
512.513	18925
512.585	15098
512.656	14604
512.728	16247
512.800	12927
512.871	14966
512.943	13704
513.015	12297
513.086	14237
513.158	14314
513.230	12854
513.301	18101
513.373	18213
513.444	13911
513.516	12882
513.588	12874
513.659	14592
513.731	15927
513.802	13276
513.874	26128
513.945	38059
514.016	15905
514.088	12993
514.159	13657
514.231	17977
514.302	22518
514.374	18019
514.445	16648
514.516	27275
514.588	18094
514.659	15685
514.730	22582
514.802	17975
514.873	12428
514.944	16183
515.016	14949
515.087	15165
515.158	18295
515.229	21691
515.301	10427
515.372	13744
515.443	11620
515.514	13226
515.585	11901
515.656	14555
515.728	14594
515.799	12946
515.870	17343
515.941	19304
516.012	21375
516.083	24923
516.154	22353
516.225	26167
516.296	28463
516.367	25665
516.438	30089
516.509	37019
516.580	60256
516.651	200565
516.722	638314
516.793	231522
516.864	55058
516.935	49973
517.006	56445
517.077	75183
517.148	184743
517.219	743446
517.289	913530
517.360	217477
517.431	59116
517.502	32570
517.573	30653
517.643	26254
517.714	29797
517.785	30608
517.856	32166
517.926	39766
517.997	46028
518.068	56032
518.138	75525
518.209	129772
518.280	486283
518.350	1238195
518.421	540260
518.492	86711
518.562	43373
518.633	31741
518.703	25658
518.774	31782
518.845	43343
518.915	38168
518.986	23027
519.056	24368
519.127	35118
519.197	51152
519.268	104029
519.338	49487
519.408	19864
519.479	23653
519.549	17082
519.620	14432
519.690	11561
519.760	11662
519.831	12275
519.901	11571
519.971	11479
520.042	11176
520.112	13263
520.182	15184
520.253	15169
520.323	12145
520.393	15470
520.463	21864
520.534	14523
520.604	28745
520.674	15644
520.744	15787
520.814	31967
520.885	25987
520.955	35066
521.025	109422
521.095	30107
521.165	12274
521.235	10958
521.305	9910
521.375	10805
521.445	11776
521.515	14111
521.585	15771
521.655	12628
521.725	13911
521.795	12677
521.865	8074
521.935	15338
522.005	10741
522.075	9454
522.145	11009
522.215	10508
522.285	14132
522.355	18916
522.424	31443
522.494	23777
522.564	16235
522.634	30018
522.704	79346
522.774	25766
522.843	10475
522.913	11263
522.983	12562
523.053	9827
523.122	11256
523.192	14226
523.262	44084
523.331	36834
523.401	12188
523.471	9005
523.540	9530
523.610	7328
523.680	7603
523.749	8387
523.819	10250
523.888	8805
523.958	7517
524.027	8577
524.097	8619
524.166	8051
524.236	8921
524.305	10763
524.375	7503
524.444	6193
524.514	10258
524.583	8376
524.653	8823
524.722	10844
524.791	6905
524.861	9418
524.930	5892
524.999	8059
525.069	10854
525.138	8860
525.207	9668
525.277	8699
525.346	8180
525.415	8728
525.484	6938
525.554	8463
525.623	8482
525.692	8544
525.761	8864
525.830	8762
525.900	8854
525.969	12226
526.038	16481
526.107	24641
526.176	64238
526.245	48440
526.314	24799
526.383	42343
526.452	45360
526.522	86304
526.591	82740
526.660	46472
526.729	26713
526.797	24945
526.867	51378
526.935	219138
527.004	239621
527.073	100797
527.142	14524
527.211	10032
527.280	11085
527.349	10446
527.418	5710
527.487	9070
527.555	6151
527.624	6219
527.693	5908
527.762	8907
527.831	5892
527.899	6593
527.968	6490
528.037	5427
528.106	8523
528.174	13692
528.243	10309
528.312	14991
528.380	18686
528.449	6765
528.518	8292
528.586	5039
528.655	6318
528.723	5777
528.792	5110
528.861	5896
528.929	5968
528.998	8265
529.066	7757
529.135	10841
529.203	8628
529.272	11100
529.340	14569
529.409	14321
529.477	11893
529.545	11257
529.614	13918
529.682	14842
529.751	15806
529.819	20078
529.887	16390
529.956	14626
530.024	15013
530.092	12231
530.161	15605
530.229	20717
530.297	18245
530.365	16338
530.434	15213
530.502	14681
530.570	14835
530.638	11817
530.707	13121
530.775	13847
530.843	12106
530.911	13961
530.979	12865
531.047	14774
531.115	12797
531.183	13935
531.252	12391
531.320	12430
531.388	10524
531.456	13600
531.524	12727
531.592	14895
531.660	17807
531.728	14102
531.796	14612
531.864	14159
531.932	13502
532.000	14650
532.067	15729
532.135	17838
532.203	19442
532.271	19448
532.339	26875
532.407	44200
532.475	28968
532.542	21786
532.610	21408
532.678	25666
532.746	76591
532.814	150811
532.881	40923
532.949	17977
533.017	16417
533.084	14811
533.152	14487
533.220	15623
533.287	15189
533.355	15726
533.423	15524
533.490	14210
533.558	15208
533.625	15156
533.693	14606
533.761	14997
533.828	15877
533.896	16428
533.963	24874
534.031	28121
534.098	32876
534.166	20048
534.233	15849
534.300	17343
534.368	17181
534.435	14510
534.503	15096
534.570	15960
534.637	14044
534.705	15026
534.772	13914
534.840	17429
534.907	39427
534.974	39715
535.041	14632
535.109	13484
535.176	10954
535.243	13131
535.310	12597
535.378	11796
535.445	11385
535.512	10632
535.579	11550
535.646	10586
535.714	11304
535.781	14559
535.848	13269
535.915	15411
535.982	16079
536.049	16031
536.116	15498
536.183	12566
536.250	11684
536.317	12547
536.384	13341
536.451	15761
536.518	16021
536.585	12695
536.652	16439
536.719	17817
536.786	14559
536.853	12888
536.920	17078
536.987	23153
537.053	23056
537.120	79085
537.187	55842
537.254	10675
537.321	9615
537.388	10687
537.454	8146
537.521	8338
537.588	8201
537.654	10331
537.721	11029
537.788	10103
537.855	9821
537.921	10273
537.988	8788
538.055	9948
538.121	8268
538.188	9028
538.254	14698
538.321	21547
538.388	12977
538.454	8620
538.521	8432
538.587	8029
538.654	6811
538.720	6857
538.787	7230
538.853	7963
538.920	8631
538.986	10169
539.053	8618
539.119	9071
539.185	8159
539.252	10850
539.318	12810
539.385	11462
539.451	9663
539.517	10651
539.583	11089
539.650	24740
539.716	51604
539.782	14535
539.849	7255
539.915	9004
539.981	8019
540.047	9852
540.114	8761
540.180	11111
540.246	7989
540.312	12900
540.378	21254
540.444	20703
540.510	27191
540.576	61166
540.643	17684
540.709	7314
540.775	8445
540.841	7341
540.907	10995
540.973	16761
541.039	13691
541.105	12887
541.171	8763
541.237	7130
541.303	9473
541.369	11702
541.435	11716
541.500	17923
541.566	10127
541.632	7690
541.698	6687
541.764	9083
541.830	7039
541.896	7394
541.961	8587
542.027	8568
542.093	9237
542.159	11497
542.224	11741
542.290	19583
542.356	29843
542.421	50910
542.487	53850
542.553	26092
542.618	15544
542.684	10631
542.750	10382
542.815	11851
542.881	17012
542.947	54866
543.012	33249
543.078	8506
543.143	6720
543.209	8664
543.274	8143
543.340	10453
543.405	22594
543.471	29535
543.536	9065
543.602	8168
543.667	5809
543.732	9946
543.798	7032
543.863	8191
543.928	6383
543.994	6485
544.059	6180
544.124	7411
544.190	7408
544.255	9119
544.320	8109
544.386	8018
544.451	11446
544.516	11858
544.581	13236
544.646	34777
544.712	47679
544.777	12113
544.842	10518
544.907	11022
544.972	7664
545.037	8738
545.102	10246
545.168	9739
545.233	10274
545.298	11558
545.363	11673
545.428	13521
545.493	21695
545.558	40774
545.623	15975
545.688	9269
545.753	9488
545.818	10102
545.883	10403
545.947	9501
546.012	9970
546.077	8797
546.142	10419
546.207	10089
546.272	11165
546.337	11647
546.401	10369
546.466	10258
546.531	8948
546.596	10543
546.661	9768
546.725	10422
546.790	8460
546.855	9889
546.919	8677
546.984	9871
547.049	9612
547.113	11088
547.178	9480
547.243	12969
547.307	12598
547.372	15367
547.436	14164
547.501	11242
547.565	12516
547.630	14207
547.695	13108
547.759	14158
547.823	12226
547.888	11245
547.952	10751
548.017	12662
548.081	14200
548.146	15994
548.210	13075
548.274	10975
548.339	12209
548.403	12049
548.468	10851
548.532	10607
548.596	11067
548.660	11453
548.725	13368
548.789	13469
548.853	14261
548.917	12820
548.982	15567
549.046	14001
549.110	10288
549.174	10578
549.238	11347
549.303	11749
549.367	13809
549.431	11578
549.495	10587
549.559	10995
549.623	13055
549.687	13981
549.751	18365
549.815	15818
549.879	14854
549.943	13576
550.007	14796
550.071	15122
550.135	17797
550.199	14276
550.263	14576
550.327	15016
550.391	16586
550.455	15056
550.519	14318
550.582	16299
550.646	20324
550.710	20271
550.774	16571
550.838	16235
550.901	15956
550.965	17538
551.029	18243
551.093	21338
551.156	25302
551.220	38799
551.284	35217
551.347	25161
551.411	39380
551.475	35642
551.538	21061
551.602	21056
551.666	21836
551.729	24153
551.793	34104
551.856	68662
551.920	106010
551.983	59907
552.047	31870
552.110	24145
552.174	20178
552.237	18065
552.301	16961
552.364	16653
552.428	17988
552.491	17334
552.554	19522
552.618	20468
552.681	22695
552.745	27445
552.808	49211
552.871	66629
552.934	43088
552.998	34488
553.061	34012
553.124	39228
553.187	44628
553.251	54628
553.314	69303
553.377	104545
553.440	228556
553.503	755585
553.567	968221
553.630	221893
553.693	68792
553.756	41045
553.819	30239
553.882	23491
553.945	20985
554.008	18506
554.071	16223
554.134	16775
554.197	15377
554.260	15738
554.323	17255
554.386	16521
554.449	15315
554.512	14774
554.575	13168
554.638	15088
554.701	14277
554.764	13429
554.827	12590
554.889	11402
554.952	10674
555.015	10367
555.078	10459
555.141	12788
555.203	11628
555.266	11761
555.329	11784
555.391	10209
555.454	12430
555.517	11596
555.580	9707
555.642	9851
555.705	9422
555.768	10450
555.830	9433
555.893	10717
555.955	8899
556.018	9005
556.080	9355
556.143	10171
556.206	9074
556.268	10141
556.330	10535
556.393	10351
556.455	9849
556.518	13442
556.580	11413
556.643	8718
556.705	8652
556.767	8201
556.830	8893
556.892	10146
556.955	13964
557.017	11067
557.079	8200
557.142	8669
557.204	10096
557.266	18963
557.328	13569
557.391	7910
557.453	8268
557.515	7952
557.577	9709
557.639	9742
557.701	7842
557.764	7711
557.826	7258
557.888	8727
557.950	8514
558.012	9251
558.074	11102
558.136	20542
558.198	42115
558.260	16362
558.322	9957
558.384	10920
558.446	11674
558.508	13205
558.570	16487
558.632	26117
558.694	35572
558.756	36824
558.818	105217
558.880	224305
558.942	62693
559.003	46434
559.065	23154
559.127	13304
559.189	12134
559.251	14833
559.312	20621
559.374	48089
559.436	136635
559.498	58558
559.559	13510
559.621	13244
559.683	14557
559.744	24509
559.806	67918
559.868	85026
559.929	19147
559.991	13325
560.052	18083
560.114	41511
560.176	25978
560.237	27473
560.299	37597
560.360	11171
560.422	7741
560.483	6873
560.545	7410
560.606	6429
560.667	6203
560.729	6051
560.790	6364
560.852	7231
560.913	6713
560.974	6083
561.036	6127
561.097	7481
561.158	6746
561.220	7191
561.281	7284
561.342	7899
561.403	8525
561.465	10780
561.526	23603
561.587	29336
561.648	9900
561.709	7919
561.771	8380
561.832	7694
561.893	7483
561.954	7562
562.015	7814
562.076	7535
562.137	7299
562.198	6964
562.259	6652
562.320	7175
562.381	8280
562.442	11822
562.503	8963
562.564	6828
562.625	7101
562.686	6913
562.747	7396
562.808	7062
562.869	7224
562.930	7629
562.991	7390
563.051	6420
563.112	6564
563.173	6570
563.234	5718
563.294	5838
563.355	6846
563.416	6746
563.477	6409
563.537	6714
563.598	6159
563.659	7000
563.720	7444
563.780	7018
563.841	6656
563.901	6542
563.962	6721
564.023	7300
564.083	6460
564.144	6665
564.204	6687
564.265	7013
564.325	8390
564.386	13310
564.446	10635
564.507	7050
564.567	6762
564.628	6748
564.688	6386
564.749	6350
564.809	7243
564.869	7714
564.930	6945
564.990	6741
565.050	6202
565.111	6067
565.171	6286
565.231	6198
565.292	6707
565.352	5810
565.412	5878
565.472	6522
565.532	6871
565.593	6675
565.653	5403
565.713	6167
565.773	7066
565.833	8626
565.893	9478
565.953	7439
566.013	6220
566.074	6386
566.134	8919
566.194	12266
566.254	11285
566.314	7722
566.374	6366
566.434	6540
566.494	6803
566.554	6758
566.614	7356
566.673	6488
566.733	6710
566.793	7025
566.853	7263
566.913	6537
566.973	6593
567.033	8180
567.092	8007
567.152	7603
567.212	6617
567.272	6649
567.331	6822
567.391	6650
567.451	7634
567.511	9384
567.570	8429
567.630	6363
567.690	5158
567.749	5829
567.809	7081
567.868	7488
567.928	8376
567.988	9997
568.047	9584
568.107	7795
568.166	7845
568.226	8015
568.285	9544
568.345	9555
568.404	8236
568.464	8006
568.523	6695
568.582	8074
568.642	7963
568.701	9599
568.761	9111
568.820	11150
568.879	12063
568.939	12511
568.998	10044
569.057	9184
569.116	7682
569.176	7152
569.235	5889
569.294	6606
569.353	6594
569.413	6157
569.472	6536
569.531	5905
569.590	5441
569.649	6880
569.708	5183
569.767	6664
569.827	9828
569.886	7908
569.945	6409
570.004	6852
570.063	5861
570.122	6327
570.181	6588
570.240	7462
570.299	7282
570.358	9365
570.417	7263
570.475	5876
570.534	6761
570.593	6902
570.652	7130
570.711	7310
570.770	5790
570.829	7231
570.887	6762
570.946	7766
571.005	7214
571.064	6863
571.122	8452
571.181	7931
571.240	6501
571.299	6398
571.357	7113
571.416	6866
571.475	6782
571.533	7007
571.592	6121
571.650	6021
571.709	4815
571.768	5604
571.826	6190
571.885	5721
571.943	5050
572.002	5407
572.060	5600
572.119	5179
572.177	5438
572.236	5442
572.294	4571
572.352	5367
572.411	5222
572.469	4311
572.528	4848
572.586	5302
572.644	7032
572.703	9383
572.761	6868
572.819	5696
572.877	4733
572.936	4725
572.994	4784
573.052	4771
573.110	5335
573.169	5226
573.227	3724
573.285	5015
573.343	4191
573.401	5563
573.459	4735
573.517	4374
573.576	4730
573.634	5579
573.692	5850
573.750	4784
573.808	4085
573.866	4854
573.924	6023
573.982	5865
574.040	3922
574.098	5638
574.155	5052
574.213	4697
574.271	4868
574.329	5562
574.387	4900
574.445	4334
574.503	3855
574.560	3514
574.618	4477
574.676	4051
574.734	3644
574.792	4465
574.849	4727
574.907	4116
574.965	4298
575.022	3938
575.080	3912
575.138	3920
575.195	4501
575.253	4240
575.311	5330
575.368	4781
575.426	3551
575.483	4339
575.541	4584
575.598	3602
575.656	4213
575.713	4690
575.771	3937
575.828	4256
575.886	4869
575.943	6010
576.001	4594
576.058	4088
576.115	4534
576.173	5422
576.230	5387
576.287	6495
576.345	5496
576.402	5164
576.459	4769
576.517	5146
576.574	4648
576.631	5630
576.688	5433
576.746	4329
576.803	4703
576.860	5245
576.917	5626
576.974	5172
577.031	5863
577.089	6019
577.146	6679
577.203	8225
577.260	8916
577.317	9283
577.374	10340
577.431	11512
577.488	13391
577.545	16739
577.602	25524
577.659	41041
577.716	81928
577.773	114588
577.830	60330
577.886	28475
577.943	17177
578.000	12299
578.057	11591
578.114	11150
578.171	10899
578.227	14763
578.284	14136
578.341	13457
578.398	10785
578.454	9052
578.511	8363
578.568	8426
578.625	6263
578.681	5566
578.738	5548
578.794	4767
578.851	4048
578.908	5610
578.964	5337
579.021	5554
579.077	4985
579.134	5607
579.190	4563
579.247	5319
579.303	4968
579.360	5065
579.416	4484
579.473	5772
579.529	4812
579.586	5360
579.642	5788
579.698	6166
579.755	6888
579.811	8129
579.867	10483
579.924	13243
579.980	20664
580.036	26750
580.093	22072
580.149	23860
580.205	24856
580.261	19184
580.317	14905
580.374	13478
580.430	13089
580.486	13694
580.542	20157
580.598	13326
580.619	10889
580.654	6666
580.692	6599
580.710	6584
580.765	7090
580.767	7115
580.823	6298
580.838	6296
580.879	6309
580.911	6000
580.935	5789
580.984	6149
580.991	6213
581.047	7286
581.057	7318
581.103	7462
581.130	7981
581.159	8554
581.203	8978
581.215	9102
581.270	9058
581.276	8937
581.326	7831
581.349	7536
581.382	7104
581.422	6481
581.438	6262
581.494	6183
581.494	6176
581.550	5855
581.567	6022
581.606	6477
581.640	6144
581.661	5911
581.713	7186
581.717	7298
581.773	7034
581.786	7001
581.829	6850
581.859	7024
581.885	7288
581.932	6737
581.940	6616
581.996	6792
582.004	6732
582.052	6421
582.077	6731
582.107	7107
582.150	7757
582.163	7976
582.219	7595
582.223	7660
582.274	8383
582.296	8720
582.330	9379
582.368	10676
582.386	11273
582.441	13514
582.441	13524
582.497	21157
582.514	26725
582.552	39638
582.587	59382
582.608	70877
582.659	36452
582.663	33762
582.719	11481
582.732	10637
582.774	8485
582.805	7878
582.830	7295
582.877	7830
582.885	7945
582.941	8452
582.950	8604
582.996	9191
583.023	9448
583.052	10046
583.095	11106
583.107	11341
583.162	13519
583.168	13509
583.218	13067
583.240	12416
583.273	11496
583.313	10182
583.328	9761
583.384	8814
583.385	8786
583.439	7610
583.458	7231
583.494	6673
583.531	6795
583.549	6857
583.603	6702
583.605	6704
583.660	6153
583.676	6230
583.715	6074
583.748	5982
583.770	6103
583.820	5965
583.825	5918
583.881	6063
583.893	5816
583.936	5171
583.965	5520
583.991	5715
584.038	5514
584.046	5494
584.101	5599
584.110	5645
584.156	5879
584.183	5768
584.211	5607
584.255	5487
584.266	5478
584.321	5809
584.328	5778
584.376	5529
584.400	5616
584.431	5684
584.472	5397
584.486	5308
584.541	6063
584.545	6097
584.596	6227
584.617	6110
584.651	6411
584.689	7231
584.706	7383
584.761	7586
584.762	7589
584.816	7570
584.834	7841
584.871	8347
584.906	8586
584.926	8642
584.978	9005
584.980	9017
585.035	9817
585.051	10375
585.090	12145
585.123	14506
585.145	15973
585.195	21422
585.200	22195
585.254	39308
585.267	48974
585.309	81990
585.340	105235
585.364	117873
585.412	47373
585.419	37204
585.473	13307
585.484	11916
585.528	10976
585.556	11657
585.583	12834
585.628	16143
585.637	17132
585.692	30203
585.700	32394
585.747	41108
585.772	32910
585.801	21709
585.845	11085
585.856	9041
585.910	7472
585.917	7260
585.965	6566
585.989	6729
586.019	6644
586.061	6466
586.074	6479
586.128	7217
586.133	7145
586.183	6177
586.205	6165
586.237	6251
586.277	5803
586.292	5580
586.346	5781
586.349	5801
586.401	6114
586.421	6018
586.455	5643
586.493	5860
586.509	6164
586.564	7174
586.565	7252
586.618	9549
586.637	8760
586.672	7481
586.709	6582
586.727	5922
586.781	5612
586.781	5605
586.835	5434
586.853	5464
586.889	5173
586.925	4643
586.944	4635
586.996	5931
586.998	5939
587.052	5353
587.068	5331
587.106	5640
587.140	5302
587.161	4903
587.212	4995
587.215	5014
587.269	5270
587.284	5254
587.323	5074
587.356	5293
587.377	5548
587.427	5862
587.431	5842
587.485	5626
587.499	5539
587.539	5490
587.571	5647
587.593	5629
587.643	5456
587.648	5501
587.702	6315
587.715	6484
587.755	6464
587.786	6424
587.810	6301
587.858	6453
587.864	6564
587.917	7275
587.930	7568
587.971	8247
588.001	8568
588.025	8515
588.073	8854
588.079	9005
588.133	10037
588.145	10412
588.187	11242
588.217	11775
588.241	12455
588.288	13996
588.295	14174
588.348	16351
588.360	16874
588.402	19346
588.431	20875
588.456	21591
588.503	24005
588.510	24566
588.564	29404
588.575	30834
588.617	35930
588.646	39671
588.671	43571
588.718	53770
588.725	56113
588.778	82123
588.789	89682
588.832	146002
588.861	195512
588.886	270111
588.932	445978
588.939	460216
588.993	523948
589.004	509770
589.047	290017
589.075	163337
589.100	113030
589.147	60726
589.154	57551
589.207	45195
589.218	43328
589.261	41938
589.290	42995
589.314	45426
589.361	54002
589.368	57004
589.421	87713
589.433	96948
589.475	174698
589.504	244041
589.528	312496
589.576	446410
589.582	435216
589.635	221210
589.647	179563
589.689	85112
589.718	40365
589.742	31758
589.790	20384
589.795	19705
589.849	15389
589.861	14756
589.902	12891
589.932	11330
589.955	10453
590.004	8572
590.009	8423
590.062	8007
590.075	7905
590.115	7701
590.146	7561
590.168	7148
590.218	6286
590.222	6253
590.275	6249
590.289	6263
590.328	6304
590.360	6258
590.381	6122
590.431	6003
590.435	5972
590.488	5606
590.503	5577
590.541	5873
590.574	6176
590.594	6148
590.645	6263
590.647	6297
590.700	7765
590.716	8295
590.753	7600
590.787	6224
590.806	5919
590.859	5717
590.859	5687
590.912	4738
590.930	4455
590.965	4899
591.001	5298
591.018	5097
591.071	4688
591.072	4696
591.124	4492
591.143	4450
591.177	4454
591.214	4531
591.230	4780
591.283	5686
591.285	5733
591.336	4746
591.356	4364
591.389	4968
591.427	5670
591.442	5415
591.495	4530
591.498	4486
591.547	4470
591.569	4477
591.600	4332
591.640	4071
591.653	4221
591.706	5101
591.711	5199
591.759	4452
591.782	4121
591.811	4629
591.853	5334
591.864	5232
591.917	4850
591.924	4802
591.969	4869
591.995	4975
592.022	4610
592.066	3979
592.075	4109
592.127	5092
592.137	5292
592.180	4544
592.208	4052
592.233	3850
592.279	3592
592.285	3604
592.338	3909
592.350	3998
592.390	3944
592.421	3956
592.443	4126
592.491	4559
592.495	4547
592.548	4650
592.562	4697
592.600	4518
592.633	4413
592.653	4220
592.704	3758
592.705	3782
592.775	3939
592.846	4358
592.916	3859
592.987	4207
593.058	4351
593.128	3027
593.199	4275
593.270	2992
593.341	3428
593.411	4408
593.482	3641
593.553	4830
593.623	3551
593.694	3705
593.764	3572
593.835	4348
593.906	4039
593.976	4434
594.047	3299
594.117	4610
594.188	4040
594.258	4506
594.329	4250
594.399	4357
594.470	3658
594.540	4755
594.611	3619
594.681	3391
594.751	3912
594.822	4666
594.892	4627
594.963	5478
595.033	3941
595.103	4931
595.174	5075
595.244	5781
595.314	4808
595.384	4258
595.455	4274
595.525	5249
595.595	4409
595.665	5380
595.736	4214
595.806	4846
595.876	4888
595.946	4888
596.016	4252
596.087	5938
596.157	4912
596.227	4638
596.297	6167
596.367	5610
596.437	5402
596.507	7299
596.577	5083
596.647	6237
596.717	4565
596.787	6611
596.857	6317
596.927	8150
596.997	8361
597.067	17942
597.137	33345
597.207	18685
597.277	6371
597.347	6218
597.417	5774
597.487	7379
597.557	5612
597.626	6879
597.696	6306
597.766	7437
597.836	6885
597.906	5917
597.975	5940
598.045	6139
598.115	5861
598.185	6644
598.254	6596
598.324	8117
598.394	6864
598.464	7554
598.533	7622
598.603	7130
598.672	5981
598.742	8371
598.812	7509
598.881	6978
598.951	7839
599.020	8311
599.090	8134
599.159	8782
599.229	8007
599.299	8966
599.368	7822
599.437	10044
599.507	10025
599.576	15769
599.646	30754
599.715	32761
599.785	10901
599.854	8759
599.924	9038
599.993	9305
600.062	8115
600.132	9595
600.201	9151
600.270	10654
600.340	10195
600.409	10698
600.478	9970
600.547	10321
600.617	10830
600.686	10290
600.755	10148
600.824	10067
600.894	9924
600.963	10712
601.032	11627
601.101	10858
601.170	11196
601.239	11701
601.308	11340
601.378	12776
601.447	11487
601.516	11971
601.585	13596
601.654	13388
601.723	14516
601.792	17956
601.861	30490
601.930	47380
601.999	22264
602.068	16585
602.137	15050
602.206	16723
602.275	15591
602.343	15850
602.412	15352
602.481	15479
602.550	15274
602.619	15979
602.688	15790
602.756	15845
602.825	16072
602.894	16411
602.963	15740
603.032	17174
603.100	15550
603.169	16326
603.238	15909
603.307	16421
603.375	15142
603.444	16219
603.513	15250
603.581	17142
603.650	16050
603.719	13656
603.787	12234
603.856	12459
603.924	12615
603.993	13229
604.061	13232
604.130	14132
604.198	13283
604.267	15608
604.335	13851
604.404	14366
604.472	14647
604.541	16047
604.609	14715
604.678	16937
604.746	17601
604.815	17534
604.883	16062
604.951	16999
605.020	15363
605.088	14593
605.156	12995
605.225	13747
605.293	13312
605.361	14438
605.429	13023
605.498	14422
605.566	13349
605.634	14976
605.702	14140
605.771	14083
605.839	15037
605.907	13444
605.975	14545
606.043	15463
606.111	17479
606.180	28981
606.248	55472
606.316	58672
606.384	18197
606.452	11337
606.520	7691
606.588	8578
606.656	5832
606.724	7261
606.792	7093
606.860	6718
606.928	5228
606.996	5679
607.064	4579
607.132	5624
607.200	6282
607.267	6687
607.335	5945
607.403	6787
607.471	4814
607.539	6525
607.607	5811
607.674	5203
607.742	5739
607.810	5186
607.878	5526
607.946	4598
608.013	6287
608.081	5618
608.149	6141
608.216	4881
608.284	7217
608.352	5399
608.419	4033
608.487	7695
608.555	4929
608.622	6761
608.690	5935
608.757	5849
608.825	5523
608.893	6408
608.960	5557
609.028	5661
609.095	6082
609.163	5110
609.230	5194
609.298	5878
609.365	3823
609.432	6288
609.500	6221
609.567	7243
609.635	7129
609.702	7459
609.769	7403
609.837	6739
609.904	6660
609.971	8503
610.039	11822
610.106	17537
610.173	33578
610.241	79893
610.308	110928
610.375	63924
610.442	15938
610.509	9765
610.577	9368
610.644	7110
610.711	7345
610.778	8573
610.845	10787
610.912	18177
610.980	42971
611.047	96139
611.114	37149
611.181	9049
611.248	6566
611.315	8377
611.382	5771
611.449	7333
611.516	6475
611.583	6958
611.650	5885
611.717	6760
611.784	6125
611.851	6969
611.918	8475
611.984	9668
612.051	15850
612.118	32973
612.185	78190
612.252	39858
612.319	9979
612.386	9419
612.452	7190
612.519	7451
612.586	7368
612.653	6671
612.719	7673
612.786	6715
612.853	5722
612.919	5738
612.986	7886
613.053	5848
613.120	5026
613.186	5436
613.253	7601
613.319	6129
613.386	5499
613.453	6642
613.519	7743
613.586	7537
613.652	9872
613.719	9701
613.785	9588
613.852	12528
613.918	18384
613.985	37219
614.051	91659
614.118	258728
614.184	199174
614.250	27928
614.317	12051
614.383	9624
614.449	7599
614.516	7371
614.582	6518
614.648	6521
614.715	5789
614.781	6262
614.847	4733
614.914	5990
614.980	5174
615.046	6789
615.112	5882
615.179	6393
615.245	5625
615.311	6033
615.377	5587
615.443	5714
615.509	5469
615.575	7053
615.642	5155
615.708	7220
615.774	6097
615.840	7791
615.906	9821
615.972	12167
616.038	19764
616.104	44233
616.170	106192
616.236	72785
616.302	17564
616.368	10446
616.434	6506
616.500	8119
616.565	8274
616.631	8728
616.697	7032
616.763	9340
616.829	12292
616.895	21370
616.961	16928
617.026	9177
617.092	5397
617.158	6628
617.224	5836
617.289	5821
617.355	5249
617.421	3679
617.487	5103
617.552	5371
617.618	3865
617.684	4000
617.749	6367
617.815	5181
617.880	4517
617.946	5100
618.012	4264
618.077	4729
618.143	4533
618.208	5539
618.274	5036
618.339	5571
618.405	3564
618.470	6014
618.536	3205
618.601	4287
618.667	3967
618.732	4825
618.798	3631
618.863	5234
618.928	3386
618.994	5203
619.059	5082
619.124	6180
619.190	4908
619.255	4153
619.320	3265
619.386	4882
619.451	2801
619.516	4757
619.581	4199
619.647	3994
619.712	3855
619.777	4233
619.842	3735
619.907	4127
619.972	3886
620.038	3902
620.103	3985
620.168	3769
620.233	4008
620.298	3602
620.363	3397
620.428	4229
620.493	3554
620.558	4839
620.623	3745
620.688	4626
620.753	4123
620.818	4833
620.883	3512
620.948	4511
621.013	4147
621.078	3606
621.143	2836
621.207	6905
621.272	4087
621.337	4481
621.402	4877
621.467	5140
621.532	4848
621.596	4582
621.661	4624
621.726	4682
621.791	4188
621.855	5054
621.920	4958
621.985	5063
622.049	4802
622.114	4899
622.179	4700
622.243	4745
622.308	3836
622.373	7401
622.437	4766
622.502	4277
622.566	4443
622.631	3447
622.695	5989
622.760	4226
622.824	4858
622.889	5794
622.953	4015
623.018	7908
623.082	5924
623.147	6357
623.211	4562
623.276	5235
623.340	3414
623.404	4980
623.469	4738
623.533	5708
623.597	3193
623.662	3842
623.726	3319
623.790	4138
623.854	3637
623.919	4028
623.983	4032
624.047	3998
624.111	3730
624.176	3950
624.240	3595
624.304	6508
624.368	3819
624.432	4425
624.496	3840
624.560	5377
624.625	4074
624.689	5014
624.753	3777
624.817	4525
624.881	3587
624.945	3957
625.009	3415
625.073	3941
625.137	3139
625.201	5522
625.265	4799
625.329	4224
625.393	3298
625.456	3908
625.520	4028
625.584	3295
625.648	3843
625.712	4839
625.776	5583
625.839	6795
625.903	3438
625.967	2741
626.031	4951
626.095	5365
626.158	3868
626.222	2896
626.286	3769
626.349	2223
626.413	1686
626.477	4241
626.540	2768
626.604	1678
626.668	4012
626.731	2554
626.795	1608
626.858	2462
626.922	1074
626.986	2868
627.049	883
627.113	4172
627.176	2984
627.240	3011
627.303	2465
627.366	3139
627.430	2428
627.493	3132
627.557	911
627.620	4230
627.684	2084
627.747	2728
627.810	-206
627.874	2895
627.937	123
628.000	4421
628.064	2359
628.127	507
628.190	2648
628.253	2073
628.317	1162
628.380	1817
628.443	1477
628.506	2517
628.569	1982
628.632	1527
628.696	2169
628.759	1660
628.822	561
628.885	1784
628.948	1916
629.011	1473
629.074	1210
629.137	1014
629.200	140
629.263	3314
629.326	643
629.389	1220
629.452	654
629.515	1689
629.578	873
629.641	2445
629.704	851
629.767	1432
629.830	1960
629.892	2256
629.955	739
630.018	3567
630.081	302
630.144	2805
630.207	-68
630.269	3646
630.332	758
630.395	1519
630.458	1138
630.520	523
630.583	1449
630.646	3077
630.708	941
630.771	1261
630.834	2550
630.896	1203
630.959	499
631.021	1444
631.084	-144
631.146	1856
631.209	1357
631.272	724
631.334	797
631.397	1676
631.459	338
631.522	2249
631.584	215
631.646	1923
631.709	1437
631.771	1162
631.834	484
631.896	1512
631.958	660
632.021	2546
632.083	448
632.145	2295
632.208	853
632.270	2419
632.332	72
632.395	1349
632.457	1855
632.519	476
632.581	2209
632.643	-83
632.706	1393
632.768	236
632.830	1212
632.892	1391
632.954	389
633.016	1904
633.078	1028
633.141	1892
633.203	-155
633.265	1482
633.327	566
633.389	225
633.451	1814
633.513	1556
633.575	1375
633.637	898
633.698	453
633.760	1561
633.822	1424
633.884	2525
633.946	2610
634.008	5385
634.070	11827
634.132	28990
634.193	9531
634.255	3463
634.317	1039
634.379	2417
634.441	1549
634.502	958
634.564	1557
634.626	1401
634.687	954
634.749	1877
634.811	1566
634.873	981
634.934	30
634.996	1347
635.057	-449
635.119	683
635.181	456
635.242	1789
635.304	-1169
635.365	3590
635.427	74
635.488	1165
635.550	624
635.611	2085
635.673	-1881
635.734	1411
635.796	872
635.857	2390
635.918	306
635.980	2089
636.041	-628
636.102	1467
636.164	1127
636.225	3060
636.286	-963
636.348	1772
636.409	458
636.470	1110
636.531	1091
636.593	469
636.654	1148
636.715	1333
636.776	703
636.838	9
636.899	1216
636.960	576
637.021	-292
637.082	374
637.143	273
637.204	532
637.265	-447
637.326	1264
637.387	188
637.448	142
637.509	974
637.570	805
637.631	1918
637.692	20
637.753	86
637.814	964
637.875	319
637.936	1052
637.997	-974
638.058	513
638.119	1136
638.179	774
638.240	-689
638.301	360
638.362	-521
638.423	113
638.483	1535
638.544	-511
638.605	729
638.666	820
638.726	1128
638.787	1926
638.848	-106
638.908	-38
638.969	146
639.030	353
639.090	67
639.151	-359
639.211	1445
639.272	801
639.332	1504
639.393	1595
639.453	-746
639.514	1251
639.574	884
639.635	419
639.695	1265
639.756	1
639.816	255
639.877	1071
639.937	1444
639.997	2666
640.058	-1155
640.118	76
640.178	708
640.239	703
640.299	54
640.359	606
640.420	331
640.480	1310
640.540	380
640.600	541
640.661	1107
640.721	375
640.781	1715
640.841	-44
640.901	1271
640.961	448
641.021	502
641.082	-524
641.142	1246
641.202	1811
641.262	-921
641.322	1276
641.382	-152
641.442	1461
641.502	32
641.562	1695
641.622	-546
641.682	571
641.742	586
641.802	207
641.861	708
641.921	781
641.981	1073
642.041	1596
642.101	128
642.161	-608
642.221	-94
642.280	334
642.340	1060
642.400	-262
642.460	1204
642.519	340
642.579	-171
642.639	1629
642.698	-1907
642.758	2891
642.818	276
642.877	-454
642.937	147
642.997	826
643.056	69
643.116	-498
643.175	1179
643.235	812
643.294	-116
643.354	819
643.414	201
643.473	2204
643.532	-136
643.592	1817
643.651	3254
643.711	8589
643.770	13918
643.830	34341
643.889	65695
643.948	12330
644.008	2243
644.067	1921
644.126	163
644.186	984
644.245	954
644.304	-335
644.363	2215
644.423	-598
644.482	-81
644.541	1582
644.600	-1660
644.659	665
644.719	-683
644.778	2343
644.837	2925
644.896	8473
644.955	15584
645.014	14366
645.073	16661
645.132	2664
645.191	440
645.250	1231
645.309	814
645.368	1715
645.427	1419
645.486	230
645.545	1669
645.604	-231
645.663	181
645.722	31
645.781	118
645.840	1298
645.898	716
645.957	2563
646.016	801
646.075	6454
646.134	11344
646.192	32387
646.251	41217
646.310	4258
646.369	1014
646.427	1291
646.486	-1270
646.545	455
646.603	500
646.662	758
646.721	-4
646.779	979
646.838	-1600
646.896	1419
646.955	803
647.014	1353
647.072	1447
647.131	7636
647.189	1789
647.248	586
647.306	1097
647.365	685
647.423	-1949
647.481	1725
647.540	-1943
647.598	-75
647.657	29
647.715	1065
647.773	-276
647.832	1744
647.890	-575
647.948	295
648.007	1711
648.065	1478
648.123	3342
648.181	10684
648.240	23750
648.298	15962
648.356	1594
648.414	2476
648.472	1014
648.531	944
648.589	-31
648.647	-141
648.705	-337
648.763	857
648.821	-878
648.879	-623
648.937	838
648.995	-147
649.053	591
649.111	2252
649.169	3122
649.227	5782
649.285	11041
649.343	28776
649.401	15839
649.459	15962
649.516	24100
649.574	45753
649.632	125980
649.690	131147
649.748	37720
649.806	56925
649.863	76407
649.921	18574
649.979	5141
650.037	2811
650.094	487
650.152	1855
650.210	247
650.268	1366
650.325	474
650.383	929
650.440	-549
650.498	1098
650.556	37
650.613	-235
650.671	-395
650.728	510
650.786	36
650.843	837
650.901	-2082
650.958	1186
651.016	-511
651.073	-294
651.131	-734
651.188	-45
651.246	-324
651.303	107
651.360	61
651.418	195
651.475	-1116
651.532	-1528
651.590	-125
651.647	-335
651.704	-567
651.762	81
651.819	-704
651.876	17
651.933	-879
651.990	-354
652.048	-1233
652.105	-187
652.162	398
652.219	-251
652.276	322
652.333	479
652.390	-690
652.448	2253
652.505	2838
652.562	6202
652.619	12512
652.676	38464
652.733	30703
652.790	3584
652.847	184
652.904	828
652.961	-1073
653.017	-55
653.074	-341
653.131	-277
653.188	-1512
653.245	-99
653.302	-618
653.359	537
653.415	-582
653.472	-699
653.529	-125
653.586	-994
653.642	-1115
653.699	998
653.756	-969
653.813	-543
653.869	-549
653.926	-933
653.983	-1093
654.039	-89
654.096	-1462
654.152	224
654.209	-2233
654.266	176
654.322	-1041
654.379	435
654.435	-135
654.492	-143
654.548	-451
654.605	-388
654.661	381
654.717	-350
654.774	-1012
654.830	-984
654.887	-962
654.943	-992
655.000	-13
655.056	-607
655.112	-797
655.168	-1221
655.225	-946
655.281	-599
655.337	-471
655.394	-550
655.450	-378
655.506	-75
655.562	-1127
655.618	853
655.675	-1111
655.731	135
655.787	-1144
655.843	1254
655.899	-1124
655.955	310
656.011	328
656.067	-691
656.123	360
656.179	133
656.235	1354
656.291	-976
656.347	845
656.403	-707
656.459	-433
656.515	459
656.571	-924
656.627	-71
656.683	-1531
656.739	-43
656.795	-1089
656.850	66
656.906	460
656.962	609
657.018	-1573
657.074	-624
657.129	-295
657.185	-459
657.241	-690
657.297	586
657.352	-1188
657.408	-728
657.464	-337
657.519	-171
657.575	-1378
657.630	-230
657.686	-1363
657.742	-857
657.797	-1391
657.853	-665
657.908	-370
657.964	-1348
658.019	-736
658.075	162
658.130	-397
658.186	-1303
658.241	-291
658.297	-1681
658.352	-838
658.407	377
658.463	-1382
658.518	-336
658.573	-543
658.629	-881
658.684	-1117
658.739	48
658.795	-1230
658.850	-90
658.905	-386
658.960	200
659.016	-147
659.071	-333
659.126	-1087
659.181	-452
659.236	2367
659.291	3641
659.346	3063
659.401	7214
659.457	17269
659.512	29787
659.567	7543
659.622	655
659.677	-521
659.732	-1055
659.787	-458
659.842	-960
659.897	-1193
659.952	-466
660.007	-1177
660.061	-272
660.116	-1180
660.171	-787
660.226	-1261
660.281	190
660.336	-751
660.391	358
660.445	-1326
660.500	515
660.555	-1221
660.610	-736
660.664	-836
660.719	-565
660.774	-951
660.828	-473
660.883	-1232
660.938	-93
660.992	-1647
661.047	-50
661.101	-676
661.156	-517
661.211	-2107
661.265	-164
661.320	-1216
661.374	-481
661.429	-1341
661.483	-129
661.538	-1178
661.592	-926
661.647	-1022
661.701	-733
661.755	-799
661.810	-441
661.864	-969
661.919	-1015
661.973	-519
662.027	-294
662.081	-1557
662.136	-915
662.190	-1008
662.244	-191
662.299	-655
662.353	-449
662.407	-1389
662.461	-501
662.515	-543
662.569	-479
662.624	-781
662.678	-194
662.732	-1139
662.786	-542
662.840	-667
662.894	-612
662.948	-799
663.002	-770
663.056	-1164
663.110	-1157
663.164	-1064
663.218	-458
663.272	-1046
663.326	-453
663.380	-2094
663.434	-313
663.488	-1082
663.542	-76
663.595	-512
663.649	-363
663.703	-582
663.757	-213
663.811	-1094
663.864	-1280
663.918	-1172
663.972	-48
664.026	-1401
664.079	-802
664.133	-851
664.187	-486
664.240	-1394
664.294	-85
664.348	96
664.401	-919
664.455	-859
664.508	-398
664.562	-1080
664.615	-768
664.669	-1737
664.722	193
664.776	-1217
664.829	184
664.883	-1284
664.936	-290
664.990	-1227
665.043	-561
665.097	-2061
665.150	777
665.203	-1045
665.257	-915
665.310	-809
665.363	-594
665.417	-366
665.470	59
665.523	-1224
665.576	-346
665.630	-704
665.683	-819
665.736	-1485
665.789	-564
665.842	-1249
665.895	-382
665.949	-809
666.002	-206
666.055	-773
666.108	116
666.161	-1017
666.214	-794
666.267	-683
666.320	-7
666.373	-694
666.426	-925
666.479	-940
666.532	-1036
666.585	-1351
666.638	-601
666.691	-1390
666.744	169
666.796	-1081
666.849	-188
666.902	-209
666.955	-851
667.008	-638
667.060	-428
667.113	-1193
667.166	-268
667.219	-443
667.271	490
667.324	7
667.377	2490
667.430	4605
667.482	13899
667.535	6986
667.587	919
667.640	-1105
667.693	-1089
667.745	-914
667.798	124
667.850	-916
667.903	-673
667.955	-1418
668.008	-483
668.060	-416
668.113	-271
668.165	-484
668.218	-998
668.270	-1306
668.322	351
668.375	-1123
668.427	238
668.479	-991
668.532	-462
668.584	-1279
668.636	-613
668.689	-74
668.741	-867
668.793	-448
668.845	30
668.898	-1111
668.950	164
669.002	-931
669.054	88
669.106	-638
669.158	1340
669.211	1753
669.263	2980
669.315	9941
669.367	15721
669.419	2563
669.471	1550
669.523	365
669.575	1063
669.627	-916
669.679	310
669.731	-57
669.783	607
669.835	142
669.886	159
669.938	733
669.990	515
670.042	-274
670.094	1931
670.146	1285
670.197	2684
670.249	3404
670.301	3832
670.353	6475
670.404	12069
670.456	15945
670.508	26785
670.560	42975
670.611	73032
670.663	128370
670.715	276877
670.766	357924
670.818	134474
670.869	33676
670.921	15428
670.972	8780
671.024	5917
671.075	3698
671.127	3360
671.178	1567
671.230	1569
671.281	1528
671.333	1113
671.384	391
671.436	1282
671.487	361
671.538	146
671.590	959
671.641	429
671.692	1452
671.744	3390
671.795	2043
671.846	623
671.897	-506
671.949	399
672.000	-517
672.051	-117
672.102	-326
672.153	380
672.204	-1260
672.256	117
672.307	-264
672.358	-250
672.409	-1030
672.460	-91
672.511	-956
672.562	-533
672.613	-1380
672.664	-928
672.715	-1327
672.766	-153
672.817	-610
672.868	-212
672.919	-780
672.970	92
673.021	-1458
673.071	-1047
673.122	-1274
673.173	202
673.224	-1455
673.275	-426
673.326	-1007
673.376	-238
673.427	-1296
673.478	-435
673.528	-583
673.579	-588
673.630	-788
673.680	-520
673.731	-1085
673.782	-241
673.832	-1402
673.883	388
673.934	-1230
673.984	-552
674.035	-1207
674.085	-1123
674.136	-1174
674.186	-538
674.237	-948
674.287	-859
674.338	-1128
674.388	-561
674.438	-1219
674.489	-46
674.539	-1236
674.589	-299
674.640	-1725
674.690	-833
674.740	-977
674.791	-864
674.841	-1787
674.891	-418
674.942	-1378
674.992	-946
675.042	-1431
675.092	-1139
675.142	-1123
675.193	-1436
675.243	-1774
675.293	-802
675.343	-1473
675.393	-514
675.443	-710
675.493	-130
675.543	-1090
675.593	-339
675.643	-801
675.693	-461
675.743	-1039
675.793	-1104
675.843	-1168
675.893	-526
675.943	-966
675.993	-1264
676.043	-516
676.093	-268
676.142	-887
676.192	-1174
676.242	-877
676.292	-1030
676.341	-845
676.391	-1064
676.441	-1227
676.491	-383
676.540	-1620
676.590	-20
676.640	-768
676.689	-726
676.739	-2143
676.789	-1154
676.838	-1420
676.888	-1018
676.937	-1425
676.987	-1168
677.037	-1258
677.086	-675
677.136	-672
677.185	-757
677.235	-1163
677.284	-763
677.333	-1331
677.383	-910
677.432	-1849
677.482	-576
677.531	-753
677.580	-849
677.630	-1296
677.679	-424
677.728	-1151
677.778	-235
677.827	-983
677.876	-975
677.925	-1160
677.975	-652
678.024	-1413
678.073	111
678.122	-1512
678.171	-355
678.220	-1538
678.269	-346
678.319	-908
678.368	-1594
678.417	-946
678.466	-384
678.515	-1516
678.564	-1314
678.613	-1375
678.662	-799
678.711	-1566
678.760	-660
678.809	-1320
678.857	-1304
678.906	-1797
678.955	-537
679.004	-921
679.053	-838
679.102	-976
679.151	-650
679.199	-1536
679.248	-161
679.297	-1595
679.346	-619
679.394	-1569
679.443	-1005
679.492	-1080
679.540	-347
679.589	-1034
679.638	-1583
679.686	-1841
679.735	-1132
679.784	-2112
679.832	-990
679.881	-1903
679.929	-67
679.978	-2263
680.026	-1546
680.075	-2389
680.123	-1272
680.172	-1227
680.220	-1488
680.268	-814
680.317	-1808
680.365	-1469
680.414	-988
680.462	-1508
680.510	-169
680.559	-2083
680.607	-1719
680.655	-1091
680.703	-510
680.752	-412
680.800	-1195
680.848	-1923
680.896	-854
680.945	-1349
680.993	-1030
681.041	-2179
681.089	-542
681.137	-1978
681.185	-700
681.233	-1073
681.258	-992
681.281	-924
681.329	-1017
681.377	-1071
681.380	-1076
681.425	-1331
681.473	-883
681.502	-1020
681.521	-1131
681.569	-629
681.617	-1467
681.624	-1412
681.665	-1118
681.713	-1111
681.745	-721
681.761	-551
681.809	-1598
681.857	-314
681.867	-662
681.904	-1896
681.952	166
681.989	-882
682.000	-1202
682.048	-735
682.096	-1655
682.111	-1275
682.143	-527
682.191	-666
682.233	-333
682.239	-289
682.286	-971
682.334	-1179
682.354	-1035
682.382	-842
682.430	-75
682.476	-1190
682.477	-1224
682.525	-355
682.572	-1493
682.598	-1508
682.620	-1537
682.667	-1378
682.715	-88
682.720	-203
682.763	-1347
682.810	-492
682.841	-883
682.857	-1102
682.905	-347
682.952	-226
682.963	-334
683.000	-723
683.047	-258
683.085	165
683.095	278
683.142	-760
683.190	-773
683.206	-808
683.237	-903
683.284	-415
683.328	-961
683.332	-1015
683.379	449
683.426	-590
683.449	-546
683.473	-464
683.521	-1147
683.568	181
683.571	119
683.615	-881
683.662	298
683.693	-145
683.709	-391
683.757	-140
683.804	-267
683.814	-300
683.851	-446
683.898	-259
683.936	-985
683.945	-1172
683.992	-294
684.039	91
684.057	-25
684.086	-199
684.133	307
684.179	-688
684.180	-724
684.227	-69
684.274	500
684.300	458
684.321	384
684.368	-223
684.415	626
684.422	385
684.462	-1067
684.509	274
684.543	-85
684.556	-222
684.603	-4
684.649	-747
684.665	-421
684.696	225
684.743	-265
684.786	215
684.790	257
684.837	-191
684.883	525
684.908	108
684.930	-317
684.977	-21
685.023	-132
685.029	-35
685.070	599
685.117	97
685.150	179
685.164	250
685.210	-336
685.257	528
685.272	570
685.303	610
685.350	551
685.393	52
685.396	5
685.443	200
685.490	418
685.514	576
685.536	734
685.583	44
685.629	339
685.636	251
685.675	-357
685.722	1046
685.757	229
685.768	-26
685.815	621
685.861	-248
685.878	187
685.908	886
685.954	6
686.000	559
686.000	568
686.047	-131
686.093	1216
686.121	1288
686.139	1318
686.185	1086
686.232	389
686.242	548
686.278	1185
686.324	1121
686.363	1405
686.370	1502
686.416	1583
686.463	3529
686.484	3936
686.509	4160
686.555	4242
686.601	3572
686.606	3596
686.647	3039
686.693	1393
686.727	1503
686.739	1719
686.785	1713
686.831	1627
686.848	1414
686.877	1031
686.923	1260
686.969	660
686.969	657
687.015	1191
687.061	876
687.090	1597
687.107	1971
687.153	868
687.199	1097
687.211	900
687.245	452
687.291	1389
687.332	1029
687.336	995
687.382	844
687.428	1042
687.453	1333
687.474	1497
687.520	1180
687.565	963
687.574	845
687.611	551
687.657	1174
687.695	1332
687.702	1357
687.748	1578
687.794	1737
687.816	1626
687.839	1366
687.885	987
687.931	898
687.937	859
687.976	952
688.022	1308
688.058	1192
688.067	1101
688.113	1380
688.158	958
688.179	1017
688.204	1299
688.249	1071
688.295	2000
688.300	1943
688.340	1277
688.386	1949
688.421	1028
688.431	805
688.477	1421
688.522	1708
688.542	1933
688.567	2276
688.613	1678
688.658	1631
688.663	1663
688.703	1627
688.749	1925
688.784	1253
688.794	1145
688.839	1552
688.884	1577
688.905	1736
688.930	1754
688.975	1707
689.020	1234
689.026	1218
689.065	1344
689.110	931
689.146	905
689.155	897
689.201	1645
689.246	1364
689.267	1763
689.291	2245
689.336	1663
689.381	1918
689.388	1875
689.426	1542
689.471	1617
689.509	1744
689.516	1788
689.561	1938
689.606	2167
689.630	2117
689.651	2055
689.696	1671
689.741	2267
689.750	2178
689.785	1872
689.830	2140
689.871	1715
689.875	1684
689.920	2298
689.965	1842
689.992	2100
690.010	2243
690.054	1737
690.099	2346
690.112	2204
690.144	1886
690.189	1524
690.233	1706
690.233	1713
690.278	2094
690.323	1827
690.354	2407
690.367	2644
690.412	2496
690.457	2582
690.474	2615
690.501	2768
690.546	3725
690.590	3285
690.595	3313
690.635	3532
690.680	3591
690.716	3729
690.724	3914
690.769	4614
690.813	6208
690.836	6424
690.857	7546
690.902	10799
690.946	13700
690.957	14521
690.991	21075
691.035	29982
691.077	38461
691.080	38402
691.124	33574
691.168	29774
691.198	26668
691.213	24261
691.257	18159
691.301	11479
691.318	9176
691.346	8428
691.390	6578
691.434	5207
691.439	5016
691.478	4633
691.522	4182
691.559	3850
691.567	3847
691.611	3889
691.655	3661
691.680	3717
691.699	3761
691.743	3368
691.787	3330
691.800	3231
691.831	3051
691.875	2990
691.919	3114
691.921	3099
691.964	2819
692.008	2290
692.041	2544
692.052	2709
692.096	2582
692.139	3155
692.162	2994
692.183	2734
692.227	3224
692.271	2653
692.282	2696
692.315	2859
692.359	2580
692.402	2927
692.403	2940
692.447	2696
692.490	3393
692.523	3362
692.534	3337
692.578	3210
692.622	3273
692.643	3389
692.666	3472
692.709	3112
692.753	3355
692.763	3299
692.797	3388
692.840	3604
692.884	3809
692.884	3821
692.928	4022
692.971	3795
693.004	3953
693.015	4033
693.059	3714
693.102	4108
693.124	3886
693.146	3936
693.189	4740
693.233	5003
693.245	5215
693.276	5652
693.320	5859
693.363	6215
693.365	6204
693.407	6975
693.450	7861
693.485	8615
693.493	9115
693.537	11971
693.580	14314
693.605	15897
693.624	18975
693.667	25820
693.710	33142
693.725	35623
693.753	47469
693.797	67074
693.840	85965
693.845	87929
693.883	79747
693.926	69624
693.966	61309
693.970	59984
694.013	44798
694.056	29786
694.086	19152
694.099	18006
694.142	15033
694.185	11491
694.206	9869
694.229	9342
694.272	8255
694.315	7479
694.326	7086
694.358	6310
694.401	5792
694.444	5120
694.446	5086
694.487	5314
694.530	5084
694.566	5183
694.573	5180
694.616	4592
694.659	4476
694.686	4238
694.702	4299
694.745	4607
694.787	4732
694.806	4822
694.830	4625
694.873	4209
694.916	4012
694.926	3793
694.959	3535
695.002	3886
695.044	3833
695.046	3832
695.087	4184
695.130	4139
695.166	4468
695.172	4507
695.215	4103
695.258	4219
695.286	4117
695.301	4076
695.343	4140
695.386	3895
695.406	3883
695.428	3864
695.471	3755
695.514	3481
695.526	3405
695.556	3471
695.599	3702
695.641	3672
695.646	3677
695.684	3799
695.726	3784
695.766	4009
695.769	4049
695.811	4234
695.854	4377
695.886	4601
695.896	4527
695.938	4052
695.981	3547
696.005	3353
696.023	3573
696.065	3804
696.108	4249
696.125	4325
696.150	4161
696.192	4046
696.235	3956
696.245	3885
696.277	3901
696.319	3893
696.361	4100
696.365	4078
696.404	4268
696.446	4710
696.485	5012
696.488	5029
696.530	5131
696.572	4953
696.604	5060
696.614	5064
696.656	4803
696.698	4723
696.724	4501
696.740	4483
696.783	4613
696.825	4602
696.844	4606
696.867	4419
696.909	4074
696.951	3745
696.964	3579
696.992	3678
697.034	3954
697.076	4074
697.083	4110
697.118	4212
697.160	4146
697.202	4188
697.203	4174
697.244	4268
697.286	4295
697.323	4242
697.327	4252
697.369	4345
697.411	4327
697.442	4275
697.453	4302
697.494	4374
697.536	4473
697.562	4511
697.578	4490
697.620	4497
697.661	4308
697.682	4234
697.703	4291
697.744	4394
697.786	4651
697.801	4630
697.828	4622
697.869	4759
697.911	4766
697.921	4791
697.952	4866
697.994	4765
698.035	4766
698.040	4745
698.077	4541
698.118	4321
698.160	4109
698.160	4093
698.201	4268
698.243	4441
698.279	4623
698.284	4668
698.325	4905
698.367	5153
698.399	5273
698.408	5157
698.449	4625
698.491	4064
698.518	3664
698.532	3802
698.573	4170
698.614	4591
698.638	4789
698.656	4766
698.697	4714
698.738	4626
698.757	4578
698.779	4450
698.820	4168
698.862	3901
698.877	3781
698.903	4205
698.944	4878
698.985	5546
698.996	5715
699.026	5405
699.067	4949
699.116	4392
699.235	4501
699.354	3885
699.474	4702
699.593	5030
699.713	4087
699.832	4412
699.951	5143
700.070	4826
700.190	4028
700.309	4376
700.428	3968
700.547	4649
700.667	4870
700.786	4371
700.905	4569
701.024	3791
701.143	4359
701.262	4132
701.381	4419
701.500	3568
701.619	4125
701.738	4051
701.857	4246
701.976	5062
702.095	4013
702.214	4373
702.333	4561
702.452	4368
702.571	3830
702.690	3509
702.809	3285
702.928	3393
703.047	4389
703.165	4283
703.284	4439
703.403	4327
703.522	3665
703.640	3893
703.759	4585
703.878	4829
703.997	3395
704.115	3181
704.234	3814
704.353	3900
704.471	3497
704.590	3313
704.708	4703
704.827	5017
704.946	4422
705.064	3813
705.183	4546
705.301	5334
705.420	7100
705.538	10085
705.656	16359
705.775	44794
705.893	184337
706.012	190070
706.130	14465
706.249	6916
706.367	5829
706.485	6390
706.604	4803
706.722	4928
706.840	4920
706.958	6315
707.077	5595
707.195	4981
707.313	4420
707.431	4738
707.549	4346
707.668	3306
707.786	4056
707.904	3950
708.022	3862
708.140	4211
708.258	3162
708.376	3472
708.494	4053
708.612	4745
708.730	4136
708.848	5415
708.966	5376
709.084	5017
709.202	4100
709.320	4293
709.438	3881
709.556	3800
709.674	3844
709.791	3973
709.909	3674
710.027	4913
710.145	3552
710.263	3874
710.380	3803
710.498	3718
710.616	4005
710.733	4629
710.851	4079
710.969	4330
711.086	4273
711.204	3665
711.322	3923
711.439	4650
711.557	5582
711.674	7783
711.792	12758
711.909	40471
712.027	55571
712.144	8146
712.262	5144
712.379	4300
712.497	5355
712.614	6175
712.732	5448
712.849	5726
712.966	4575
713.084	4210
713.201	3916
713.318	4770
713.436	4726
713.553	4667
713.670	5543
713.787	4986
713.905	4788
714.022	4399
714.139	3934
714.256	5768
714.373	4753
714.490	6405
714.608	12657
714.725	42684
714.842	29824
714.959	5605
715.076	5820
715.193	5567
715.310	6089
715.427	5779
715.544	4569
715.661	3560
715.778	4219
715.895	3763
716.011	4721
716.128	4103
716.245	4244
716.362	4676
716.479	3958
716.596	4082
716.713	4325
716.829	3848
716.946	4129
717.063	3371
717.180	4162
717.296	3439
717.413	3814
717.530	3784
717.646	3953
717.763	3839
717.880	3497
717.996	3493
718.113	4169
718.229	3133
718.346	3619
718.462	3176
718.579	4048
718.695	3866
718.812	4018
718.928	3919
719.045	3456
719.161	3118
719.277	4550
719.394	7830
719.510	14086
719.626	4634
719.743	3661
719.859	4608
719.975	6088
720.092	13056
720.208	19297
720.324	4759
720.440	4434
720.557	3530
720.673	4619
720.789	4130
720.905	6461
721.021	3401
721.137	3920
721.253	3379
721.369	3209
721.486	3687
721.602	3819
721.718	3226
721.834	3452
721.950	2712
722.066	3225
722.181	2034
722.297	3406
722.413	3504
722.529	3323
722.645	4057
722.761	6062
722.877	7113
722.993	4021
723.108	3805
723.224	3341
723.340	3702
723.456	3240
723.571	3430
723.687	2627
723.803	3086
723.918	2135
724.034	2763
724.150	2445
724.265	3033
724.381	3862
724.497	3281
724.612	3150
724.728	2730
724.843	2747
724.959	3285
725.074	4122
725.190	3495
725.305	3211
725.421	2982
725.536	2599
725.651	2067
725.767	1957
725.882	3009
725.997	3216
726.113	3121
726.228	2984
726.343	2244
726.459	2682
726.574	3096
726.689	2000
726.804	2210
726.920	3842
727.035	2124
727.150	3048
727.265	3662
727.380	2887
727.495	4603
727.610	5033
727.725	11064
727.841	33639
727.956	130044
728.071	57689
728.186	5706
728.301	2508
728.416	3284
728.531	3254
728.645	2704
728.760	2642
728.875	3154
728.990	1544
729.105	2062
729.220	2993
729.335	2946
729.449	1983
729.564	2476
729.679	2251
729.794	2246
729.908	2858
730.023	2225
730.138	2408
730.253	2619
730.367	2373
730.482	1619
730.596	1828
730.711	1993
730.826	3171
730.940	2071
731.055	2437
731.169	2208
731.284	1657
731.398	1766
731.513	1567
731.627	2392
731.742	2086
731.856	2130
731.970	2674
732.085	2457
732.199	2674
732.313	3205
732.428	5361
732.542	11558
732.656	5707
732.771	1623
732.885	1617
732.999	1541
733.113	2084
733.227	2600
733.342	2677
733.456	2533
733.570	1797
733.684	2455
733.798	2307
733.912	1667
734.026	2392
734.140	1933
734.254	2661
734.368	1651
734.482	2885
734.596	1599
734.710	1941
734.824	1869
734.938	1849
735.052	2214
735.166	2803
735.280	2026
735.393	1972
735.507	2246
735.621	2388
735.735	2257
735.849	2481
735.962	2555
736.076	1822
736.190	2440
736.303	1765
736.417	2780
736.531	2304
736.644	2002
736.758	625
736.872	1415
736.985	2203
737.099	2822
737.212	1481
737.326	2244
737.439	2605
737.553	2677
737.666	2271
737.780	2345
737.893	2197
738.007	1671
738.120	1769
738.233	1323
738.347	1044
738.460	2293
738.573	1988
738.687	2237
738.800	2213
738.913	3142
739.026	5531
739.140	14135
739.253	16078
739.366	3387
739.479	2068
739.592	2271
739.705	2269
739.818	1963
739.932	1106
740.045	2616
740.158	1666
740.271	2870
740.384	2021
740.497	1768
740.610	1723
740.723	2018
740.836	2480
740.949	2378
741.062	2260
741.174	2815
741.287	1839
741.400	1918
741.513	2519
741.626	3822
741.739	4195
741.851	1394
741.964	1718
742.077	881
742.189	2085
742.302	2623
742.415	2410
742.527	1637
742.640	1836
742.753	2082
742.865	1114
742.978	2064
743.090	2164
743.203	1983
743.316	2349
743.428	1837
743.541	1329
743.653	1393
743.766	1800
743.878	1944
743.990	2103
744.103	3299
744.215	2160
744.327	1987
744.440	2415
744.552	2372
744.664	1078
744.777	1789
744.889	936
745.001	2230
745.113	1642
745.226	1566
745.338	2164
745.450	1790
745.562	2193
745.674	2069
745.786	2606
745.898	5397
746.010	4595
746.122	2860
746.234	2192
746.347	2577
746.459	1897
746.570	1863
746.682	3021
746.794	3526
746.906	2095
747.018	1664
747.130	2126
747.242	2558
747.354	2095
747.466	1532
747.577	2562
747.689	2008
747.801	2161
747.913	1776
748.024	1964
748.136	2111
748.248	1781
748.359	1890
748.471	2949
748.583	4462
748.694	15216
748.806	20780
748.918	3816
749.029	2265
749.141	1385
749.252	2825
749.364	2027
749.475	2719
749.587	2167
749.698	1607
749.809	2148
749.921	2048
750.032	1297
750.144	1813
750.255	1150
750.366	1244
750.478	1737
750.589	832
750.700	1968
750.811	2004
750.923	2859
751.034	1423
751.145	2147
751.256	2251
751.367	2175
751.479	1967
751.590	1698
751.701	1503
751.812	1685
751.923	1458
752.034	2619
752.145	2604
752.256	2358
752.367	1929
752.478	1773
752.589	1537
752.700	2299
752.811	1979
752.922	1023
753.032	2058
753.143	1361
753.254	1175
753.365	2608
753.476	1911
753.586	2602
753.697	1812
753.808	2101
753.919	2452
754.029	1966
754.140	1770
754.251	2199
754.361	1108
754.472	2501
754.582	2803
754.693	2329
754.804	2310
754.914	1536
755.025	2031
755.135	1861
755.246	1834
755.356	967
755.466	2707
755.577	2197
755.687	2276
755.798	2167
755.908	2364
756.018	2028
756.129	2202
756.239	2905
756.349	3076
756.460	1767
756.570	2247
756.680	2162
756.790	2016
756.900	2844
757.011	2284
757.121	2264
757.231	2607
757.341	2338
757.451	2148
757.561	2294
757.671	2030
757.781	1545
757.891	2606
758.001	2918
758.111	3455
758.221	2591
758.331	2405
758.441	3197
758.551	2809
758.661	3108
758.771	3492
758.880	2656
758.990	3190
759.100	3275
759.210	2819
759.320	3462
759.429	3442
759.539	3727
759.649	3121
759.758	4073
759.868	4082
759.978	3390
760.087	4362
760.197	4766
760.307	3782
760.416	2945
760.526	3158
760.635	3970
760.745	3855
760.854	5003
760.964	5740
761.073	6830
761.182	4273
761.292	4386
761.401	5006
761.511	4770
761.620	4867
761.729	5279
761.839	5709
761.948	5833
762.057	5857
762.166	7142
762.276	4847
762.385	7550
762.494	6285
762.603	7249
762.712	7140
762.822	7704
762.931	8442
763.040	7147
763.149	7898
763.258	9056
763.367	9962
763.476	10216
763.585	10952
763.694	12269
763.803	12478
763.912	12600
764.021	13541
764.130	14826
764.238	17235
764.347	18177
764.456	17362
764.565	18138
764.674	20338
764.783	22890
764.891	25157
765.000	28575
765.109	32210
765.217	35642
765.326	43889
765.435	52830
765.543	62128
765.652	76359
765.761	98627
765.869	128881
765.978	175694
766.086	242176
766.195	356042
766.303	476447
766.412	431040
766.520	429915
766.629	402527
766.737	290227
766.846	204968
766.954	150424
767.062	124653
767.171	125361
767.279	76055
767.387	55152
767.496	46986
767.604	40260
767.712	33786
767.820	31711
767.928	28030
768.037	25555
768.145	23985
768.253	23924
768.361	23769
768.469	22958
768.577	23875
768.685	25450
768.793	26186
768.901	29252
769.009	35334
769.117	42662
769.225	54241
769.333	75052
769.441	109188
769.549	172466
769.657	289755
769.765	429128
769.873	387051
769.981	354692
770.088	228536
770.196	144150
770.304	98796
770.412	72384
770.519	55684
770.627	45113
770.735	36866
770.842	31304
770.950	26105
771.058	23012
771.165	20372
771.273	18940
771.380	16068
771.488	15413
771.595	13719
771.703	12435
771.810	12540
771.918	10550
772.025	10875
772.133	9745
772.240	9429
772.348	8420
772.455	7788
772.562	7294
772.670	7206
772.777	6805
772.884	7228
772.991	6458
773.099	6676
773.206	6761
773.313	6138
773.420	5763
773.528	4784
773.635	5692
773.742	5128
773.849	5662
773.956	5055
774.063	5216
774.170	4243
774.277	5678
774.384	4404
774.491	2996
774.598	4557
774.705	3320
774.812	4351
774.919	3946
775.026	3354
775.133	4092
775.239	3780
775.346	2585
775.453	3211
775.560	2636
775.667	3254
775.773	3062
775.880	3269
775.987	2563
776.093	3649
776.200	2509
776.307	2667
776.413	3323
776.520	2243
776.627	2690
776.733	2866
776.840	1696
776.946	4185
777.053	4183
777.159	5271
777.266	1960
777.372	5352
777.478	3788
777.585	2632
777.691	2920
777.798	3139
777.904	9185
778.010	22517
778.117	6476
778.223	1751
778.329	1328
778.435	1323
778.542	1859
778.648	2168
778.754	1463
778.860	1866
778.966	1740
779.072	2427
779.178	2708
779.284	1587
779.391	1248
779.497	1551
779.603	4738
779.708	3391
779.815	11618
779.920	37550
780.026	53517
780.132	7633
780.238	2660
780.344	2877
780.450	2634
780.556	1976
780.661	2394
780.767	1037
780.873	2019
780.979	946
781.085	809
781.190	2579
781.296	1685
781.402	1188
781.507	835
781.613	937
781.719	802
781.824	897
781.930	1450
782.035	1513
782.141	576
782.246	282
782.352	1709
782.457	1875
782.563	1429
782.668	566
782.773	1034
782.879	580
782.984	1538
783.090	1575
783.195	2510
783.300	498
783.405	1153
783.511	1274
783.616	1174
783.721	675
783.826	723
783.932	1662
784.037	1637
784.142	1040
784.247	708
784.352	1215
784.457	1264
784.562	678
784.667	619
784.772	523
784.877	244
784.982	1021
785.087	738
785.192	1401
785.297	525
785.402	755
785.507	681
785.611	818
785.716	1433
785.821	342
785.926	997
786.031	368
786.135	1396
786.240	422
786.345	-523
786.450	897
786.554	999
786.659	-170
786.763	-195
786.868	1506
786.973	1401
787.077	505
787.182	737
787.286	1106
787.391	1334
787.495	583
787.600	509
787.704	459
787.809	845
787.913	951
788.017	1251
788.122	1019
788.226	556
788.330	685
788.435	747
788.539	559
788.643	202
788.747	-57
788.852	882
788.956	225
789.060	667
789.164	-113
789.268	-276
789.372	916
789.476	172
789.580	661
789.684	538
789.788	926
789.892	128
789.996	1325
790.100	1003
790.204	898
790.308	1489
790.412	2856
790.516	10712
790.620	6934
790.724	1999
790.828	1217
790.931	1194
791.035	5786
791.139	6280
791.242	83
791.346	1903
791.450	183
791.554	592
791.657	-611
791.761	1650
791.864	1317
791.968	653
792.072	178
792.175	24
792.279	213
792.382	196
792.486	798
792.589	-33
792.693	237
792.796	-863
792.899	637
793.003	1448
793.106	-827
793.209	255
793.313	1489
793.416	-792
793.519	1757
793.623	1070
793.726	-471
793.829	730
793.932	158
794.035	-500
794.138	991
794.242	743
794.345	1148
794.448	1980
794.551	3590
794.654	19673
794.757	30040
794.860	4141
794.963	443
795.066	386
795.169	1060
795.272	234
795.375	734
795.477	-111
795.580	411
795.683	-314
795.786	596
795.889	-1726
795.991	813
796.094	1228
796.197	-1114
796.300	354
796.402	-261
796.505	40
796.608	222
796.710	884
796.813	-199
796.915	-130
797.018	778
797.120	1196
797.223	-1436
797.326	973
797.428	-457
797.530	544
797.633	-206
797.735	692
797.838	-323
797.940	731
798.042	-557
798.145	-96
798.247	869
798.349	-1349
798.452	630
798.554	-260
798.656	-1419
798.758	1473
798.860	560
798.962	44
799.065	-859
799.167	65
799.269	1116
799.371	1448
799.473	552
799.575	-454
799.677	225
799.779	1885
799.881	-1005
799.983	756
800.085	-345
800.187	130
800.289	-679
800.390	-164
800.492	466
800.594	1223
800.696	-320
800.798	-352
800.899	-754
801.001	136
801.103	-30
801.205	464
801.306	52
801.408	-1414
801.509	208
801.611	180
801.713	463
801.814	-823
801.916	-179
802.017	-50
802.119	-149
802.220	806
802.322	-1510
802.423	1668
802.525	-755
802.626	-410
802.727	-596
802.829	-413
802.930	-2216
803.031	1025
803.133	-597
803.234	573
803.335	-80
803.436	-1091
803.538	346
803.639	-1213
803.740	858
803.841	-91
803.942	-61
804.043	876
804.144	-953
804.245	-242
804.346	-716
804.447	-156
804.548	492
804.649	684
804.750	387
804.851	-1711
804.952	4
805.053	281
805.154	-944
805.255	346
805.355	-504
805.456	-470
805.557	-341
805.658	-459
805.758	755
805.859	380
805.960	495
806.061	-750
806.161	-392
806.262	-69
806.362	-112
806.463	-394
806.564	-328
806.664	320
806.765	-432
806.865	153
806.966	-219
807.066	-12
807.166	-82
807.267	541
807.367	-673
807.468	-263
807.568	-891
807.668	71
807.769	1539
807.869	-1042
807.969	-571
808.069	714
808.170	794
808.270	-738
808.370	136
808.470	-273
808.570	-1858
808.670	-257
808.770	-577
808.870	-759
808.970	-90
809.070	-548
809.170	-639
809.271	337
809.370	-639
809.470	497
809.570	-85
809.670	-664
809.770	-158
809.870	-153
809.970	834
810.070	72
810.169	318
810.269	-426
810.369	250
810.469	-1002
810.568	-528
810.668	-396
810.768	-196
810.867	100
810.967	-594
811.066	-408
811.166	-511
811.265	-48
811.365	-316
811.464	-672
811.564	253
811.663	-263
811.763	-1616
811.862	-236
811.962	1143
812.061	-9
812.160	-952
812.260	-283
812.359	195
812.458	937
812.557	5738
812.657	6757
812.756	1118
812.855	33
812.954	-12
813.053	-89
813.153	-174
813.252	-901
813.351	-667
813.450	-349
813.549	-644
813.648	710
813.747	-459
813.846	-122
813.945	-588
814.044	-936
814.143	-742
814.242	440
814.341	-646
814.439	103
814.538	630
814.637	-396
814.736	-935
814.835	163
814.933	-845
815.032	586
815.131	-147
815.229	-868
815.328	-11
815.427	-632
815.525	84
815.624	-530
815.722	-481
815.821	300
815.919	272
816.018	-451
816.116	740
816.215	-62
816.313	566
816.412	31
816.510	166
816.609	700
816.707	-64
816.805	-375
816.904	-882
817.002	182
817.100	685
817.198	1160
817.296	-1364
817.395	-288
817.493	475
817.591	-514
817.689	390
817.787	240
817.885	791
817.983	1437
818.081	2728
818.179	6457
818.277	15262
818.375	11437
818.473	2627
818.571	1842
818.669	856
818.767	887
818.865	413
818.963	1048
819.061	984
819.158	2197
819.256	6088
819.354	13703
819.452	32832
819.549	15814
819.647	3469
819.745	805
819.842	922
819.940	274
820.038	-505
820.135	508
820.233	1100
820.330	231
820.428	131
820.525	786
820.623	-188
820.720	-545
820.818	487
820.915	2093
821.012	3899
821.110	-669
821.207	635
821.304	-21
821.402	-152
821.499	282
821.596	427
821.693	255
821.791	720
821.888	502
821.985	344
822.082	-434
822.179	936
822.276	-457
822.373	120
822.470	-317
822.567	-81
822.664	-59
822.761	93
822.858	-553
822.955	583
823.052	162
823.149	-674
823.246	-327
823.343	-356
823.440	-137
823.536	-317
823.633	-556
823.730	972
823.827	542
823.923	638
824.020	1026
824.117	-577
824.213	-535
824.310	948
824.407	-576
824.503	-58
824.600	-46
824.696	-228
824.793	486
824.889	-1514
824.986	349
825.082	60
825.179	522
825.275	-1051
825.371	-403
825.468	526
825.564	-760
825.660	-54
825.757	167
825.853	223
825.949	-1328
826.045	-4
826.142	-793
826.238	155
826.334	126
826.430	-692
826.526	-360
826.622	-947
826.718	-45
826.814	-752
826.910	397
827.006	-578
827.102	-402
827.198	186
827.294	337
827.390	-234
827.486	106
827.582	-1336
827.678	-1168
827.774	403
827.869	-1430
827.965	179
828.061	-1251
828.157	-87
828.252	-325
828.348	-1011
828.444	695
828.539	-759
828.635	-118
828.731	397
828.826	-558
828.922	-128
829.017	-545
829.113	71
829.208	-389
829.304	-1111
829.399	656
829.495	-1024
829.590	-305
829.685	-1615
829.781	-211
829.876	-595
829.971	-823
830.066	-1653
830.162	-33
830.257	-505
830.352	-791
830.447	68
830.543	-485
830.638	-1802
830.733	-266
830.828	-1118
830.923	-574
831.018	-310
831.113	-335
831.208	-801
831.303	-1112
831.398	-524
831.493	-1008
831.588	-461
831.683	-1783
831.778	319
831.873	-608
831.967	370
832.062	-759
832.157	-1020
832.252	-133
832.346	-1192
832.441	587
832.536	325
832.631	681
832.725	953
832.820	-615
832.914	-1073
833.009	-1343
833.104	-768
833.198	-782
833.293	-1501
833.387	-225
833.482	-1067
833.576	-1300
833.670	-351
833.765	-1052
833.859	-917
833.954	-486
834.048	-785
834.142	-637
834.237	-462
834.331	-152
834.425	-437
834.519	-1118
834.613	-200
834.708	-444
834.802	-416
834.896	-825
834.990	-374
835.084	-355
835.178	-1733
835.272	-1214
835.366	-826
835.460	-550
835.554	-87
835.648	-278
835.742	-336
835.836	-420
835.930	-1331
836.024	-472
836.117	-279
836.211	-1507
836.305	56
836.399	-160
836.493	-1756
836.586	985
836.680	-938
836.774	-1104
836.867	390
836.961	-1244
837.055	-1630
837.148	-334
837.242	-926
837.335	-1161
837.429	-739
837.522	-1044
837.616	-1111
837.709	173
837.803	-2164
837.896	-318
837.989	-1139
838.083	-257
838.176	-407
838.269	-1145
838.363	-186
838.456	-1028
838.549	129
838.642	-1344
838.735	-456
838.829	171
838.922	-1125
839.015	-1259
839.108	-1552
839.201	-643
839.294	-436
839.387	-760
839.480	-2015
839.573	-999
839.666	-1412
839.759	-645
839.852	-1070
839.945	-160
840.038	-1024
840.131	-660
840.223	-499
840.316	-241
840.409	-1471
840.502	-854
840.594	650
840.687	-1235
840.780	220
840.873	-941
840.965	-1013
841.058	238
841.150	-193
841.243	-1133
841.336	-461
841.428	-727
841.521	-1012
841.613	-1510
841.706	-438
841.798	-77
841.890	-641
841.983	-803
842.075	547
842.167	-861
842.260	-1825
842.352	-246
842.444	-1341
842.537	-1646
842.629	-269
842.721	-753
842.813	-446
842.905	-1674
842.997	-830
843.090	-1327
843.182	-256
843.274	-1017
843.366	143
843.458	465
843.550	975
843.642	-1184
843.734	-499
843.826	-984
843.918	-125
844.009	-308
844.101	-1246
844.193	-1179
844.285	-966
844.377	-476
844.469	-96
844.560	-1428
844.652	593
844.744	-685
844.835	-1026
844.927	-568
845.019	-1595
845.110	-254
845.202	-1044
845.293	-906
845.385	-2264
845.476	-740
845.568	-526
845.659	-546
845.751	-852
845.842	-818
845.934	-1457
846.025	-1304
846.116	-1042
846.208	-1119
846.299	-876
846.390	-105
846.482	13
846.573	-1113
846.664	-667
846.755	-1200
846.846	-276
846.937	-2238
847.029	-1256
847.120	-1287
847.211	-686
847.302	170
847.393	-1266
847.484	-655
847.575	-1262
847.666	-1429
847.757	-316
847.847	-1203
847.938	-709
848.029	-311
848.120	-1568
848.211	-1655
848.302	-1774
848.392	-1708
848.483	-462
848.574	-1504
848.664	-1120
848.755	-1312
848.846	-321
848.936	-1186
849.027	-882
849.118	-1412
849.208	-1308
849.299	-807
849.389	-417
849.480	-844
849.570	510
849.661	676
849.751	2263
849.841	-932
849.932	-874
850.022	-1468
850.112	-71
850.203	-969
850.293	-1043
850.383	-1005
850.474	-1305
850.564	-957
850.654	-1188
850.744	-995
850.834	-1137
850.924	-835
851.014	26
851.104	-1346
851.194	-1094
851.284	-416
851.374	-605
851.464	-835
851.554	-387
851.644	-1380
851.734	-801
851.824	-765
851.914	-724
852.004	920
852.094	421
852.183	-148
852.273	-681
852.363	-1175
852.452	-742
852.542	-1315
852.632	-1245
852.721	-777
852.811	-904
852.901	-554
852.990	-1393
853.080	-670
853.169	-761
853.259	-355
853.348	-1515
853.438	-1130
853.527	-1015
853.617	-756
853.706	616
853.795	119
853.885	4002
853.974	5576
854.063	14474
854.152	16499
854.242	3141
854.331	-297
854.420	-700
854.509	-1411
854.598	-822
854.687	-634
854.777	-995
854.866	-1748
854.955	-1014
855.044	-393
855.133	-989
855.222	-919
855.311	-871
855.400	-62
855.488	252
855.577	1560
855.666	3478
855.755	7269
855.844	14648
855.933	16629
856.021	3255
856.110	-666
856.199	-553
856.288	-412
856.376	-1329
856.465	-941
856.554	-735
856.642	-719
856.731	-610
856.819	-291
856.908	-1428
856.996	-1089
857.085	-791
857.173	-394
857.262	-878
857.350	-712
857.438	-975
857.527	-586
857.615	-1888
857.703	-364
857.792	-1230
857.880	-1494
857.968	-1036
858.056	-879
858.145	-1372
858.233	-80
858.321	-639
858.409	-311
858.497	-1339
858.585	-1229
858.673	-587
858.761	-1535
858.849	-921
858.937	-1010
859.025	-968
859.113	-1433
859.201	-1685
859.289	-42
859.377	-849
859.465	-327
859.552	-932
859.640	-586
859.728	-1214
859.816	-779
859.903	-102
859.991	-578
860.079	-546
860.166	-979
860.254	-892
860.342	-474
860.429	-1139
860.517	-1005
860.604	-412
860.692	-1031
860.779	-1204
860.867	-712
860.954	-1331
861.042	-1133
861.129	-1295
861.216	-625
861.304	-1570
861.391	-519
861.478	-856
861.565	-256
861.653	105
861.740	-1344
861.827	-1124
861.914	-879
862.001	-1203
862.089	-780
862.176	-724
862.263	-1143
862.350	-636
862.437	-900
862.524	-1634
862.611	-911
862.698	-635
862.785	-383
862.871	-986
862.958	-1180
863.045	-1057
863.132	-1123
863.219	-725
863.306	-1117
863.392	-1045
863.479	-621
863.566	-834
863.652	-1013
863.739	-1258
863.826	-1327
863.912	-1193
863.999	-1991
864.086	-1395
864.172	-1021
864.259	-954
864.345	-971
864.432	-795
864.518	-222
864.604	-457
864.691	-1304
864.777	-71
864.863	-1002
864.950	-380
865.036	-1658
865.122	-1417
865.209	-933
865.295	238
865.381	-1317
865.467	-783
865.553	-339
865.639	-761
865.726	-58
865.812	548
865.898	3354
865.984	3540
866.070	9763
866.156	6523
866.242	-51
866.328	-616
866.414	-1723
866.499	-562
866.585	-1016
866.671	-613
866.757	-1308
866.843	-202
866.928	-1342
867.014	-1049
867.100	-684
867.186	-1024
867.271	-851
867.357	-1236
867.442	-464
867.528	-1038
867.614	-960
867.699	-637
867.785	-404
867.870	368
867.956	-690
868.041	-775
868.127	-904
868.212	299
868.297	-497
868.383	-669
868.468	-757
868.553	-796
868.639	327
868.724	206
868.809	200
868.894	-861
868.979	-1411
869.065	-538
869.150	-1533
869.235	-1206
869.320	-1121
869.405	-949
869.490	-1507
869.575	-2295
869.660	-1403
869.745	-484
869.830	-1514
869.915	-1491
870.000	-1087
870.085	-1855
870.169	-1221
870.254	-1083
870.339	-1425
870.424	-2129
870.509	-1061
870.593	-849
870.678	-1331
870.763	-1074
870.847	-1652
870.932	-1850
871.016	-767
871.101	-457
871.186	-612
871.270	-994
871.355	-1520
871.439	-952
871.523	-1285
871.608	-1089
871.692	-1432
871.777	-626
871.861	-826
871.945	-1669
872.030	-651
872.114	-772
872.198	-2003
872.282	-1450
872.367	-721
872.451	-2178
872.535	-1535
872.619	-1601
872.703	-160
872.787	-1643
872.871	-1592
872.955	-1487
873.039	-1057
873.123	-1091
873.207	-1514
873.291	-1586
873.375	-714
873.459	-1377
873.543	-1071
873.627	-1195
873.711	-610
873.794	-1267
873.878	-1458
873.962	-2358
874.045	-1547
874.129	-1509
874.137	-1498
874.213	-1390
874.245	-1451
874.296	-1550
874.352	-1558
874.380	-1572
874.460	-713
874.464	-678
874.547	-818
874.568	-895
874.631	-1146
874.676	-1250
874.714	-1313
874.784	-817
874.798	-729
874.881	587
874.892	443
874.965	-516
874.999	-549
875.048	-626
875.107	-1175
875.131	-1375
875.215	-1733
875.215	-1732
875.298	-1025
875.323	-1172
875.381	-1405
875.430	-1522
875.465	-1650
875.538	-626
875.548	-491
875.631	-1476
875.646	-1453
875.714	-1263
875.753	-1365
875.798	-1451
875.861	-704
875.881	-523
875.964	-1461
875.968	-1422
876.047	-492
876.076	-527
876.130	-646
876.183	-601
876.213	-548
876.291	-639
876.296	-658
876.379	-1340
876.398	-1370
876.462	-1256
876.506	-1279
876.545	-1421
876.613	-673
876.628	-487
876.711	-1151
876.721	-1110
876.794	-804
876.828	-985
876.877	-1264
876.935	-999
876.960	-824
877.043	-71
877.043	-72
877.125	-372
877.150	-354
877.208	-180
877.258	-516
877.291	-784
877.365	-651
877.374	-639
877.456	-586
877.472	-552
877.539	-213
877.579	-273
877.622	-484
877.687	-962
877.704	-1040
877.787	-624
877.794	-644
877.869	-1113
877.901	-955
877.952	-401
878.008	-10
878.034	79
878.115	-1123
878.117	-1145
878.199	-342
878.222	-273
878.282	-71
878.329	-154
878.364	-247
878.437	5
878.447	45
878.529	-994
878.544	-868
878.611	-277
878.651	-405
878.694	-497
878.758	-621
878.776	-630
878.858	-381
878.865	-350
878.941	-258
878.972	-443
879.023	-671
879.078	-811
879.105	-758
879.185	-189
879.187	-184
879.269	-635
879.292	-694
879.351	-711
879.399	-790
879.433	-759
879.506	-21
879.516	62
879.598	306
879.613	170
879.680	-201
879.720	9
879.762	11
879.827	-38
879.844	5
879.926	273
879.933	327
880.007	857
880.040	544
880.089	43
880.147	173
880.171	285
880.253	1763
880.254	1760
880.335	2266
880.360	2588
880.417	4372
880.467	7418
880.499	9616
880.574	11375
880.580	10919
880.662	3433
880.680	2254
880.744	919
880.787	141
880.825	44
880.893	-488
880.907	-535
880.989	507
881.000	465
881.070	-125
881.106	-401
881.152	-422
881.213	298
881.233	420
881.315	-61
881.319	-79
881.396	148
881.426	147
881.478	-392
881.532	-648
881.559	-397
881.639	294
881.641	295
881.722	188
881.745	55
881.803	127
881.852	-83
881.885	-284
881.958	20
881.966	71
882.047	609
882.064	557
882.129	413
882.171	424
882.210	385
882.277	560
882.291	532
882.372	-302
882.383	-310
882.454	220
882.489	161
882.535	-196
882.596	-157
882.616	-94
882.697	-243
882.702	-255
882.778	50
882.808	188
882.859	135
882.914	-0
882.940	119
883.020	304
883.021	310
883.102	323
883.127	297
883.183	128
883.233	89
883.264	136
883.339	-47
883.345	-58
883.426	-184
883.445	-164
883.507	487
883.551	750
883.587	477
883.657	210
883.668	227
883.749	-228
883.763	-187
883.830	288
883.869	393
883.910	349
883.975	-54
883.991	-152
884.072	1
884.081	-47
884.152	300
884.187	701
884.233	621
884.292	221
884.314	237
884.394	380
884.398	367
884.475	-89
884.504	-138
884.555	436
884.610	1015
884.636	789
884.716	-168
884.716	-161
884.797	358
884.821	405
884.877	164
884.927	-52
884.958	-7
885.033	476
885.038	511
885.118	597
885.139	670
885.199	265
885.244	-140
885.279	28
885.350	396
885.359	436
885.439	763
885.456	788
885.520	568
885.561	502
885.600	434
885.667	396
885.680	463
885.760	523
885.773	548
885.840	919
885.878	1224
885.920	1628
885.984	1959
886.000	1893
886.080	1433
886.089	1407
886.160	254
886.195	-346
886.240	49
886.300	446
886.320	381
886.400	194
886.406	180
886.480	646
886.511	852
886.560	951
886.616	791
886.640	857
886.720	1363
886.722	1364
886.800	747
886.827	546
886.879	522
886.932	346
886.959	544
887.038	1304
887.039	1306
887.119	652
887.143	447
887.198	453
887.248	539
887.278	770
887.354	1044
887.358	1028
887.437	576
887.459	510
887.517	968
887.564	1239
887.596	1136
887.669	806
887.676	814
887.755	969
887.774	956
887.835	484
887.880	187
887.914	483
887.985	924
887.994	857
888.073	405
888.090	300
888.153	1216
888.195	1749
888.232	1009
888.300	-375
888.311	-106
888.391	1828
888.405	2160
888.470	1492
888.510	1109
888.549	1310
888.615	1596
888.628	1438
888.708	449
888.720	279
888.787	751
888.825	1027
888.866	1087
888.930	1166
888.945	1197
889.024	1330
889.035	1340
889.103	1261
889.140	1201
889.182	1444
889.245	1782
889.261	1636
889.340	905
889.349	814
889.419	1098
889.454	1236
889.498	1387
889.559	1567
889.577	1468
889.656	1022
889.664	973
889.735	1205
889.768	1313
889.814	1514
889.873	1768
889.978	1015
890.083	1846
890.187	916
890.292	1244
890.397	790
890.501	1262
890.606	1775
890.710	1996
890.815	1534
890.919	859
891.024	1438
891.128	2061
891.233	1993
891.337	3320
891.442	4204
891.546	1468
891.650	338
891.755	1521
891.859	2742
891.963	1857
892.068	1321
892.172	1800
892.276	1048
892.380	1473
892.484	817
892.589	1167
892.693	1341
892.797	1314
892.901	844
893.005	1252
893.109	1277
893.213	1622
893.317	1287
893.421	2275
893.525	-67
893.629	892
893.733	882
893.837	1177
893.941	663
894.045	2415
894.148	1757
894.252	4205
894.356	1975
894.460	1640
894.564	848
894.667	844
894.771	594
894.875	667
894.978	211
895.082	1181
895.186	602
895.289	1007
895.393	930
895.496	1226
895.600	190
895.703	716
895.807	990
895.910	725
896.014	676
896.117	1720
896.221	558
896.324	1161
896.427	927
896.531	1244
896.634	109
896.737	1159
896.840	224
896.944	791
897.047	725
897.150	-77
897.253	110
897.356	1431
897.460	1372
897.563	1676
897.666	936
897.769	974
897.872	518
897.975	570
898.078	1721
898.181	863
898.284	591
898.387	926
898.490	208
898.593	1601
898.695	668
898.798	876
898.901	1023
899.004	920
899.107	717
899.209	1420
899.312	303
899.415	1363
899.518	158
899.620	1036
899.723	700
899.826	1682
899.928	1518
900.031	466
900.133	523
900.236	1396
900.338	796
900.441	1117
900.543	382
900.646	853
900.748	146
900.851	1412
900.953	501
901.055	1080
901.158	1479
901.260	1672
901.362	820
901.465	467
901.567	704
901.669	1526
901.771	711
901.873	437
901.976	922
902.078	1274
902.180	759
902.282	1018
902.384	136
902.486	1550
902.588	403
902.690	1244
902.792	1439
902.894	1663
902.996	644
903.098	440
903.200	1615
903.302	1056
903.404	1054
903.505	1299
903.607	1071
903.709	1142
903.811	1437
903.913	902
904.014	73
904.116	431
904.218	1059
904.319	1853
904.421	1547
904.523	1012
904.624	483
904.726	1409
904.827	254
904.929	1270
905.030	542
905.132	1680
905.233	887
905.335	845
905.436	359
905.537	1192
905.639	1085
905.740	706
905.841	876
905.943	1692
906.044	379
906.145	1197
906.247	836
906.348	1396
906.449	916
906.550	734
906.651	125
906.752	683
906.854	811
906.955	234
907.056	775
907.157	211
907.258	858
907.359	480
907.460	702
907.561	1137
907.662	562
907.762	583
907.863	431
907.964	1033
908.065	1013
908.166	1653
908.267	320
908.367	435
908.468	363
908.569	377
908.670	508
908.770	1830
908.871	946
908.971	517
909.072	1246
909.173	1001
909.273	177
909.374	1020
909.474	-87
909.575	781
909.675	510
909.776	1201
909.876	501
909.977	399
910.077	1461
910.177	1563
910.278	551
910.378	772
910.478	508
910.579	1392
910.679	283
910.779	1177
910.879	712
910.980	743
911.080	390
911.180	25
911.280	851
911.380	677
911.480	817
911.580	648
911.680	-255
911.780	1204
911.880	793
911.980	350
912.080	51
912.180	841
912.280	787
912.380	1092
912.480	457
912.580	1009
912.679	456
912.779	1305
912.879	130
912.979	275
913.078	321
913.178	1004
913.278	1170
913.377	665
913.477	-119
913.577	901
913.676	1099
913.776	723
913.875	569
913.975	1709
914.074	808
914.174	1167
914.273	-178
914.373	1504
914.472	78
914.572	575
914.671	613
914.770	384
914.870	227
914.969	696
915.068	-136
915.167	1139
915.267	737
915.366	320
915.465	498
915.564	1266
915.663	902
915.763	501
915.862	487
915.961	1058
916.060	925
916.159	574
916.258	6
916.357	1510
916.456	-170
916.555	978
916.654	210
916.752	779
916.851	580
916.950	1190
917.049	171
917.148	1181
917.247	93
917.345	1606
917.444	10
917.543	1444
917.642	884
917.740	123
917.839	89
917.937	1403
918.036	1280
918.135	382
918.233	89
918.332	557
918.430	153
918.529	519
918.627	677
918.726	1882
918.824	2111
918.923	1851
919.021	403
919.119	496
919.218	623
919.316	1551
919.414	548
919.512	1339
919.611	706
919.709	1177
919.807	-231
919.905	39
920.003	-440
920.102	1233
920.200	148
920.298	625
920.396	773
920.494	651
920.592	438
920.690	1150
920.788	607
920.886	451
920.984	405
921.082	524
921.180	786
921.277	181
921.375	1503
921.473	-216
921.571	875
921.669	962
921.766	1026
921.864	2043
921.962	3463
922.060	1687
922.157	650
922.255	34
922.352	380
922.450	991
922.548	717
922.645	1193
922.743	810
922.840	865
922.938	41
923.035	845
923.133	626
923.230	915
923.327	796
923.425	1960
923.522	500
923.619	1410
923.717	277
923.814	1099
923.911	765
924.008	1510
924.106	-4
924.203	349
924.300	810
924.397	371
924.494	1164
924.591	909
924.688	-152
924.786	359
924.883	538
924.979	668
925.077	263
925.173	1083
925.270	302
925.367	1146
925.464	1226
925.561	1092
925.658	1180
925.755	1002
925.852	888
925.948	1721
926.045	624
926.142	1787
926.239	1024
926.335	1284
926.432	1241
926.529	939
926.625	1482
926.722	1213
926.818	1040
926.915	817
927.011	662
927.108	964
927.204	699
927.301	1155
927.397	383
927.494	903
927.590	-18
927.687	438
927.783	407
927.879	1420
927.976	577
928.072	1507
928.168	105
928.264	629
928.361	-38
928.457	380
928.553	17
928.649	1161
928.745	-21
928.841	1140
928.937	368
929.033	645
929.129	584
929.225	350
929.321	561
929.417	127
929.513	742
929.609	254
929.705	-246
929.801	927
929.897	-125
929.993	1098
930.089	672
930.184	322
930.280	-194
930.376	818
930.471	-488
930.567	1605
930.663	1117
930.758	1401
930.854	810
930.950	81
931.045	-372
931.141	1772
931.236	-127
931.332	382
931.427	469
931.523	753
931.618	527
931.714	1109
931.809	1006
931.905	475
932.000	750
932.095	404
932.191	-182
932.286	1685
932.381	781
932.476	736
932.572	1039
932.667	859
932.762	-390
932.857	885
932.952	402
933.047	526
933.142	94
933.237	372
933.332	461
933.427	1124
933.522	706
933.617	1032
933.712	418
933.807	598
933.902	-38
933.997	818
934.092	-60
934.187	342
934.282	-392
934.376	539
934.471	-90
934.566	742
934.661	-593
934.755	896
934.850	285
934.945	1328
935.039	854
935.134	990
935.228	264
935.323	446
935.417	670
935.512	338
935.606	-419
935.701	-181
935.795	151
935.890	1022
935.984	121
936.079	1034
936.173	139
936.267	404
936.362	909
936.456	1311
936.550	1293
936.644	2446
936.738	2541
936.833	5418
936.927	14588
937.021	22145
937.115	3625
937.209	429
937.303	1777
937.397	118
937.491	241
937.585	1692
937.679	-62
937.773	839
937.867	342
937.961	895
938.055	689
938.149	1073
938.243	416
938.337	-755
938.430	-84
938.524	1014
938.618	524
938.712	1089
938.805	387
938.899	1099
938.993	641
939.086	706
939.180	982
939.274	1545
939.367	243
939.461	451
939.554	-457
939.648	795
939.741	295
939.835	1010
939.928	349
940.022	841
940.115	289
940.208	205
940.302	1112
940.395	974
940.488	-424
940.582	872
940.675	450
940.768	651
940.861	180
940.954	1685
941.048	221
941.141	361
941.234	-6
941.327	508
941.420	358
941.513	899
941.606	-189
941.699	1576
941.792	205
941.885	727
941.978	73
942.071	414
942.164	24
942.257	298
942.349	-132
942.442	421
942.535	-70
942.628	454
942.721	635
942.813	-603
942.906	883
942.999	-259
943.091	-1141
943.184	797
943.277	-474
943.369	1267
943.462	34
943.554	717
943.647	-218
943.739	744
943.832	-99
943.924	100
944.017	400
944.109	-443
944.201	16
944.294	789
944.386	-337
944.478	-185
944.571	-33
944.663	1022
944.755	27
944.847	685
944.940	738
945.032	562
945.124	223
945.216	1194
945.308	46
945.400	942
945.492	1348
945.584	2919
945.676	680
945.768	106
945.860	285
945.952	146
946.044	-257
946.136	476
946.228	-435
946.320	-71
946.412	-711
946.503	-433
946.595	1303
946.687	-299
946.779	127
946.870	-110
946.962	-617
947.054	-371
947.145	893
947.237	368
947.329	543
947.420	327
947.512	-593
947.603	95
947.695	293
947.786	66
947.878	-537
947.969	122
948.061	-648
948.152	159
948.243	-260
948.335	1020
948.426	-332
948.517	260
948.609	-211
948.700	274
948.791	-85
948.882	807
948.973	-345
949.065	896
949.156	408
949.247	49
949.338	-179
949.429	-412
949.520	580
949.611	-854
949.702	-113
949.793	311
949.884	541
949.975	581
950.066	-111
950.157	8
950.247	209
950.338	74
950.429	-14
950.520	822
950.611	368
950.701	-420
950.792	-22
950.883	932
950.973	190
951.064	241
951.155	-360
951.245	930
951.336	872
951.427	-742
951.517	180
951.608	-31
951.698	-160
951.788	1169
951.879	-774
951.969	562
952.060	-609
952.150	439
952.240	23
952.331	-1697
952.421	1699
952.511	625
952.602	-341
952.692	-12
952.782	637
952.872	98
952.962	-441
953.052	285
953.143	-1105
953.233	348
953.323	228
953.413	138
953.503	127
953.593	5
953.683	-189
953.773	-591
953.863	-144
953.953	-222
954.042	545
954.132	223
954.222	1262
954.312	76
954.402	793
954.492	944
954.581	309
954.671	-287
954.761	-1473
954.850	145
954.940	-190
955.030	788
955.119	-706
955.209	491
955.298	-868
955.388	269
955.477	1430
955.567	-133
955.656	72
955.746	560
955.835	440
955.925	-789
956.014	403
956.103	-125
956.193	-107
956.282	685
956.371	-143
956.461	278
956.550	-168
956.639	-422
956.728	-916
956.817	328
956.906	-150
956.995	481
957.085	326
957.174	1037
957.263	933
957.352	425
957.441	92
957.530	739
957.619	646
957.708	122
957.796	174
957.885	755
957.974	98
958.063	981
958.152	-349
958.241	1070
958.329	1633
958.418	675
958.507	-462
958.596	1123
958.684	611
958.773	1656
958.861	1051
958.950	1797
959.039	1119
959.127	889
959.216	1013
959.304	1839
959.393	-36
959.481	1510
959.570	946
959.658	1214
959.746	852
959.835	1479
959.923	1395
960.011	1125
960.100	1517
960.188	710
960.276	411
960.365	196
960.453	-189
960.541	778
960.629	1213
960.717	2154
960.805	3333
960.893	5456
960.981	774
961.069	1146
961.158	681
961.245	644
961.333	362
961.421	33
961.509	-246
961.597	358
961.685	-27
961.773	83
961.861	-372
961.949	527
962.036	-521
962.124	661
962.212	-351
962.299	-1
962.387	-432
962.475	-371
962.562	-1138
962.650	1339
962.738	226
962.825	623
962.913	13
963.000	-163
963.088	-244
963.175	-166
963.263	-1163
963.350	-446
963.438	-385
963.525	434
963.612	1085
963.700	763
963.787	4847
963.874	1938
963.962	173
964.049	21
964.136	145
964.223	-118
964.310	-804
964.398	-390
964.485	138
964.572	541
964.659	542
964.746	631
964.833	417
964.920	319
965.007	-550
965.094	237
965.181	-379
965.268	484
965.355	-316
965.441	-7
965.528	-1180
965.615	352
965.702	-848
965.789	-961
965.875	11
965.962	-578
966.049	-1012
966.136	527
966.222	-1138
966.309	277
966.395	-837
966.482	707
966.569	-729
966.655	613
966.742	-841
966.828	649
966.915	-696
967.001	-32
967.087	-1047
967.174	-174
967.260	-590
967.347	-174
967.433	861
967.519	3368
967.605	434
967.692	-647
967.778	-62
967.864	-412
967.950	-1340
968.036	-754
968.123	-295
968.209	-429
968.295	-1015
968.381	1147
968.467	35
968.553	-1080
968.639	51
968.725	-1162
968.811	-496
968.897	1123
968.983	-453
969.069	-1290
969.154	29
969.240	775
969.326	-884
969.412	-1466
969.497	-909
969.583	-100
969.669	319
969.755	-1218
969.840	-800
969.926	78
970.012	-1362
970.097	33
970.183	-1120
970.268	-242
970.354	35
970.439	-193
970.525	1521
970.610	-699
970.696	-397
970.781	-454
970.866	-1864
970.952	-20
971.037	-1149
971.122	-456
971.208	-267
971.293	693
971.378	-1435
971.463	-454
971.549	-296
971.634	-115
971.719	-1019
971.804	171
971.889	-73
971.974	117
972.059	-219
972.144	558
972.229	-463
972.314	-381
972.399	-156
972.484	-516
972.569	-509
972.654	-759
972.739	446
972.824	-79
972.908	-710
972.993	-274
973.078	-766
973.163	-864
973.247	-770
973.332	-2037
973.417	510
973.501	-1024
973.586	-766
973.671	-473
973.755	-7
973.840	64
973.924	177
974.009	-383
974.093	-1231
974.178	832
974.262	-1017
974.346	-361
974.431	-915
974.515	-267
974.600	-491
974.684	-98
974.768	-678
974.852	-146
974.937	-2096
975.021	532
975.105	-629
975.189	-437
975.273	-845
975.358	-940
975.442	-908
975.526	51
975.610	-1538
975.694	-930
975.778	657
975.862	-254
975.946	-2554
976.030	651
976.114	-1521
976.198	258
976.281	-1222
976.365	168
976.449	-805
976.533	-133
976.617	-1576
976.700	-909
976.784	-563
976.868	-1180
976.951	-356
977.035	-231
977.119	-134
977.202	-773
977.286	-212
977.369	-416
977.453	-291
977.536	-788
977.620	-1419
977.703	-222
977.787	-1649
977.870	760
977.953	374
978.037	-1570
978.120	198
978.203	-349
978.287	56
978.370	-481
978.453	-1335
978.536	136
978.620	-55
978.703	116
978.786	-1928
978.869	-726
978.952	-1617
979.035	187
979.118	-908
979.201	-1452
979.284	-735
979.367	-914
979.450	-652
979.533	-1263
979.616	-340
979.699	-731
979.782	-707
979.865	-899
979.948	-1833
980.030	-625
980.113	-997
980.196	-1407
980.279	-367
980.361	-584
980.444	-1381
980.526	-121
980.609	-491
980.692	-913
980.774	-82
980.857	-1573
980.939	-277
981.022	-559
981.104	-1697
981.187	-678
981.269	-451
981.352	-1032
981.434	-2401
981.516	-129
981.599	395
981.681	325
981.763	-305
981.846	-130
981.928	-665
982.010	-986
982.092	-1315
982.174	227
982.256	-1497
982.339	-900
982.421	-1006
982.503	240
982.585	-2362
982.667	18
982.749	-215
982.831	339
982.913	-677
982.995	1635
983.077	-1119
983.158	1027
983.240	-2428
983.322	-106
983.404	-196
983.486	-1570
983.568	-741
983.649	-945
983.731	-1005
983.813	-1097
983.894	-946
983.976	-1360
984.058	-862
984.139	291
984.221	-2228
984.302	11
984.384	-1423
984.465	-628
984.547	-84
984.628	-1239
984.710	-534
984.791	-536
984.872	-981
984.954	-650
985.035	-1210
985.116	-1325
985.198	-1294
985.279	878
985.360	-1364
985.441	117
985.522	-1070
985.604	-628
985.685	-3086
985.766	99
985.847	54
985.928	-453
986.009	-447
986.090	-833
986.171	-515
986.252	-766
986.333	-1420
986.414	-1042
986.495	129
986.576	-808
986.656	-719
986.737	-30
986.818	-1975
986.899	-1754
986.980	-1049
987.060	276
987.141	-890
987.222	-45
987.302	-1085
987.383	-412
987.464	-1220
987.544	-547
987.625	-879
987.705	-515
987.786	-1075
987.866	-313
987.947	-1317
988.027	-1519
988.108	-1052
988.188	-233
988.268	-640
988.349	-852
988.429	-24
988.509	-321
988.589	-1070
988.670	-2265
988.750	890
988.830	-1277
988.910	-827
988.990	-882
989.070	-616
989.151	-152
989.231	-1818
989.311	-794
989.391	-944
989.471	-315
989.551	-1543
989.631	-1028
989.711	-1001
989.791	-1526
989.870	-1938
989.950	226
990.030	-1244
990.110	-850
990.190	-1548
990.269	-1251
990.349	-833
990.429	-255
990.509	-596
990.588	-1501
990.668	-809
990.747	-558
990.827	-910
990.907	-321
990.986	-1611
991.066	-512
991.145	-1013
991.225	-63
991.304	-1126
991.383	134
991.463	-1197
991.542	113
991.622	-1639
991.701	-1347
991.780	-861
991.859	-662
991.939	-1107
992.018	-849
992.097	-1108
992.176	-1227
992.256	-1584
992.335	-1310
992.414	-1399
992.493	-728
992.572	-1648
992.651	-98
992.730	-812
992.809	-664
992.888	-1683
992.967	-1090
993.046	-847
993.125	-1843
993.203	147
993.282	-261
993.361	-960
993.440	-552
993.519	-1713
993.597	-591
993.676	-445
993.755	62
993.834	-1045
993.912	-1440
993.991	72
994.069	-1600
994.148	-1275
994.226	-752
994.305	-1651
994.384	-1081
994.462	-283
994.540	-1730
994.619	-1620
994.697	-376
994.776	-2164
994.854	-140
994.932	-1746
995.011	-726
995.089	-1146
995.167	-541
995.245	-507
995.324	-1049
995.402	-414
995.480	-1199
995.558	-1379
995.636	-1419
995.714	-1215
995.792	265
995.870	-2386
995.948	-1048
996.026	-1746
996.104	-2534
996.182	-200
996.260	-1317
996.338	-694
996.416	-2071
996.494	-1357
996.572	-406
996.649	-1545
996.727	-1144
996.805	-921
996.883	-1083
996.960	-1318
997.038	-753
997.116	-728
997.193	-1092
997.271	-1203
997.348	-1437
997.426	-1379
997.504	-1054
997.581	-1344
997.658	-809
997.736	-1666
997.813	-918
997.891	-455
997.968	-1213
998.046	-1305
998.123	-267
998.200	-1405
998.277	-1458
998.355	-321
998.432	-2313
998.509	-1492
998.586	-280
998.663	-297
998.741	-748
998.818	-1262
998.895	-1668
998.972	-1437
999.049	-1129
999.126	-1996
999.203	-27
999.280	-1876
999.357	-1452
999.434	-1363
999.511	-600
999.587	-791
999.664	-515
999.741	-366
999.818	-266
999.895	-1587
999.971	-1385
1000.048	-501
1000.125	246
1000.202	-1511
1000.278	-771
1000.355	-1885
1000.431	-1172
1000.508	-2141
1000.584	-723
1000.661	-840
1000.738	-1137
1000.814	-1073
1000.890	-480
1000.967	-1696
1001.043	-1278
1001.120	-2859
1001.196	-1288
1001.272	-1694
1001.349	-1182
1001.425	-1175
1001.501	-1101
1001.577	-1003
1001.654	-1067
1001.730	-1146
1001.806	-265
1001.882	-1685
1001.958	-240
1002.034	-1178
1002.110	23
1002.186	-2195
1002.262	-990
1002.338	-2665
1002.414	-654
1002.490	-271
1002.566	-1374
1002.642	-1364
1002.718	-1283
1002.794	-1610
1002.870	-996
1002.945	-809
1003.021	-963
1003.097	454
1003.173	23
1003.248	-1356
1003.324	-788
1003.400	-1512
1003.475	-726
1003.551	-1087
1003.626	-1400
1003.702	-1392
1003.777	-1088
1003.853	-678
1003.928	-432
1004.004	-2039
1004.079	315
1004.155	-1318
1004.230	-1897
1004.305	-675
1004.381	-1142
1004.456	-959
1004.531	-1218
1004.607	-879
1004.682	-1193
1004.757	-1521
1004.832	-636
1004.907	-1800
1004.982	-846
1005.057	-768
1005.133	-1010
1005.208	-1706
1005.283	-1218
1005.358	-507
1005.433	-1571
1005.508	-695
1005.583	-1724
1005.657	-2246
1005.732	-41
1005.807	-1063
1005.882	-1820
1005.957	-1601
1006.032	-952
1006.106	-1857
1006.181	-1261
1006.256	-1156
1006.331	-1614
1006.405	-2048
1006.480	-1773
1006.554	-1268
1006.629	-1183
1006.704	-1091
1006.778	-1174
1006.853	-1099
1006.927	-1382
1007.002	-1372
1007.076	-719
1007.150	-1372
1007.225	-651
1007.299	-1390
1007.373	-1802
1007.448	-1148
1007.522	-1336
1007.596	-1455
1007.671	-1891
1007.745	-1256
1007.819	-1156
1007.893	-1593
1007.967	-251
1008.041	-3212
1008.115	-421
1008.190	-2013
1008.264	-743
1008.338	-2321
1008.412	-1378
1008.486	-1555
1008.560	-853
1008.633	-1907
1008.707	-1428
1008.781	-1283
1008.855	-1255
1008.929	-2196
1009.003	-1460
1009.076	-1938
1009.150	-1296
1009.224	-1896
1009.298	-705
1009.371	-1435
1009.445	-937
1009.519	-1821
1009.592	-2103
1009.666	-1069
1009.739	-698
1009.813	-3327
1009.886	-545
1009.960	-2537
1010.033	-843
1010.107	-591
1010.180	-2398
1010.253	-1730
1010.327	-1707
1010.400	-1717
1010.473	-846
1010.547	-577
1010.620	-1379
1010.693	-1824
1010.766	-1722
1010.840	-1743
1010.913	-1241
1010.986	-1822
1011.059	-1471
1011.132	-1613
1011.205	-956
1011.278	-1775
1011.351	-1037
1011.424	-1795
1011.497	-1262
1011.570	-1976
1011.643	-2236
1011.716	-1985
1011.789	-1305
1011.862	-1710
1011.934	36
1012.007	-3010
1012.080	-692
1012.153	-1299
1012.225	-864
1012.298	-1607
1012.371	-1119
1012.443	-1245
1012.516	-2155
1012.588	-987
1012.661	-796
1012.733	-1585
1012.806	-154
1012.879	-1691
1012.951	-628
1013.023	-1820
1013.096	-647
1013.168	-1532
1013.241	-19
1013.313	-2220
1013.385	-1981
1013.458	-1561
1013.530	-1295
1013.602	-2058
1013.674	-984
1013.746	-1902
1013.819	-1638
1013.891	-1170
1013.963	-858
1014.035	-1644
1014.107	-1488
1014.179	-1237
1014.251	-2117
1014.323	-1859
1014.395	-1037
1014.467	-1550
1014.539	-953
1014.611	-2153
1014.683	-1128
1014.754	-1681
1014.826	-1623
1014.898	-1080
1014.970	-1905
1015.042	-703
1015.113	-1193
1015.185	-2266
1015.257	-1977
1015.328	-1240
1015.400	-736
1015.471	-1289
1015.543	-1628
1015.615	-1547
1015.686	-502
1015.757	-2454
1015.829	-1467
1015.901	-1642
1015.972	-1022
1016.043	-1750
1016.115	-884
1016.186	-2183
1016.257	-1856
1016.328	-2341
1016.400	-470
1016.471	-2429
1016.542	-1992
1016.613	-1359
1016.685	-1305
1016.756	-1394
1016.827	-1360
1016.898	-1812
1016.969	-308
1017.040	-2339
1017.111	-2462
1017.182	-2132
1017.253	-1931
1017.324	-2187
1017.395	-1806
1017.466	-1907
1017.537	-1428
1017.608	-1984
1017.678	-1648
1017.749	-1554
1017.820	-1024
1017.891	-2378
1017.961	-2391
1018.032	-1702
1018.103	-515
1018.173	-1836
1018.244	-1976
1018.315	-1633
1018.385	-765
1018.456	-1972
1018.526	-2062
1018.597	-1570
1018.667	-910
1018.738	-1617
1018.808	-842
1018.878	-2106
1018.949	-1052
1019.019	-1417
1019.089	-929
1019.160	-1643
1019.230	-1519
1019.300	-1605
1019.371	-1772
1019.441	-1687
1019.511	-1483
1019.581	-1611
1019.651	-1415
1019.721	-1824
1019.791	-1246
1019.861	-2157
1019.931	-999
1020.001	-2093
1020.071	-1395
1020.141	-2126
1020.211	-1644
1020.281	-1956
1020.351	-1712
1020.421	-1153
1020.491	-533
1020.560	-2064
1020.630	-1401
1020.700	-2114
1020.770	-1576
1020.839	-2777
1020.909	-1557
1020.979	-2663
1021.048	-1826
1021.118	-2742
1021.187	-1858
1021.257	-2534
1021.326	-1043
1021.396	-1223
1021.465	-1473
1021.535	-1820
1021.604	-1894
1021.674	-2576
1021.743	-845
1021.812	-2062
1021.882	-866
1021.951	-1894
1022.020	-1529
1022.089	-1127
1022.159	-1386
1022.228	-2182
1022.297	-1566
1022.366	-1587
1022.435	-765
1022.504	-1918
1022.573	-1785
1022.642	-1566
1022.711	-1851
1022.781	-1769
1022.849	-1393
1022.918	-2194
1022.987	-1795
1023.056	-1916
1023.125	-1123
1023.194	-1384
1023.263	-1053
1023.331	-1185
1023.400	-1658
1023.469	-2684
1023.538	-1207
1023.606	-2634
1023.675	-1826
1023.744	-2582
1023.812	-1665
1023.881	-2714
1023.949	-1817
1024.018	-2029
1024.086	-1030
1024.155	-1632
1024.223	-1671
1024.292	-2237
1024.360	-877
1024.429	-2290
1024.497	-1838
1024.565	-1472
1024.634	-2205
1024.702	-1700
1024.770	-565
1024.838	-2121
1024.907	-1926
1024.975	-1752
1025.043	-1150
1025.111	-2399
1025.179	-1236
1025.247	-1706
1025.315	-2101
1025.383	-2311
1025.451	-1063
1025.519	-1689
1025.587	-1698
1025.655	-2192
1025.723	-1828
1025.791	-2330
1025.859	-1471
1025.927	-1834
1025.995	-1985
1026.062	-1800
1026.130	-1297
1026.198	-2135
1026.266	-1829
1026.333	-1573
1026.401	-1120
1026.469	-1602
1026.536	-1195
1026.604	-1944
1026.671	-1778
1026.739	-2039
1026.806	-2218
1026.874	-1968
1026.941	-1317
1027.009	-2507
1027.076	-1543
1027.144	-2308
1027.211	-2281
1027.278	-1909
1027.345	-1491
1027.413	-1057
1027.480	-1559
1027.547	-1724
1027.614	-1553
1027.682	-1705
1027.749	-2435
1027.816	-2035
1027.883	-849
1027.950	-1812
1028.017	-1678
1028.084	-2035
1028.151	-1828
1028.218	-1891
1028.285	-2150
1028.352	-2135
1028.419	-2118
1028.486	-3082
1028.553	-1869
1028.619	-2416
1028.686	-1658
1028.753	-2529
1028.820	-1981
1028.886	-2045
1028.953	-1812
1029.020	-1620
1029.086	-1982
1029.153	-1811
1029.220	-2313
1029.286	-1573
1029.353	-1614
1029.419	-2166
1029.486	-1789
1029.552	-2035
1029.619	-1746
1029.685	-2250
1029.751	-2263
1029.818	-1250
1029.884	-1291
1029.951	-971
1030.017	-1784
1030.083	-1709
1030.149	-1652
1030.216	-2535
1030.282	-1551
1030.348	-2162
1030.414	-2501
1030.480	-2220
1030.546	-2491
1030.612	-2454
1030.678	-2455
1030.744	-2162
1030.810	-1687
1030.876	-1872
1030.942	-1336
1031.008	-1638
1031.074	-2430
1031.140	-2060
1031.206	-1644
1031.272	-1949
1031.337	-1757
1031.403	-2549
1031.469	-1436
1031.534	-2439
1031.600	-1195
1031.666	-2448
1031.731	-1926
1031.797	-2143
1031.863	-1148
1031.928	-1840
1031.994	-1781
1032.059	-2550
1032.125	-1613
1032.190	-2298
1032.256	-1377
1032.321	-2152
1032.386	-1494
1032.452	-2358
1032.517	-1914
1032.582	-1247
1032.647	-1876
1032.713	-2454
1032.778	-1723
1032.843	-2208
1032.908	-2103
1032.974	-2071
1033.039	-2148
1033.104	-2301
1033.169	-2591
1033.234	-2091
1033.299	-628
1033.364	-1407
1033.429	-1186
1033.494	-1837
1033.559	-1591
1033.624	-2130
1033.688	-1731
1033.753	-1980
1033.818	-1646
1033.883	-2772
1033.948	-766
1034.013	-2110
1034.077	-1244
1034.142	-1487
1034.207	-1318
1034.271	-1773
1034.336	-1083
1034.400	-1461
1034.465	-842
1034.530	-1761
1034.594	-1966
1034.658	-1832
1034.723	-1811
1034.787	-2225
1034.852	-1467
1034.916	-2684
1034.981	-1494
1035.045	-1907
1035.109	-1986
1035.173	-1976
1035.238	-1998
1035.302	-1940
1035.366	-1322
1035.430	-2109
1035.495	-1240
1035.559	-1630
1035.623	-1568
1035.687	-1884
1035.751	-1538
1035.815	-2500
1035.879	-1411
1035.943	-1797
1036.007	-1593
1036.071	-2293
1036.135	-1444
1036.198	-1188
1036.262	-1397
1036.326	-1980
1036.390	-2657
1036.454	-1881
1036.517	-1164
1036.581	-2019
1036.645	-1175
1036.709	-843
1036.772	-1750
1036.836	-1768
1036.900	-1180
1036.963	-1415
1037.026	-1635
1037.090	-2135
1037.154	-1624
1037.217	-1677
1037.280	-2369
1037.344	-1964
1037.407	-2601
1037.471	-2099
1037.534	-1503
1037.597	-2842
1037.661	-2548
1037.724	-2041
1037.787	-2117
1037.850	-1585
1037.913	-2372
1037.977	-2247
1038.040	-1832
1038.103	-2150
1038.166	-2097
1038.229	-1794
1038.292	-2253
1038.355	-1646
1038.418	-2155
1038.481	-1846
1038.544	-1867
1038.607	-2151
1038.670	-1266
1038.732	-2459
1038.795	-2358
1038.858	-2531
1038.921	-1543
1038.984	-2940
1039.046	-1661
1039.109	-2741
1039.172	-2079
1039.234	-2128
1039.297	-2457
1039.360	-2687
1039.422	-1655
1039.485	-1281
1039.547	-2100
1039.610	-2225
1039.672	-2045
1039.734	-2364
1039.797	-2213
1039.859	-2752
1039.922	-2169
1039.984	-2425
1040.046	-2012
1040.109	-2153
1040.171	-2499
1040.233	-2018
1040.295	-2502
1040.358	-2257
1040.420	-1758
1040.482	-1981
1040.544	-2403
1040.606	-2484
1040.668	-1620
1040.730	-2621
1040.792	-2421
1040.854	-2737
1040.916	-1299
1040.978	-2521
1041.040	-1260
1041.102	-3085
1041.164	-2046
1041.225	-2452
1041.287	-2519
1041.349	-2679
1041.411	-2266
1041.472	-2483
1041.534	-1264
1041.596	-3009
1041.657	-1445
1041.719	-1953
1041.781	-1790
1041.842	-2352
1041.904	-1586
1041.965	-2683
1042.027	-2267
1042.088	-2045
1042.150	-2125
1042.211	-2560
1042.272	-2072
1042.334	-2525
1042.395	-1669
1042.456	-3015
1042.518	-1627
1042.579	-1823
1042.640	-2272
1042.701	-2576
1042.763	-1448
1042.824	-2085
1042.885	-2289
1042.946	-2742
1043.007	-1666
1043.068	-2820
1043.129	-1925
1043.190	-2154
1043.251	-1477
1043.312	-2626
1043.373	-1175
1043.434	-2258
1043.495	-2462
1043.556	-2366
1043.616	-2501
1043.677	-2269
1043.738	-2151
1043.799	-1764
1043.859	-3116
1043.920	-1853
1043.981	-1843
1044.041	-1836
1044.102	-2375
1044.162	-2014
1044.223	-2117
1044.284	-1983
1044.344	-2547
1044.405	-2030
1044.465	-1863
1044.525	-1917
1044.586	-1555
1044.646	-2502
1044.707	-1211
1044.767	-1690
1044.827	-1984
1044.887	-3420
1044.948	-1497
1045.008	-2442
1045.068	-2107
1045.128	-1848
1045.188	-1375
1045.249	-2155
1045.309	-2053
1045.369	-1227
1045.429	-2142
1045.489	-1950
1045.549	-1535
1045.609	-1753
1045.669	-1887
1045.729	-2122
1045.789	-1692
1045.848	-1969
1045.908	-1193
1045.968	-1702
1046.028	-1664
1046.088	-1052
1046.147	-1264
1046.207	-2192
1046.267	-1413
1046.326	-1665
1046.386	-1957
1046.446	-1386
1046.505	-691
1046.565	-1577
1046.624	-1691
1046.684	-1217
1046.743	-1247
1046.803	-546
1046.862	-634
1046.922	0
