'Start Wavelength	183.907
'End Wavelength	1046.922
'Gate Delay	5.000
'Gate Width (ms)	1.050
'Laser Output Level	0.000
'X Position	0.000
'Y Position	0.000
'Z Position	0.000
'Grid Point Number	1.000
'Shot Number	100.000
183.907	938.000
183.977	-1276.000
184.047	-202
184.116	562
184.186	-42
184.256	105
184.325	840
184.395	-1052
184.465	914
184.534	429
184.604	-281
184.674	297
184.743	362
184.813	136
184.883	207
184.952	-415
185.022	1001
185.092	-294
185.161	129
185.231	478
185.301	753
185.370	986
185.440	788
185.509	-889
185.579	967
185.649	44
185.718	1040
185.788	413
185.857	900
185.927	-96
185.996	517
186.066	-395
186.136	-405
186.205	229
186.275	1007
186.344	385
186.414	394
186.483	149
186.553	1579
186.622	187
186.692	1714
186.761	-67
186.831	401
186.900	-535
186.970	1016
187.039	438
187.109	1545
187.178	270
187.248	849
187.317	-178
187.387	456
187.456	-386
187.526	354
187.595	-59
187.664	331
187.734	488
187.803	790
187.873	-578
187.942	27
188.012	104
188.081	398
188.150	87
188.220	1181
188.289	1160
188.358	1000
188.428	185
188.497	69
188.567	1123
188.636	326
188.705	54
188.775	83
188.844	-719
188.913	820
188.983	7
189.052	866
189.121	221
189.191	-29
189.260	-478
189.329	567
189.399	-75
189.468	705
189.537	-420
189.606	282
189.676	44
189.745	463
189.814	520
189.883	91
189.953	-686
190.022	511
190.091	-871
190.161	-245
190.230	271
190.299	-224
190.368	-149
190.437	-394
190.507	-818
190.576	243
190.645	571
190.714	222
190.783	514
190.853	1044
190.922	240
190.991	1191
191.060	-291
191.129	727
191.198	153
191.268	-257
191.337	-714
191.406	803
191.475	499
191.544	-103
191.613	258
191.682	27
191.752	-208
191.821	909
191.890	-450
191.959	465
192.028	100
192.097	578
192.166	941
192.235	148
192.304	-89
192.373	-47
192.442	-124
192.511	313
192.580	-93
192.650	201
192.719	322
192.788	826
192.857	43
192.926	-110
192.995	54
193.064	1937
193.133	-213
193.202	164
193.271	405
193.340	73
193.409	315
193.478	1007
193.547	77
193.615	-526
193.684	48
193.753	918
193.822	83
193.891	288
193.960	354
194.029	610
194.098	-762
194.167	323
194.236	49
194.305	597
194.374	570
194.443	214
194.512	420
194.580	776
194.649	215
194.718	526
194.787	290
194.856	210
194.925	109
194.994	460
195.062	56
195.131	311
195.200	-343
195.269	557
195.338	-605
195.407	608
195.475	32
195.544	813
195.613	576
195.682	999
195.751	727
195.819	-45
195.888	519
195.957	1153
196.026	-59
196.094	238
196.163	87
196.232	734
196.301	-866
196.369	487
196.438	-233
196.507	856
196.576	-2
196.644	712
196.713	-17
196.782	877
196.850	388
196.919	957
196.988	575
197.056	-590
197.125	324
197.194	361
197.262	-2
197.331	837
197.400	-594
197.468	782
197.537	-692
197.606	103
197.674	16
197.743	985
197.812	32
197.880	-186
197.949	-553
198.017	710
198.086	79
198.155	-127
198.223	129
198.292	511
198.360	-272
198.429	-406
198.497	-200
198.566	484
198.635	427
198.703	4
198.772	546
198.840	155
198.909	311
198.977	424
199.046	951
199.114	759
199.183	348
199.251	-63
199.320	-717
199.388	290
199.457	-134
199.525	1068
199.594	-139
199.662	-76
199.731	33
199.799	1398
199.867	-255
199.936	533
200.004	503
200.073	920
200.141	-497
200.210	124
200.278	270
200.346	920
200.415	35
200.483	682
200.552	212
200.620	648
200.688	172
200.757	382
200.825	192
200.893	982
200.962	-133
201.030	71
201.098	-655
201.167	1310
201.235	417
201.303	3
201.372	603
201.440	794
201.508	693
201.577	915
201.645	424
201.713	695
201.781	-52
201.850	1559
201.918	759
201.986	190
202.055	464
202.123	113
202.191	924
202.259	576
202.327	606
202.396	902
202.464	199
202.532	1811
202.600	2683
202.669	2581
202.737	740
202.805	344
202.873	511
202.941	325
203.009	566
203.078	204
203.146	-348
203.214	76
203.282	-805
203.350	515
203.418	-1294
203.487	1384
203.555	-13
203.623	524
203.691	-68
203.759	-206
203.827	387
203.895	532
203.963	423
204.031	-513
204.099	335
204.168	166
204.236	-65
204.304	373
204.372	116
204.440	-67
204.508	-350
204.576	-687
204.644	-161
204.712	-210
204.780	-221
204.848	-1
204.916	352
204.984	571
205.052	58
205.120	-566
205.188	36
205.256	213
205.324	-561
205.392	-722
205.460	-59
205.528	-538
205.596	631
205.664	419
205.732	-774
205.799	278
205.867	-308
205.935	-228
206.003	215
206.071	411
206.139	-880
206.207	724
206.275	-54
206.343	-456
206.411	80
206.478	572
206.546	-323
206.614	720
206.682	-819
206.750	587
206.818	461
206.885	1424
206.953	-998
207.021	633
207.089	41
207.157	-1034
207.225	498
207.292	-891
207.360	-93
207.428	-466
207.496	25
207.563	695
207.631	668
207.699	-115
207.767	-467
207.834	-10
207.902	128
207.970	120
208.038	-275
208.105	738
208.173	-59
208.241	388
208.309	-45
208.376	-505
208.444	187
208.512	158
208.579	-461
208.647	814
208.715	923
208.782	-48
208.850	-775
208.918	-562
208.985	-596
209.053	228
209.120	70
209.188	126
209.256	-46
209.323	-550
209.391	-513
209.459	1363
209.526	-435
209.594	144
209.661	43
209.729	699
209.796	299
209.864	1042
209.932	-1327
209.999	1233
210.067	196
210.134	-5
210.202	187
210.269	733
210.337	1897
210.404	725
210.472	-20
210.539	-313
210.607	164
210.674	452
210.742	-540
210.809	422
210.877	-45
210.944	45
211.012	-851
211.079	1663
211.146	122
211.214	740
211.281	1465
211.349	1275
211.416	24
211.484	878
211.551	-382
211.618	268
211.686	304
211.753	409
211.821	396
211.888	642
211.955	-49
212.023	-56
212.090	-35
212.157	-108
212.225	507
212.292	838
212.359	81
212.427	1799
212.494	281
212.561	632
212.629	-949
212.696	-1407
212.763	220
212.831	-329
212.898	4
212.965	-617
213.032	-61
213.100	-82
213.167	-444
213.234	999
213.301	-268
213.369	-110
213.436	-400
213.503	-684
213.570	-691
213.638	-961
213.705	-61
213.772	-433
213.839	-563
213.906	128
213.973	-417
214.041	-907
214.108	414
214.175	-284
214.242	-502
214.309	336
214.376	321
214.444	-601
214.511	-354
214.578	-310
214.645	855
214.712	18
214.779	-424
214.846	-618
214.913	489
214.980	1178
215.048	537
215.115	1627
215.182	579
215.249	388
215.316	-70
215.383	1117
215.450	-92
215.517	42
215.584	416
215.651	29
215.718	-153
215.785	354
215.852	-905
215.919	495
215.986	-212
216.053	39
216.120	-978
216.187	70
216.254	-594
216.321	267
216.388	-129
216.455	142
216.522	-73
216.589	364
216.656	-381
216.722	197
216.789	-241
216.856	226
216.923	-206
216.990	70
217.057	-455
217.124	975
217.191	-459
217.258	468
217.324	12
217.391	686
217.458	34
217.525	108
217.592	-539
217.659	-946
217.725	27
217.792	163
217.859	393
217.926	-310
217.993	-750
218.059	881
218.126	-655
218.193	194
218.260	-77
218.327	-211
218.393	-289
218.460	349
218.527	-951
218.594	-409
218.660	-353
218.727	211
218.794	-1589
218.860	367
218.927	-146
218.994	-652
219.061	-127
219.127	942
219.194	-211
219.261	206
219.327	-391
219.394	1025
219.461	-1167
219.527	152
219.594	711
219.661	716
219.727	-860
219.794	1138
219.860	-1153
219.927	810
219.994	1644
220.060	3254
220.127	3568
220.193	1766
220.260	90
220.326	656
220.393	-847
220.460	-693
220.526	-412
220.593	-282
220.659	683
220.726	567
220.792	291
220.859	1242
220.925	159
220.992	521
221.058	414
221.125	1689
221.191	454
221.258	-553
221.324	469
221.391	-332
221.457	-728
221.524	261
221.590	474
221.657	1422
221.723	634
221.789	526
221.856	759
221.922	-375
221.989	624
222.055	-79
222.121	-770
222.188	2135
222.254	519
222.321	489
222.387	-88
222.453	216
222.520	-260
222.586	116
222.652	479
222.719	165
222.785	-420
222.851	-222
222.918	223
222.984	-598
223.050	-584
223.116	-586
223.183	385
223.249	-384
223.315	-157
223.382	633
223.448	-106
223.514	-420
223.580	-95
223.647	-601
223.713	-1134
223.779	263
223.845	-5
223.911	97
223.978	-1219
224.044	-52
224.110	-747
224.176	461
224.242	-224
224.309	-263
224.375	216
224.441	346
224.507	-1124
224.573	-1953
224.639	33
224.705	-348
224.772	-377
224.838	-778
224.904	8
224.970	-365
225.036	-720
225.102	-983
225.168	666
225.234	536
225.300	-374
225.366	-77
225.432	-68
225.499	455
225.565	-272
225.631	-2
225.697	-812
225.763	-122
225.829	-765
225.895	-252
225.961	435
226.027	573
226.093	121
226.159	1168
226.225	868
226.291	639
226.357	280
226.423	-202
226.489	602
226.554	1093
226.620	345
226.686	340
226.752	-417
226.818	469
226.884	1698
226.950	1229
227.016	229
227.082	468
227.148	149
227.214	418
227.279	-133
227.345	702
227.411	567
227.477	3730
227.543	6597
227.609	8473
227.674	3343
227.740	2018
227.806	1532
227.872	1168
227.938	163
228.003	29
228.069	161
228.135	22
228.201	128
228.267	-154
228.332	-644
228.398	-1090
228.464	-698
228.530	-108
228.595	-362
228.661	-1135
228.727	-547
228.792	901
228.858	-241
228.924	-1157
228.990	1753
229.055	-740
229.121	265
229.187	-27
229.252	-943
229.318	-81
229.384	169
229.449	75
229.515	-2547
229.581	-455
229.646	2039
229.712	345
229.777	-526
229.843	474
229.909	-686
229.974	-46
230.040	-486
230.105	23
230.171	-659
230.236	513
230.302	-436
230.368	-224
230.433	-1132
230.499	215
230.564	104
230.630	-670
230.695	305
230.761	846
230.826	-1622
230.892	1520
230.957	-1378
231.023	-1258
231.088	-296
231.154	-446
231.219	137
231.284	221
231.350	93
231.415	-516
231.481	-28
231.546	523
231.612	479
231.677	-709
231.742	-941
231.808	1255
231.873	-1061
231.939	-1683
232.004	856
232.069	1448
232.135	-234
232.200	-342
232.265	684
232.331	-459
232.396	-356
232.461	-544
232.527	452
232.592	-812
232.657	-71
232.723	-101
232.788	91
232.853	691
232.918	-21
232.984	-538
233.049	-1013
233.114	-29
233.179	170
233.245	1172
233.310	480
233.375	-1558
233.440	375
233.506	15
233.571	-929
233.636	726
233.701	-800
233.766	-365
233.832	-154
233.897	248
233.962	-1335
234.027	934
234.092	253
234.157	393
234.222	99
234.288	1532
234.353	406
234.418	1493
234.483	146
234.548	406
234.613	-666
234.678	-23
234.743	-1217
234.808	2030
234.873	-723
234.938	1905
235.004	-753
235.069	-371
235.134	-941
235.199	834
235.264	-76
235.329	-936
235.394	-480
235.459	822
235.524	-1293
235.589	1128
235.654	-81
235.719	-549
235.784	293
235.849	176
235.913	-88
235.978	498
236.043	-129
236.108	1
236.173	-21
236.238	610
236.303	-806
236.368	-644
236.433	469
236.498	-38
236.563	58
236.627	19
236.692	1993
236.757	2145
236.822	416
236.887	-924
236.952	565
237.017	-1132
237.081	691
237.146	-304
237.211	573
237.276	2637
237.341	4875
237.405	965
237.470	649
237.535	387
237.600	-711
237.664	669
237.729	-1313
237.794	-671
237.859	859
237.923	480
237.988	-276
238.053	1140
238.118	263
238.182	1291
238.247	2593
238.312	-733
238.376	898
238.441	-1536
238.506	897
238.570	-1355
238.635	1483
238.700	-24
238.764	-149
238.829	514
238.893	-652
238.958	506
239.023	-576
239.087	12
239.152	312
239.216	276
239.281	-224
239.346	723
239.410	93
239.475	1139
239.539	1707
239.604	1701
239.668	1403
239.733	2066
239.797	4573
239.862	14679
239.926	10954
239.991	4439
240.055	1413
240.120	877
240.184	1306
240.249	153
240.313	-186
240.378	367
240.442	678
240.507	1438
240.571	-426
240.635	346
240.700	254
240.764	157
240.829	57
240.893	-1169
240.957	770
241.022	1486
241.086	1686
241.151	247
241.215	-744
241.279	1086
241.344	-292
241.408	1268
241.472	-540
241.537	1969
241.601	235
241.665	-1076
241.730	-1463
241.794	661
241.858	-423
241.922	474
241.987	231
242.051	250
242.115	-1700
242.179	627
242.244	-619
242.308	915
242.372	-391
242.436	-235
242.501	705
242.565	-789
242.629	-954
242.693	698
242.757	-1031
242.822	442
242.886	430
242.950	1445
243.014	-1397
243.078	688
243.142	-748
243.206	-368
243.271	-379
243.335	-597
243.399	722
243.463	543
243.527	3034
243.591	500
243.655	-229
243.719	-643
243.783	-184
243.847	318
243.911	356
243.975	-90
244.040	-931
244.104	1595
244.168	-256
244.232	-488
244.296	440
244.360	982
244.424	-581
244.488	902
244.552	397
244.615	-1475
244.679	21
244.743	-217
244.807	-752
244.871	786
244.935	617
244.999	-752
245.063	266
245.127	915
245.191	662
245.255	-193
245.319	489
245.383	-370
245.446	1201
245.510	-153
245.574	-6
245.638	803
245.702	-671
245.766	1376
245.829	1967
245.893	-496
245.957	-743
246.021	954
246.085	-619
246.149	838
246.212	1643
246.276	1329
246.340	-724
246.404	-36
246.467	1632
246.531	-968
246.595	582
246.659	1345
246.722	-928
246.786	130
246.850	-16
246.913	762
246.977	-1266
247.041	394
247.104	-32
247.168	222
247.232	680
247.295	2705
247.359	1831
247.423	691
247.486	193
247.550	1409
247.614	-409
247.677	1176
247.741	362
247.804	1507
247.868	4987
247.932	1248
247.995	3186
248.059	1379
248.122	-892
248.186	1738
248.249	661
248.313	3968
248.376	5614
248.440	2316
248.503	-932
248.567	1562
248.630	-276
248.694	617
248.757	1987
248.821	5909
248.884	3730
248.948	1660
249.011	3490
249.075	5927
249.138	5691
249.202	1748
249.265	-277
249.328	1656
249.392	93
249.455	1174
249.519	-156
249.582	1192
249.645	1130
249.709	1226
249.772	-114
249.835	691
249.899	24
249.962	1164
250.025	132
250.089	1855
250.152	2675
250.215	1261
250.279	-787
250.342	831
250.405	723
250.468	347
250.532	335
250.595	1062
250.658	4036
250.721	12893
250.785	2329
250.848	2909
250.911	42
250.974	1261
251.038	536
251.101	3944
251.164	554
251.227	1227
251.290	508
251.354	2244
251.417	7357
251.480	9537
251.543	3337
251.606	16735
251.669	13470
251.732	4064
251.795	2812
251.859	3800
251.922	9110
251.985	6531
252.048	1747
252.111	1116
252.174	-259
252.237	2039
252.300	6851
252.363	4084
252.426	15007
252.489	5008
252.552	1865
252.615	633
252.678	1208
252.741	5016
252.804	4134
252.867	15397
252.930	6639
252.993	3562
253.056	1777
253.119	1433
253.182	141
253.245	740
253.308	736
253.371	85
253.434	197
253.497	1246
253.559	2624
253.622	1440
253.685	541
253.748	1465
253.811	96
253.874	1773
253.937	875
254.000	1126
254.062	650
254.125	2817
254.188	2129
254.251	1089
254.314	169
254.376	502
254.439	1926
254.502	1590
254.565	1611
254.628	3147
254.690	1669
254.753	1000
254.816	-277
254.878	714
254.941	2129
255.004	1959
255.067	1007
255.129	805
255.192	1560
255.255	-26
255.317	266
255.380	1214
255.443	417
255.505	1652
255.568	-189
255.631	75
255.693	172
255.756	585
255.819	1651
255.881	849
255.944	283
256.006	1397
256.069	359
256.132	591
256.194	530
256.257	907
256.319	867
256.382	1680
256.444	2527
256.507	1548
256.569	-43
256.632	999
256.694	287
256.757	2252
256.819	4521
256.882	960
256.944	965
257.007	1882
257.069	382
257.132	698
257.194	1924
257.257	883
257.319	-216
257.381	228
257.444	1128
257.506	4756
257.569	5471
257.631	3374
257.693	1414
257.756	756
257.818	-694
257.880	623
257.943	1059
258.005	4
258.067	-419
258.130	429
258.192	-104
258.254	299
258.317	839
258.379	1519
258.441	1548
258.503	1975
258.566	1332
258.628	2999
258.690	-284
258.753	1584
258.815	707
258.877	496
258.939	411
259.001	2460
259.064	260
259.126	3
259.188	946
259.250	473
259.312	721
259.375	1600
259.437	926
259.499	1542
259.561	276
259.623	444
259.685	452
259.747	1173
259.809	1359
259.872	3850
259.934	4539
259.996	4447
260.058	1403
260.120	970
260.182	1690
260.244	1138
260.306	471
260.368	1081
260.430	18
260.492	992
260.554	1538
260.616	981
260.678	1630
260.740	2844
260.802	185
260.864	1881
260.926	-386
260.988	1628
261.050	328
261.112	727
261.174	3089
261.236	2646
261.298	508
261.359	1522
261.421	2497
261.483	135
261.545	959
261.607	-291
261.669	1009
261.731	1125
261.793	1238
261.854	427
261.916	1465
261.978	1617
262.040	774
262.102	1770
262.164	112
262.225	1369
262.287	676
262.349	1459
262.411	555
262.472	1971
262.534	517
262.596	2436
262.658	1353
262.719	699
262.781	981
262.843	2357
262.904	1471
262.966	2312
263.028	1808
263.090	2626
263.151	4891
263.213	2466
263.275	1852
263.336	1603
263.398	1937
263.459	327
263.521	751
263.583	1821
263.644	1608
263.706	1625
263.767	220
263.829	1953
263.891	406
263.952	1307
264.014	990
264.075	1690
264.137	699
264.198	1246
264.260	-256
264.321	967
264.383	179
264.444	1397
264.506	-73
264.567	982
264.629	1176
264.690	-116
264.752	-271
264.813	635
264.875	-38
264.936	1946
264.998	519
265.059	1546
265.120	1675
265.182	727
265.243	1543
265.305	2233
265.366	1739
265.427	1354
265.489	1702
265.550	854
265.611	610
265.673	1132
265.734	1005
265.795	1527
265.857	294
265.918	597
265.979	1375
266.040	3847
266.102	1937
266.163	1843
266.224	1558
266.286	1099
266.347	1070
266.408	1918
266.469	1217
266.530	1916
266.592	1717
266.653	2092
266.714	1968
266.775	1455
266.836	1255
266.898	1697
266.959	1578
267.020	1640
267.081	2497
267.142	3085
267.203	2414
267.264	2164
267.326	2848
267.387	2561
267.448	1818
267.509	2210
267.570	2319
267.631	1318
267.692	1101
267.753	2138
267.814	538
267.875	1140
267.936	1447
267.997	643
268.058	858
268.119	1158
268.180	199
268.241	599
268.302	1111
268.363	449
268.424	252
268.485	1191
268.546	-576
268.607	1571
268.668	227
268.729	611
268.790	220
268.851	1228
268.912	-292
268.972	1710
269.033	99
269.094	573
269.155	712
269.216	435
269.277	133
269.338	1723
269.398	494
269.459	141
269.520	354
269.581	1283
269.642	1147
269.702	170
269.763	543
269.824	1408
269.885	327
269.945	1033
270.006	374
270.067	481
270.128	261
270.188	1375
270.249	-795
270.310	1324
270.370	101
270.431	1213
270.492	-470
270.553	436
270.613	308
270.674	609
270.734	121
270.795	1074
270.856	425
270.916	1055
270.977	572
271.038	1982
271.098	16
271.159	1161
271.219	631
271.280	1040
271.340	1090
271.401	186
271.462	524
271.522	1411
271.583	130
271.643	1077
271.704	1110
271.764	870
271.825	1878
271.885	4489
271.946	7739
272.006	3699
272.066	2733
272.127	8048
272.187	7120
272.248	4918
272.308	1528
272.369	4779
272.429	3287
272.489	2139
272.550	2363
272.610	3574
272.671	1973
272.731	2381
272.791	2010
272.852	2657
272.912	2246
272.972	2425
273.033	2069
273.093	3466
273.153	3815
273.214	3521
273.274	3559
273.334	5783
273.394	7744
273.455	6227
273.515	6479
273.575	7735
273.635	6714
273.696	8443
273.756	10479
273.816	7855
273.876	6342
273.936	6381
273.997	6698
274.057	4314
274.117	2888
274.177	3838
274.237	5809
274.297	5693
274.358	3532
274.418	4022
274.478	3694
274.538	2072
274.598	703
274.658	2964
274.718	3567
274.778	2850
274.838	972
274.898	1821
274.958	3539
275.018	4922
275.078	3790
275.138	2659
275.198	889
275.258	824
275.318	921
275.378	1996
275.438	963
275.498	1520
275.558	2557
275.618	3677
275.678	2176
275.738	2639
275.798	1237
275.858	1548
275.918	623
275.978	1618
276.038	1217
276.098	1925
276.157	1318
276.217	2638
276.277	1019
276.337	1606
276.397	1433
276.457	2792
276.517	1369
276.576	1636
276.636	2050
276.696	1993
276.756	2443
276.815	1509
276.875	2695
276.935	3026
276.995	2040
277.055	3016
277.114	3424
277.174	3068
277.234	2436
277.293	2927
277.353	2125
277.413	2988
277.472	2418
277.532	3341
277.592	5258
277.651	17834
277.711	40399
277.771	14787
277.830	36167
277.890	36645
277.950	25414
278.009	68930
278.069	34089
278.128	27285
278.188	42380
278.248	21953
278.307	45081
278.367	32175
278.426	10268
278.486	6856
278.545	5420
278.605	5649
278.664	5153
278.724	5228
278.783	5465
278.843	9088
278.902	6066
278.962	6472
279.021	8228
279.081	21927
279.140	23075
279.199	12316
279.259	12711
279.318	17485
279.378	23150
279.437	36475
279.496	79216
279.556	194342
279.615	190468
279.675	87485
279.734	46153
279.793	45415
279.853	53095
279.912	25203
279.971	18123
280.031	17416
280.090	20856
280.149	29591
280.208	47506
280.268	143457
280.327	165654
280.386	66051
280.445	31553
280.505	19488
280.564	13226
280.623	11144
280.682	9792
280.742	9772
280.801	6195
280.860	6298
280.919	4851
280.978	6629
281.037	6359
281.097	5425
281.156	7200
281.215	6116
281.274	4118
281.333	5895
281.392	5653
281.451	3570
281.510	3628
281.569	3803
281.628	3655
281.688	4297
281.747	4688
281.806	4046
281.865	3147
281.924	2561
281.983	3116
282.042	2624
282.101	2891
282.160	3400
282.219	2681
282.278	2956
282.337	2237
282.396	3136
282.454	2789
282.513	3035
282.572	3831
282.631	2631
282.690	2513
282.749	2444
282.808	2943
282.867	2716
282.926	3029
282.985	4147
283.043	3147
283.102	4259
283.161	3362
283.220	4145
283.279	5992
283.338	4025
283.396	4192
283.455	5260
283.514	3903
283.573	4781
283.631	4491
283.690	5187
283.749	4635
283.808	5938
283.866	4685
283.925	6224
283.984	6014
284.043	6277
284.101	6122
284.160	7557
284.219	7633
284.277	8644
284.336	9259
284.395	12354
284.453	11981
284.512	13344
284.570	15017
284.629	17717
284.688	21827
284.746	26732
284.805	31744
284.863	41049
284.922	50613
284.981	61912
285.039	77450
285.098	101677
285.156	117898
285.215	81797
285.273	72410
285.332	108668
285.390	108864
285.449	87697
285.507	65518
285.566	51678
285.624	40152
285.683	32255
285.741	26635
285.799	23021
285.858	19177
285.916	16384
285.975	14009
286.033	11561
286.091	11803
286.150	9712
286.208	8705
286.267	7940
286.325	7211
286.383	7486
286.442	6500
286.500	6525
286.558	6455
286.616	5884
286.675	5625
286.733	5331
286.791	3840
286.850	5158
286.908	4519
286.966	5365
287.024	3293
287.083	3721
287.141	3636
287.199	3519
287.257	3020
287.315	3400
287.374	2479
287.432	3395
287.490	3304
287.548	2443
287.606	3149
287.664	2929
287.723	2948
287.781	3980
287.839	2599
287.897	2874
287.955	2878
288.013	3772
288.071	3856
288.129	11119
288.187	38920
288.245	17311
288.303	4689
288.361	4204
288.419	2563
288.477	3122
288.535	2289
288.593	2628
288.651	2182
288.709	1971
288.767	2392
288.825	2274
288.883	2024
288.941	2481
288.999	1827
289.057	2477
289.115	1328
289.173	1764
289.231	1196
289.289	1229
289.346	2180
289.404	1645
289.462	2092
289.520	2187
289.578	1322
289.636	2356
289.694	1366
289.751	1957
289.809	1523
289.867	1375
289.925	1794
289.983	1752
290.040	1562
290.098	892
290.156	953
290.214	879
290.271	1177
290.329	1673
290.387	1807
290.444	1691
290.502	1337
290.560	1561
290.617	858
290.675	1927
290.733	999
290.790	1909
290.848	1243
290.906	1272
290.963	1193
291.021	1195
291.078	1473
291.136	1265
291.194	1175
291.251	2163
291.309	1107
291.366	1792
291.424	1351
291.481	2635
291.539	3363
291.596	6262
291.654	2220
291.711	2366
291.769	1400
291.826	1758
291.884	1035
291.941	604
291.999	952
292.056	1367
292.114	1638
292.171	2293
292.228	1482
292.286	1520
292.343	1091
292.401	2192
292.458	1330
292.515	2236
292.573	1792
292.630	2567
292.687	1944
292.745	1122
292.802	1577
292.859	4063
292.917	7965
292.974	3525
293.031	1970
293.089	1392
293.146	1229
293.203	1864
293.260	1294
293.318	1794
293.375	1318
293.432	1817
293.489	2097
293.546	1998
293.604	2948
293.661	10110
293.718	15030
293.775	6963
293.832	5918
293.889	8627
293.947	6042
294.004	3852
294.061	2040
294.118	3417
294.175	4621
294.232	10470
294.289	7573
294.346	4595
294.403	3166
294.460	2992
294.517	1262
294.574	1807
294.631	1566
294.688	1799
294.745	1065
294.802	4742
294.859	4495
294.916	2275
294.973	1918
295.030	1575
295.087	1076
295.144	1503
295.201	1029
295.258	1462
295.315	1645
295.372	1991
295.429	3697
295.486	2598
295.542	1452
295.599	1882
295.656	1274
295.713	2413
295.770	2695
295.827	2183
295.883	804
295.940	1371
295.997	950
296.054	1018
296.111	746
296.167	1982
296.224	530
296.281	884
296.338	561
296.394	299
296.451	518
296.508	1624
296.564	2360
296.621	2954
296.678	4301
296.734	7727
296.791	3087
296.848	2491
296.904	1148
296.961	2309
297.018	3127
297.074	3133
297.131	2007
297.187	1652
297.244	617
297.301	3742
297.357	8377
297.414	3446
297.470	2228
297.527	2102
297.583	647
297.640	1885
297.696	1148
297.753	895
297.809	1047
297.866	1090
297.922	1247
297.979	1857
298.035	195
298.092	1354
298.148	1857
298.204	2662
298.261	1084
298.317	3059
298.374	5738
298.430	4233
298.486	1602
298.543	1937
298.599	1615
298.656	1299
298.712	1164
298.768	2783
298.824	1107
298.881	1651
298.937	1152
298.993	1890
299.050	822
299.106	1046
299.162	850
299.218	1854
299.275	1319
299.331	2071
299.387	2872
299.443	7637
299.500	18890
299.556	16712
299.612	6164
299.668	5669
299.724	14131
299.780	21271
299.837	7630
299.893	5545
299.949	11265
300.005	20646
300.061	13642
300.117	25317
300.173	11751
300.229	4857
300.285	3329
300.341	3652
300.397	2946
300.453	2730
300.510	2549
300.566	3515
300.622	6000
300.678	22502
300.734	33193
300.790	14246
300.845	9675
300.901	13833
300.957	22339
301.013	11009
301.069	4653
301.125	3502
301.181	3146
301.237	2080
301.293	1333
301.349	2094
301.405	1407
301.461	1459
301.516	1416
301.572	1513
301.628	1651
301.684	1707
301.740	1901
301.796	2501
301.851	1186
301.907	2173
301.963	2248
302.019	4640
302.074	13963
302.130	15906
302.186	7287
302.242	2250
302.297	2214
302.353	1479
302.409	1683
302.464	2229
302.520	1237
302.576	4450
302.631	4793
302.687	2760
302.743	1326
302.798	1506
302.854	840
302.910	1945
302.965	682
303.021	1810
303.076	1747
303.132	1500
303.187	1003
303.243	1532
303.299	846
303.354	1174
303.410	539
303.465	1461
303.521	718
303.576	1378
303.632	837
303.687	2149
303.743	4786
303.798	4745
303.853	1474
303.909	967
303.964	992
304.020	1665
304.075	1044
304.130	1387
304.186	856
304.241	2774
304.297	1736
304.352	1352
304.358	1355
304.407	1382
304.449	1188
304.463	1125
304.518	756
304.539	1167
304.573	1824
304.629	1711
304.630	1713
304.684	1763
304.720	2878
304.739	3453
304.794	6348
304.811	5517
304.850	3506
304.902	2210
304.905	2126
304.960	1881
304.992	1324
305.015	942
305.071	1477
305.083	1418
305.126	1135
305.173	1138
305.181	1153
305.236	228
305.264	445
305.292	629
305.347	2058
305.354	2010
305.402	1767
305.445	1012
305.457	789
305.512	1257
305.535	1258
305.567	1247
305.622	1192
305.626	1198
305.678	1469
305.716	2476
305.733	2864
305.788	3420
305.807	3179
305.843	2846
305.897	4973
305.898	4997
305.953	4675
305.988	3332
306.008	2709
306.063	1563
306.078	1585
306.118	1687
306.168	1113
306.173	1045
306.228	1221
306.259	1252
306.283	1371
306.338	1542
306.349	1462
306.393	1033
306.440	1342
306.448	1419
306.503	1565
306.530	1577
306.558	1553
306.613	1897
306.620	1894
306.668	2097
306.711	2605
306.723	2610
306.778	2733
306.801	2304
306.833	1994
306.888	1859
306.892	1849
306.943	1591
306.982	1754
306.997	1807
307.052	1199
307.072	1107
307.107	1106
307.162	1531
307.163	1534
307.217	1821
307.253	2025
307.272	2147
307.327	1839
307.343	1975
307.381	2263
307.434	2630
307.436	2649
307.491	2126
307.524	2346
307.546	2476
307.600	2706
307.614	2720
307.655	2493
307.704	1432
307.710	1379
307.765	2209
307.795	2131
307.819	1900
307.874	2353
307.885	2342
307.929	2580
307.975	3586
307.984	3793
308.038	3898
308.065	4307
308.093	6454
308.148	11766
308.156	13231
308.202	20340
308.246	26077
308.257	25790
308.312	13262
308.336	8753
308.366	6671
308.421	5921
308.426	5849
308.475	5451
308.517	5790
308.530	5911
308.585	6067
308.607	6330
308.639	6819
308.694	7139
308.697	7210
308.748	8280
308.787	8017
308.803	7962
308.857	8726
308.877	8972
308.912	10255
308.967	13619
308.967	13669
309.021	21489
309.058	27987
309.076	31389
309.130	44678
309.148	47965
309.185	61622
309.238	82515
309.239	82875
309.293	105408
309.328	111736
309.348	103871
309.402	70732
309.418	60977
309.457	49189
309.508	38145
309.511	38304
309.566	45832
309.598	53090
309.620	66685
309.674	106448
309.688	117409
309.729	114984
309.778	97510
309.783	95173
309.837	62003
309.868	44533
309.892	37911
309.946	25992
309.959	23755
310.001	19387
310.049	15558
310.055	15133
310.109	11744
310.139	10204
310.163	9039
310.218	6622
310.229	6242
310.272	6115
310.319	5910
310.326	5712
310.381	4638
310.409	4038
310.435	3883
310.489	3643
310.499	3638
310.543	3516
310.589	3408
310.598	3400
310.652	3375
310.679	3366
310.706	3262
310.760	2871
310.769	2852
310.814	3288
310.859	3645
310.868	3666
310.923	3583
310.948	3675
310.977	3722
311.031	3829
311.038	3816
311.085	3052
311.128	2315
311.139	2354
311.193	2610
311.218	2729
311.247	2772
311.301	2861
311.308	2874
311.356	2789
311.398	2724
311.410	2547
311.464	1571
311.488	1195
311.518	1656
311.572	2446
311.578	2540
311.626	2239
311.668	1950
311.680	2080
311.734	2619
311.758	2884
311.788	2597
311.842	2076
311.847	2022
311.896	2042
311.937	2069
311.950	2072
312.004	2094
312.027	2112
312.058	2091
312.112	2061
312.117	2060
312.165	2516
312.207	2910
312.297	1925
312.386	2127
312.476	2653
312.566	2377
312.656	1724
312.745	2198
312.835	2577
312.925	2088
313.015	2014
313.104	2909
313.194	2096
313.284	2693
313.374	2616
313.463	3146
313.553	4094
313.643	2958
313.732	3709
313.822	3694
313.912	4152
314.001	4146
314.091	4915
314.180	4603
314.270	5285
314.360	4779
314.449	4422
314.539	3794
314.628	3294
314.718	4525
314.808	5117
314.897	5278
314.987	6095
315.076	5804
315.166	6221
315.255	5261
315.345	5152
315.434	5240
315.524	4722
315.613	7078
315.703	11760
315.792	40818
315.881	134983
315.971	38855
316.060	9692
316.150	6723
316.239	5268
316.328	4080
316.418	6098
316.507	5513
316.597	6318
316.686	6433
316.775	5768
316.865	5042
316.954	4359
317.043	4705
317.133	5062
317.222	3232
317.311	3843
317.400	4009
317.490	6420
317.579	7140
317.668	9737
317.757	18528
317.847	68582
317.936	190435
318.025	57627
318.114	55108
318.203	21030
318.293	6822
318.382	9100
318.471	10105
318.560	7769
318.649	6933
318.738	3678
318.828	3356
318.917	2563
319.006	2415
319.095	2965
319.184	4555
319.273	3969
319.362	3677
319.451	2911
319.540	3269
319.629	3151
319.718	3290
319.807	3307
319.896	3728
319.985	5292
320.074	4388
320.163	2986
320.252	3451
320.341	3557
320.430	3565
320.519	4264
320.608	4349
320.697	5348
320.786	4865
320.875	7137
320.964	7543
321.053	7138
321.142	8556
321.230	10157
321.319	10456
321.408	11911
321.497	11380
321.586	9737
321.675	8315
321.764	7845
321.852	8015
321.941	8119
322.030	8931
322.119	8353
322.207	10497
322.296	12208
322.385	13929
322.474	16936
322.562	17096
322.651	12180
322.740	9357
322.829	8341
322.917	7181
323.006	6114
323.095	6381
323.183	5415
323.272	4802
323.361	4566
323.449	6879
323.538	4980
323.626	5224
323.715	3928
323.804	3338
323.892	4141
323.981	3528
324.069	3511
324.158	3380
324.246	3190
324.335	3552
324.424	3260
324.512	3580
324.601	2858
324.689	2321
324.778	3258
324.866	2391
324.954	2640
325.043	2448
325.131	2403
325.220	3692
325.308	3290
325.397	2644
325.485	3331
325.574	2566
325.662	2586
325.750	2580
325.839	2828
325.927	3062
326.015	2658
326.104	1973
326.192	2379
326.280	2155
326.369	2225
326.457	3098
326.545	2689
326.634	1725
326.722	2901
326.810	1971
326.898	3258
326.987	3442
327.075	2447
327.163	3902
327.251	2783
327.340	2785
327.428	4902
327.516	5990
327.604	4153
327.692	3351
327.781	2723
327.869	2058
327.957	1665
328.045	2465
328.133	2152
328.221	1731
328.309	2265
328.397	1335
328.485	2581
328.574	5976
328.662	8508
328.750	4824
328.838	3344
328.926	2455
329.014	2435
329.102	2134
329.190	2912
329.278	1562
329.366	2853
329.454	1953
329.542	2593
329.630	1553
329.718	2418
329.806	1585
329.893	2303
329.981	1632
330.069	1761
330.157	2754
330.245	3843
330.333	2121
330.421	2467
330.509	2643
330.597	3360
330.684	2015
330.772	2479
330.860	1879
330.948	2686
331.036	1700
331.123	2308
331.211	1627
331.299	2910
331.387	3341
331.475	1978
331.562	2182
331.650	2130
331.738	1552
331.825	2109
331.913	2682
332.001	2241
332.089	2109
332.176	1906
332.264	2678
332.352	2742
332.439	2734
332.527	2872
332.614	3234
332.702	3065
332.790	3241
332.877	4576
332.965	13447
333.052	12088
333.140	15909
333.228	40125
333.315	9969
333.403	5204
333.490	6338
333.578	16506
333.665	59034
333.753	21812
333.840	5976
333.928	5576
334.015	5492
334.103	7159
334.190	10169
334.278	12848
334.365	18278
334.452	17577
334.540	10570
334.627	10194
334.715	13723
334.802	20183
334.889	35120
334.977	46276
335.064	29729
335.151	13815
335.239	9779
335.326	7732
335.413	8059
335.501	8990
335.588	7908
335.675	9387
335.762	11212
335.850	16201
335.937	23154
336.024	41002
336.111	65759
336.199	59051
336.286	26331
336.373	13889
336.460	8792
336.547	7019
336.635	6366
336.722	4668
336.809	4698
336.896	3808
336.983	4492
337.070	5346
337.157	5447
337.245	4716
337.332	5380
337.419	3812
337.506	3806
337.593	3845
337.680	4130
337.767	5012
337.854	2723
337.941	3249
338.028	2838
338.115	2326
338.202	4359
338.289	2957
338.376	3377
338.463	2775
338.550	3143
338.637	3829
338.724	2715
338.811	3225
338.898	2448
338.984	2535
339.071	2599
339.158	2733
339.245	2440
339.332	3230
339.419	2712
339.506	2710
339.593	1696
339.679	2941
339.766	2776
339.853	2436
339.940	2076
340.027	1670
340.113	2382
340.200	2426
340.287	2177
340.374	2787
340.460	2728
340.547	837
340.634	2490
340.720	4215
340.807	2463
340.894	2175
340.980	2314
341.067	2014
341.154	2417
341.240	1940
341.327	2205
341.414	1835
341.500	1398
341.587	2928
341.674	2284
341.760	2981
341.847	2713
341.933	2279
342.020	1202
342.106	1769
342.193	2259
342.279	2770
342.366	2362
342.452	2149
342.539	1511
342.625	3214
342.712	2766
342.798	2564
342.885	1685
342.971	1606
343.058	1708
343.144	1527
343.230	2239
343.317	2619
343.403	1958
343.490	2770
343.576	1847
343.662	2324
343.749	1499
343.835	2274
343.921	3433
344.008	10247
344.094	17458
344.180	4571
344.267	2589
344.353	3649
344.439	3567
344.525	2231
344.612	2507
344.698	2362
344.784	713
344.870	3271
344.957	1502
345.043	3135
345.129	2493
345.215	2472
345.301	2235
345.387	1730
345.474	1914
345.560	2271
345.646	1377
345.732	1962
345.818	1697
345.904	1805
345.990	2396
346.076	1287
346.162	1180
346.249	3014
346.335	1758
346.421	2365
346.507	3006
346.593	5318
346.679	1498
346.765	3865
346.851	6120
346.937	3381
347.023	3614
347.108	3099
347.194	2560
347.280	2626
347.366	4798
347.452	12351
347.538	15021
347.624	8295
347.710	4860
347.796	3767
347.882	1940
347.967	2363
348.053	2513
348.139	2189
348.225	1927
348.311	2038
348.397	2374
348.482	3145
348.568	2581
348.654	5620
348.740	17298
348.825	16932
348.911	7361
348.997	5730
349.083	7027
349.168	2643
349.254	2911
349.340	3218
349.425	2209
349.511	2298
349.597	1889
349.682	2171
349.768	4787
349.854	2758
349.939	3524
350.025	1726
350.110	2792
350.196	2292
350.282	1745
350.367	2961
350.453	2409
350.538	2665
350.624	1247
350.709	2566
350.795	1987
350.880	1701
350.966	3219
351.051	2671
351.137	1821
351.222	2532
351.308	2850
351.393	3226
351.479	1305
351.564	2021
351.649	2519
351.735	2252
351.820	2337
351.906	2484
351.991	1410
352.076	3337
352.162	3499
352.247	1724
352.332	2479
352.418	1597
352.503	2718
352.588	4960
352.673	3054
352.759	2191
352.844	2189
352.929	2631
353.014	1800
353.100	2898
353.185	2357
353.270	1368
353.355	2887
353.441	3250
353.526	2227
353.611	2682
353.696	1486
353.781	3890
353.866	1688
353.952	3561
354.037	2359
354.122	3159
354.207	3148
354.292	2137
354.377	2390
354.462	2376
354.547	1319
354.632	2586
354.717	3287
354.802	1308
354.887	1991
354.972	2530
355.057	2538
355.142	2721
355.227	3051
355.312	2306
355.397	2609
355.482	3584
355.567	2390
355.652	3416
355.737	2854
355.822	4610
355.907	2607
355.991	3852
356.076	1803
356.161	3535
356.246	2887
356.331	2677
356.416	2368
356.501	9275
356.585	6603
356.670	2874
356.755	4789
356.840	3456
356.924	7346
357.009	19583
357.094	7915
357.179	3271
357.263	2634
357.348	2722
357.433	3058
357.517	2908
357.602	2700
357.687	2539
357.771	4025
357.856	3529
357.941	3767
358.025	8331
358.110	28469
358.195	12161
358.279	4133
358.364	4207
358.448	4812
358.533	7467
358.617	5234
358.702	5450
358.787	3578
358.871	3669
358.956	3669
359.040	2780
359.125	2841
359.209	3390
359.294	3727
359.378	6653
359.462	4774
359.547	3438
359.631	2567
359.716	1856
359.800	2296
359.885	3345
359.969	1988
360.053	3175
360.138	2106
360.222	1875
360.306	2535
360.391	2491
360.475	2835
360.559	3593
360.644	3381
360.728	2214
360.812	6319
360.896	11911
360.981	4974
361.065	3382
361.149	4381
361.233	3193
361.318	3242
361.402	3068
361.486	4024
361.570	3835
361.654	4086
361.739	4581
361.823	9098
361.907	14692
361.991	6151
362.075	6728
362.159	9134
362.243	20082
362.327	48538
362.411	69767
362.495	26706
362.580	12692
362.664	10698
362.748	12035
362.832	20952
362.916	44584
363.000	127700
363.084	170662
363.168	66052
363.252	20776
363.336	11483
363.420	9814
363.503	9246
363.587	8562
363.671	6783
363.755	7001
363.839	9294
363.923	8219
364.007	11464
364.091	15074
364.175	24220
364.258	56726
364.342	145250
364.426	250191
364.510	127151
364.594	39120
364.677	18678
364.761	17317
364.845	12703
364.929	7235
365.013	5406
365.096	6125
365.180	3937
365.264	4533
365.347	7312
365.431	4324
365.515	2295
365.598	3184
365.682	5224
365.766	2413
365.849	2963
365.933	3743
366.017	4991
366.100	3235
366.184	2736
366.267	4446
366.351	3659
366.435	3405
366.518	3573
366.602	3613
366.685	3771
366.769	3390
366.852	3875
366.936	3383
367.019	3836
367.103	1808
367.186	4957
367.270	4020
367.353	3366
367.436	5553
367.520	3992
367.603	4395
367.687	3273
367.770	4530
367.853	5012
367.937	6323
368.020	6125
368.104	2836
368.187	4586
368.270	4120
368.353	2811
368.437	3167
368.520	4272
368.603	3632
368.687	3096
368.770	4817
368.853	2968
368.936	4302
369.020	3762
369.103	3063
369.186	2286
369.269	1683
369.352	3872
369.436	3222
369.519	2846
369.602	547
369.685	4253
369.768	1899
369.851	3495
369.934	2693
370.018	2863
370.101	2002
370.184	5865
370.267	4690
370.350	4284
370.433	6564
370.516	23395
370.599	73298
370.682	29224
370.765	8361
370.848	6695
370.931	6480
371.014	5672
371.097	3588
371.180	4361
371.263	5261
371.346	2761
371.429	4434
371.511	3919
371.594	4620
371.677	5622
371.760	6811
371.843	6178
371.926	14026
372.009	26072
372.091	14988
372.174	7884
372.257	11036
372.340	7733
372.423	6899
372.505	7596
372.588	5589
372.671	7181
372.754	6793
372.836	6033
372.919	6440
373.002	6809
373.085	5486
373.167	6843
373.250	6546
373.332	9524
373.415	17314
373.498	30778
373.580	28881
373.663	105640
373.746	92239
373.828	14951
373.911	8413
373.993	5262
374.076	6237
374.159	5375
374.241	5772
374.324	6778
374.406	6735
374.489	9734
374.571	19062
374.654	8310
374.736	6962
374.819	12630
374.901	20078
374.983	20759
375.066	8064
375.148	6366
375.231	6674
375.313	7782
375.395	6660
375.478	6278
375.560	7108
375.643	5550
375.725	7984
375.807	14451
375.890	12335
375.972	4354
376.054	5449
376.136	4931
376.219	3789
376.301	7084
376.383	9839
376.465	5805
376.548	4359
376.630	5022
376.712	8537
376.794	4473
376.877	3329
376.959	2122
377.041	3616
377.123	2938
377.205	3625
377.287	2090
377.369	3863
377.452	3080
377.534	3593
377.616	3613
377.698	3226
377.780	2586
377.862	3379
377.944	4762
378.026	1890
378.108	4103
378.190	3099
378.272	3798
378.354	3672
378.436	2293
378.518	2725
378.600	3222
378.682	4616
378.764	4805
378.846	4980
378.928	3219
379.010	3418
379.091	5150
379.173	3740
379.255	3403
379.337	3856
379.419	3692
379.501	6983
379.583	4733
379.664	3887
379.746	2904
379.828	6185
379.910	4804
379.991	6020
380.073	3802
380.155	4114
380.237	4326
380.318	4290
380.400	4464
380.482	5444
380.564	4062
380.645	4779
380.727	5107
380.809	5798
380.890	4100
380.972	2922
381.053	5029
381.135	6669
381.217	5178
381.298	7655
381.380	6039
381.461	6998
381.543	11013
381.624	12561
381.706	6495
381.787	8125
381.869	8663
381.951	12179
382.032	24294
382.113	20123
382.195	9482
382.276	12721
382.358	13072
382.439	18382
382.521	24655
382.602	34121
382.684	33677
382.765	62022
382.846	179007
382.928	357588
383.009	205150
383.090	181505
383.172	439596
383.253	501015
383.334	182644
383.416	79927
383.497	63781
383.578	80081
383.659	159430
383.741	402317
383.822	632849
383.903	353517
383.984	114739
384.066	59490
384.147	36641
384.228	25925
384.309	22200
384.390	19970
384.471	16537
384.553	15580
384.634	14528
384.715	14898
384.796	13658
384.877	14681
384.958	17114
385.039	14554
385.120	11447
385.201	11398
385.282	10752
385.363	15290
385.444	17637
385.525	16965
385.606	17044
385.687	15342
385.768	11838
385.849	11198
385.930	19242
386.011	23375
386.092	12006
386.173	11192
386.254	9532
386.335	9397
386.416	8270
386.496	9482
386.577	9846
386.658	8532
386.739	7748
386.820	9771
386.901	8906
386.981	10749
387.062	12620
387.143	13628
387.224	13609
387.304	15310
387.385	14694
387.466	11402
387.547	14097
387.627	13501
387.708	15022
387.789	16776
387.869	15812
387.950	13119
388.031	10035
388.111	8292
388.192	12536
388.273	14935
388.353	10939
388.434	7209
388.514	6546
388.595	11944
388.676	11286
388.756	8392
388.837	7497
388.917	6297
388.998	4176
389.078	6915
389.159	7082
389.239	3852
389.320	7663
389.400	4556
389.480	7238
389.561	7998
389.641	7587
389.722	6414
389.802	4507
389.883	6267
389.963	8831
390.043	5927
390.124	4671
390.204	6314
390.284	7355
390.365	5206
390.445	6593
390.525	7211
390.605	8391
390.686	5944
390.766	6890
390.846	7195
390.927	6601
391.007	5317
391.087	7696
391.167	6657
391.247	5698
391.328	8320
391.408	8381
391.488	8897
391.568	6969
391.648	8507
391.728	9751
391.808	10877
391.888	9624
391.969	11078
392.049	12800
392.129	12904
392.209	14373
392.289	17389
392.369	17177
392.449	18494
392.529	19883
392.609	25639
392.689	27801
392.769	34656
392.849	41795
392.929	56503
393.009	78119
393.089	120119
393.169	223016
393.248	461314
393.328	742549
393.408	714617
393.488	417060
393.568	196047
393.648	106679
393.728	67238
393.807	47451
393.887	36249
393.967	29995
394.047	24812
394.127	20007
394.206	19626
394.286	23494
394.366	57037
394.446	51471
394.525	16914
394.605	12422
394.685	12657
394.764	14165
394.844	21539
394.924	26335
395.003	13612
395.083	9498
395.163	9868
395.242	9592
395.322	9651
395.402	7940
395.481	11321
395.561	12404
395.640	34377
395.720	61735
395.799	29210
395.879	15886
395.958	14446
396.038	25558
396.117	78539
396.197	77407
396.276	29023
396.356	25463
396.435	33891
396.515	48755
396.594	78796
396.673	167034
396.753	408968
396.832	672439
396.912	515850
396.991	208930
397.070	92144
397.150	53062
397.229	42252
397.308	62927
397.388	97416
397.467	45804
397.546	19061
397.625	12387
397.705	14406
397.784	11030
397.863	10786
397.942	8875
398.022	8502
398.101	7498
398.180	8355
398.259	6552
398.338	7356
398.417	6063
398.497	5652
398.576	7165
398.655	4313
398.734	5194
398.813	5466
398.892	5286
398.971	5823
399.050	4275
399.129	4537
399.208	4396
399.287	4675
399.366	3571
399.445	3355
399.524	5129
399.603	2208
399.682	3695
399.761	3897
399.840	5392
399.919	5629
399.998	2734
400.077	1817
400.156	1220
400.235	5161
400.313	2359
400.392	2255
400.471	3798
400.550	4552
400.629	1283
400.708	3072
400.786	1355
400.865	2324
400.944	1327
401.023	3857
401.102	1666
401.180	2418
401.259	2432
401.338	1506
401.416	2194
401.495	1727
401.574	3938
401.652	2037
401.731	2173
401.810	1052
401.888	1879
401.967	1450
402.046	2482
402.124	2918
402.203	1021
402.281	2756
402.360	1518
402.438	2807
402.517	533
402.596	2284
402.674	1709
402.753	2157
402.831	3002
402.910	2988
402.988	2343
403.066	6153
403.145	4602
403.223	4338
403.302	4890
403.380	5232
403.459	4754
403.537	3201
403.615	3416
403.694	2184
403.772	3862
403.850	2708
403.929	2309
404.007	1781
404.085	4014
404.164	1565
404.242	2695
404.320	3905
404.398	3488
404.477	4103
404.555	10974
404.633	8750
404.711	3916
404.789	2418
404.868	1502
404.946	1698
405.024	2125
405.102	1843
405.180	1326
405.258	1226
405.336	1668
405.415	1583
405.493	2003
405.571	3123
405.649	1583
405.727	1324
405.805	3992
405.883	3635
405.961	4092
406.039	1770
406.117	563
406.195	2563
406.273	1731
406.351	7013
406.429	4957
406.507	1777
406.585	1322
406.663	2619
406.740	1463
406.818	1186
406.896	1148
406.974	1754
407.052	695
407.130	4026
407.208	5067
407.285	3554
407.363	860
407.441	1712
407.519	1369
407.596	2187
407.674	4474
407.752	12985
407.830	10176
407.907	2652
407.985	1185
408.063	2275
408.141	810
408.218	1965
408.296	373
408.373	1873
408.451	3060
408.529	2449
408.606	1709
408.684	2966
408.762	2657
408.839	2407
408.917	2727
408.994	3150
409.072	3392
409.149	5746
409.227	11371
409.304	16822
409.382	17850
409.459	20325
409.537	27433
409.614	23165
409.692	16708
409.769	18850
409.846	27700
409.924	32917
410.001	21794
410.079	14578
410.156	11109
410.233	7691
410.311	6628
410.388	6139
410.465	4624
410.543	4319
410.620	5309
410.697	5328
410.775	3713
410.852	3922
410.929	5579
411.006	5691
411.083	4790
411.161	3927
411.238	4059
411.315	3776
411.392	2507
411.469	3788
411.547	2943
411.624	1114
411.701	2366
411.778	2567
411.855	2456
411.932	2052
412.009	1314
412.086	2531
412.163	2199
412.240	1972
412.317	1768
412.394	1741
412.471	2872
412.548	1270
412.625	1485
412.702	1203
412.779	1822
412.856	2421
412.933	1178
413.010	1435
413.087	1438
413.164	1626
413.241	2079
413.318	514
413.395	1094
413.471	1625
413.548	1640
413.625	2013
413.702	675
413.779	964
413.855	1157
413.932	1037
414.009	-59
414.086	957
414.162	1212
414.239	719
414.316	2476
414.393	3692
414.469	1190
414.546	721
414.623	551
414.699	594
414.776	749
414.853	793
414.929	1622
415.006	949
415.082	964
415.159	1597
415.236	1630
415.312	728
415.389	1864
415.465	837
415.542	712
415.618	995
415.695	937
415.771	393
415.848	923
415.924	1581
416.000	1615
416.077	2121
416.153	115
416.230	38
416.306	991
416.383	721
416.459	1710
416.535	749
416.612	1026
416.688	1641
416.764	1901
416.841	1682
416.917	1305
416.993	1773
417.069	1489
417.146	1410
417.222	1004
417.298	634
417.374	14
417.451	1498
417.527	628
417.603	249
417.679	928
417.755	1183
417.831	986
417.908	1588
417.984	1004
418.060	-377
418.136	1100
418.212	1093
418.288	569
418.364	1286
418.440	8
418.516	1583
418.592	518
418.668	875
418.744	609
418.820	2446
418.896	937
418.972	134
419.048	894
419.124	1577
419.200	264
419.276	1892
419.352	826
419.428	1532
419.504	1241
419.579	1223
419.655	759
419.731	1292
419.807	1792
419.883	2246
419.959	1724
420.034	2385
420.110	2067
420.186	2679
420.262	2548
420.337	2226
420.413	2968
420.489	2339
420.565	3654
420.640	3004
420.716	3442
420.792	2723
420.867	4408
420.943	3315
421.019	3769
421.094	3295
421.170	4711
421.245	4512
421.321	5629
421.397	5124
421.472	8605
421.548	13306
421.623	10712
421.699	9586
421.774	10659
421.850	11222
421.925	14471
422.001	15718
422.076	21211
422.152	25920
422.227	36090
422.302	51307
422.378	78347
422.453	128936
422.529	213260
422.604	256380
422.679	214578
422.755	255570
422.830	212174
422.905	129168
422.981	80964
423.056	55672
423.131	41259
423.207	30822
423.282	23504
423.357	20888
423.432	16067
423.508	14077
423.583	11775
423.658	10596
423.733	9831
423.808	9672
423.883	9170
423.959	10871
424.034	13593
424.109	12451
424.184	7577
424.259	5722
424.334	5364
424.409	4189
424.484	4056
424.559	3887
424.634	3008
424.709	3519
424.784	2947
424.859	3637
424.934	2614
425.009	3764
425.084	2999
425.159	1598
425.234	2755
425.309	1532
425.384	2460
425.459	1848
425.534	696
425.609	1089
425.683	2031
425.758	1678
425.833	1800
425.908	2284
425.983	1373
426.058	3325
426.132	1854
426.207	1340
426.282	2269
426.357	1224
426.431	2132
426.506	1760
426.581	1617
426.655	1264
426.730	1048
426.805	693
426.879	1321
426.954	1320
427.029	1272
427.103	2798
427.178	4650
427.253	2528
427.327	1273
427.402	705
427.476	695
427.551	952
427.625	1245
427.700	1430
427.774	48
427.849	1970
427.923	934
427.998	2575
428.072	2832
428.147	8178
428.221	40955
428.296	116995
428.370	56176
428.444	7811
428.519	2505
428.593	2993
428.667	2935
428.742	4246
428.816	14900
428.890	74217
428.965	100445
429.039	23018
429.113	3353
429.188	2694
429.262	1654
429.336	2916
429.410	1542
429.485	2270
429.559	1808
429.633	2392
429.707	3178
429.781	13069
429.855	69638
429.930	89264
430.004	21092
430.078	13167
430.152	48794
430.226	158710
430.300	138570
430.374	27638
430.448	8295
430.522	5019
430.596	6057
430.670	23633
430.744	91136
430.818	87886
430.892	14592
430.966	3724
431.040	1408
431.114	517
431.188	568
431.262	435
431.336	226
431.410	1372
431.484	1080
431.557	1491
431.631	1639
431.705	6132
431.779	34100
431.853	113373
431.927	65349
432.000	9087
432.074	2351
432.148	1782
432.222	591
432.295	1001
432.369	333
432.443	160
432.516	1883
432.590	4585
432.664	614
432.737	-168
432.811	-688
432.885	220
432.958	395
433.032	-219
433.106	87
433.179	294
433.253	39
433.326	99
433.400	381
433.473	551
433.547	-235
433.620	194
433.694	-350
433.767	434
433.841	-666
433.914	531
433.988	-385
434.061	-78
434.134	-222
434.208	91
434.281	-70
434.355	222
434.428	583
434.501	671
434.575	-317
434.648	386
434.721	-319
434.795	-140
434.868	-58
434.941	531
435.014	985
435.088	1987
435.161	3680
435.234	5580
435.307	4861
435.381	5984
435.454	8680
435.527	13342
435.600	13995
435.673	11263
435.746	8197
435.819	4985
435.892	3852
435.966	3351
436.039	1878
436.112	1724
436.185	1109
436.258	950
436.331	-612
436.404	982
436.477	734
436.550	873
436.623	577
436.696	-480
436.769	-287
436.842	368
436.915	-62
436.987	-121
437.060	410
437.133	-544
437.206	-735
437.279	-376
437.352	-131
437.425	-529
437.498	-373
437.570	309
437.643	-311
437.716	337
437.789	124
437.861	-851
437.934	-128
438.007	-292
438.080	-314
438.152	-102
438.225	721
438.298	2569
438.370	8048
438.443	1996
438.516	-492
438.588	291
438.661	-392
438.734	91
438.806	-68
438.879	-343
438.951	31
439.024	-89
439.096	-767
439.169	-513
439.241	-768
439.314	-413
439.386	-879
439.459	261
439.531	-453
439.604	-407
439.676	-709
439.749	-379
439.821	-83
439.893	-394
439.966	-86
440.038	-360
440.110	-347
440.183	-224
440.255	-1508
440.327	278
440.400	1199
440.472	3816
440.544	2080
440.617	72
440.689	1522
440.761	645
440.833	-755
440.905	519
440.978	100
441.050	-406
441.122	930
441.194	-383
441.266	-234
441.338	59
441.411	530
441.483	1592
441.555	753
441.627	428
441.699	685
441.771	457
441.843	786
441.915	884
441.987	475
442.059	1087
442.131	1644
442.203	1938
442.275	3224
442.347	7756
442.419	20063
442.491	93312
442.563	175241
442.635	62218
442.706	11905
442.778	5452
442.850	3604
442.922	3134
442.994	3169
443.066	3249
443.137	4572
443.209	6809
443.281	11373
443.353	29719
443.425	107938
443.496	279284
443.568	264158
443.640	101100
443.711	23236
443.783	9726
443.855	6069
443.926	4137
443.998	2717
444.070	2421
444.141	1965
444.213	1700
444.285	1277
444.356	1690
444.428	1486
444.499	1706
444.571	1591
444.642	1642
444.714	1824
444.785	2135
444.857	1606
444.928	3524
445.000	4299
445.071	5494
445.143	7547
445.214	11713
445.285	21496
445.357	59407
445.428	196407
445.500	316972
445.571	247831
445.642	153101
445.714	48002
445.785	16868
445.856	7032
445.928	4752
445.999	2848
446.070	2504
446.141	2877
446.213	1609
446.284	1464
446.355	825
446.426	948
446.497	1249
446.569	376
446.640	813
446.711	507
446.782	455
446.853	628
446.924	677
446.995	340
447.066	-609
447.138	668
447.209	679
447.280	-294
447.351	-240
447.422	-395
447.493	-521
447.564	-826
447.635	153
447.706	-5
447.777	-542
447.847	-832
447.918	-403
447.989	67
448.060	-84
448.131	721
448.202	-612
448.273	40
448.344	-402
448.414	-59
448.485	-297
448.556	7
448.627	-568
448.698	423
448.768	-1120
448.839	-687
448.910	-1027
448.981	-170
449.051	-284
449.122	-378
449.193	-73
449.263	-760
449.334	-1285
449.405	137
449.475	47
449.546	-373
449.616	179
449.687	194
449.758	-384
449.828	-608
449.899	-1182
449.969	-321
450.040	-926
450.110	-1193
450.181	-164
450.251	-1004
450.322	-440
450.392	49
450.463	-873
450.533	-166
450.604	-966
450.674	-417
450.744	544
450.815	172
450.885	738
450.955	744
451.026	350
451.096	-48
451.166	23
451.237	1379
451.307	1144
451.377	1461
451.447	-23
451.518	-449
451.588	-517
451.658	-91
451.728	508
451.799	-578
451.869	-116
451.939	-547
452.009	-60
452.079	-376
452.149	26
452.219	194
452.289	235
452.360	500
452.430	330
452.500	1028
452.570	3645
452.640	11364
452.710	28490
452.780	27815
452.850	12103
452.920	4964
452.990	1979
453.060	1101
453.129	125
453.199	-78
453.269	1050
453.339	757
453.409	462
453.479	1199
453.549	1943
453.619	940
453.688	-522
453.758	54
453.828	-714
453.898	-746
453.968	-749
454.037	-729
454.087	-609
454.107	-572
454.168	-672
454.177	-710
454.247	-535
454.249	-497
454.316	29
454.330	-60
454.386	-461
454.411	-568
454.456	-813
454.492	-404
454.525	-94
454.574	-319
454.595	-412
454.655	-476
454.665	-519
454.734	86
454.736	102
454.804	-36
454.817	-5
454.873	55
454.898	-247
454.943	-774
454.979	-432
455.013	-179
455.060	210
455.082	358
455.141	-271
455.152	-395
455.221	211
455.222	231
455.291	-198
455.303	-58
455.360	639
455.384	619
455.430	354
455.465	306
455.499	226
455.546	-197
455.569	-378
455.627	687
455.638	872
455.707	-320
455.708	-300
455.777	299
455.789	203
455.846	-234
455.869	-106
455.916	-0
455.950	157
455.985	312
456.031	-153
456.054	-372
456.112	514
456.124	657
456.193	920
456.193	903
456.262	346
456.274	474
456.332	968
456.355	943
456.401	801
456.436	646
456.470	529
456.516	314
456.540	174
456.597	1091
456.609	1246
456.678	1152
456.678	1133
456.747	862
456.759	722
456.817	312
456.840	593
456.886	948
456.920	1048
456.955	1264
457.001	1862
457.024	1990
457.082	1815
457.093	1758
457.162	2265
457.163	2283
457.232	1607
457.243	1647
457.301	1702
457.324	1670
457.370	1748
457.405	2221
457.439	2740
457.485	3110
457.508	3263
457.566	3909
457.577	4369
457.646	7653
457.647	7738
457.715	21762
457.727	24913
457.784	45554
457.808	59757
457.853	74074
457.889	81761
457.922	76595
457.969	49000
457.991	50534
458.050	68337
458.060	71803
458.129	125205
458.130	126646
458.198	110610
458.211	97819
458.267	48870
458.292	32345
458.336	22762
458.372	22148
458.405	34015
458.453	55210
458.474	70946
458.533	128366
458.543	131918
458.611	189692
458.614	190264
458.680	100441
458.694	76555
458.749	32697
458.775	22099
458.818	13656
458.855	10166
458.887	8463
458.936	7069
458.955	6497
459.016	5295
459.024	5211
459.093	4854
459.097	4814
459.162	3831
459.177	3809
459.230	3943
459.257	3821
459.299	3561
459.338	3765
459.368	3726
459.418	2894
459.437	2749
459.499	3262
459.505	3273
459.574	3086
459.579	3119
459.643	3230
459.659	3018
459.711	2821
459.740	3085
459.780	3005
459.820	2802
459.849	3055
459.900	3656
459.917	3666
459.981	3727
459.986	3684
460.054	2942
460.061	2915
460.123	2953
460.141	2826
460.191	2949
460.222	3175
460.260	3289
460.302	3391
460.328	3319
460.382	3426
460.397	3454
460.462	3154
460.465	3217
460.534	5152
460.543	5381
460.602	11382
460.623	13796
460.671	20474
460.703	26501
460.739	23396
460.783	16635
460.808	13731
460.864	5129
460.876	4550
460.944	3448
460.945	3431
461.013	3195
461.024	3147
461.081	3014
461.104	3138
461.150	3480
461.184	3683
461.218	3913
461.264	3969
461.286	3931
461.345	3506
461.355	3401
461.423	3690
461.425	3684
461.491	3328
461.505	3314
461.559	3290
461.585	3193
461.628	3392
461.665	3736
461.696	4113
461.745	4639
461.764	4535
461.825	3720
461.832	3712
461.901	4021
461.905	4061
461.969	3309
461.985	3055
462.037	3768
462.065	4195
462.105	3806
462.145	3277
462.173	3548
462.225	4287
462.241	4247
462.305	4040
462.310	4058
462.378	3921
462.385	3958
462.446	4366
462.465	4525
462.514	4441
462.545	4234
462.582	3928
462.625	3551
462.650	3581
462.705	3913
462.718	3977
462.785	4100
462.786	4099
462.854	3618
462.865	3552
462.922	3946
462.945	4257
462.990	4478
463.025	4340
463.058	4096
463.104	4081
463.126	4084
463.184	3960
463.194	4072
463.262	4421
463.264	4450
463.330	4253
463.344	4162
463.398	4686
463.424	4799
463.466	3899
463.504	3484
463.533	4175
463.583	4768
463.601	4610
463.663	4215
463.669	4187
463.737	3947
463.743	3926
463.805	4426
463.823	4540
463.873	4622
463.903	4639
463.940	4739
463.982	4892
464.008	4656
464.062	4173
464.076	4302
464.142	4804
464.144	4800
464.211	4330
464.221	4279
464.279	4279
464.301	4195
464.347	4122
464.381	4180
464.414	4213
464.461	4145
464.482	4175
464.540	4265
464.550	4247
464.617	4146
464.620	4134
464.685	4833
464.699	4945
464.753	4659
464.779	4592
464.820	4958
464.859	5253
464.888	5001
464.938	4475
464.956	4657
465.018	5277
465.023	5262
465.091	4895
465.098	4868
465.158	4576
465.177	4479
465.226	4830
465.257	4900
465.293	4889
465.336	4993
465.361	5176
465.416	5422
465.428	5316
465.495	4896
465.496	4911
465.563	5581
465.575	5700
465.631	5464
465.654	5377
465.698	4940
465.734	4490
465.765	4708
465.813	5009
465.833	4958
465.893	4917
465.900	4981
465.968	5304
465.972	5320
466.035	5297
466.052	5252
466.102	4675
466.131	4380
466.170	4519
466.210	4597
466.237	4933
466.290	5578
466.304	5412
466.369	4696
466.372	4739
466.439	5649
466.449	5769
466.506	5028
466.528	4727
466.573	5489
466.607	6050
466.641	6108
466.687	6195
466.708	6359
466.766	6696
466.775	6603
466.842	5798
466.845	5748
466.909	5935
466.925	5958
466.977	5761
467.004	5645
467.044	6048
467.083	6427
467.111	6377
467.163	6244
467.178	6262
467.242	6266
467.245	6288
467.312	6518
467.321	6539
467.379	6633
467.400	6644
467.446	6611
467.480	6566
467.559	7391
467.638	6743
467.717	7042
467.796	7974
467.875	8042
467.955	7506
468.034	9890
468.113	12009
468.192	14642
468.271	16804
468.350	26459
468.429	38374
468.508	40442
468.588	24561
468.667	14623
468.746	11462
468.825	8830
468.904	7849
468.983	7993
469.062	7353
469.141	7898
469.220	7851
469.299	7775
469.378	5171
469.456	7906
469.535	7713
469.614	6595
469.693	6810
469.772	8982
469.851	8287
469.930	9434
470.009	9998
470.088	13458
470.166	20844
470.245	39606
470.324	52662
470.403	33847
470.482	17960
470.560	12023
470.639	9868
470.718	8499
470.797	7769
470.875	7843
470.954	7602
471.033	8004
471.111	6259
471.190	6127
471.269	6472
471.347	6460
471.426	6338
471.505	6297
471.583	6600
471.662	6256
471.740	6510
471.819	6021
471.898	6104
471.976	6460
472.055	5604
472.133	6885
472.212	6664
472.290	6223
472.369	4747
472.447	6561
472.526	5836
472.604	6651
472.683	6291
472.761	6611
472.839	6310
472.918	7189
472.996	7216
473.075	7811
473.153	6839
473.231	7285
473.310	6798
473.388	7440
473.466	6735
473.545	7265
473.623	6958
473.701	6840
473.780	7687
473.858	5531
473.936	9130
474.014	6355
474.093	7292
474.171	7107
474.249	7735
474.327	6838
474.405	5898
474.484	7633
474.562	6711
474.640	6820
474.718	6927
474.796	6211
474.874	7590
474.952	6885
475.030	5955
475.108	5885
475.187	6396
475.265	6725
475.343	7202
475.421	7361
475.499	6962
475.577	6233
475.655	6974
475.733	6504
475.811	7045
475.889	6841
475.966	7002
476.044	6904
476.122	5669
476.200	6914
476.278	5891
476.356	6132
476.434	6190
476.512	6894
476.590	7458
476.667	7846
476.745	5764
476.823	6287
476.901	5903
476.979	6498
477.056	6395
477.134	6685
477.212	5843
477.290	6339
477.367	6493
477.445	5964
477.523	5510
477.601	7191
477.678	5978
477.756	5967
477.834	6344
477.911	6566
477.989	6519
478.066	5821
478.144	5958
478.222	5947
478.299	7552
478.377	7248
478.454	6942
478.532	6585
478.609	6313
478.687	6362
478.764	5474
478.842	7020
478.919	5831
478.997	6518
479.074	5944
479.152	6481
479.229	6535
479.307	5748
479.384	6158
479.461	6161
479.539	6399
479.616	7192
479.694	5044
479.771	6411
479.848	5218
479.926	5634
480.003	7237
480.080	6242
480.157	6241
480.235	6515
480.312	6679
480.389	6780
480.467	6425
480.544	7961
480.621	7523
480.698	9180
480.775	9390
480.853	6950
480.930	7277
481.007	6686
481.084	7121
481.161	7306
481.238	8049
481.315	6882
481.392	7067
481.470	7368
481.547	7142
481.624	7976
481.701	8130
481.778	8204
481.855	8473
481.932	8736
482.009	10691
482.086	11475
482.163	12394
482.240	14484
482.317	15217
482.393	11461
482.470	10105
482.547	11311
482.624	10227
482.701	8912
482.778	9409
482.855	9935
482.932	9941
483.009	9939
483.085	11735
483.162	13017
483.239	14504
483.316	15361
483.393	14936
483.469	12778
483.546	11245
483.623	9822
483.699	8559
483.776	8502
483.853	7804
483.930	8183
484.006	7876
484.083	10451
484.160	8565
484.236	10192
484.313	9438
484.389	9565
484.466	12952
484.543	14072
484.619	20041
484.696	22648
484.772	14606
484.849	11026
484.925	9747
485.002	9384
485.078	8537
485.155	7956
485.231	6996
485.308	7140
485.384	6997
485.461	7615
485.537	7120
485.614	8594
485.690	7248
485.766	6461
485.843	6848
485.919	7054
485.995	7217
486.072	8054
486.148	6442
486.224	6820
486.301	7024
486.377	7548
486.453	5856
486.530	7971
486.606	7915
486.682	6516
486.758	8139
486.835	9173
486.911	8492
486.987	10873
487.063	10777
487.139	12739
487.215	13446
487.292	17579
487.368	20069
487.444	24775
487.520	35208
487.596	54096
487.672	140410
487.748	451768
487.824	660614
487.900	206629
487.976	54286
488.052	28254
488.128	20242
488.204	14151
488.280	13559
488.356	12036
488.432	10772
488.508	10798
488.584	8836
488.660	8074
488.736	7772
488.812	7671
488.888	8471
488.964	7252
489.039	7924
489.115	9447
489.191	7555
489.267	7543
489.343	7263
489.418	7588
489.494	6414
489.570	7117
489.646	8146
489.722	7372
489.797	7233
489.873	8449
489.949	8175
490.024	7980
490.100	7363
490.176	7553
490.251	7520
490.327	8288
490.403	7246
490.478	7847
490.554	7757
490.629	7436
490.705	7733
490.781	7728
490.856	6513
490.932	7087
491.007	7180
491.083	6061
491.158	6795
491.234	7348
491.309	7592
491.385	6342
491.460	5946
491.536	6735
491.611	6107
491.686	6875
491.762	6400
491.837	7368
491.913	8326
491.988	8633
492.063	8959
492.139	7161
492.214	6371
492.289	7652
492.365	5848
492.440	6669
492.515	6225
492.590	7028
492.666	5712
492.741	6486
492.816	6820
492.891	6374
492.967	6149
493.042	5843
493.117	6166
493.192	6803
493.267	7367
493.342	8739
493.418	8621
493.493	7273
493.568	7023
493.643	6369
493.718	6441
493.793	7005
493.868	7730
493.943	6743
494.018	6703
494.093	6492
494.168	6509
494.243	6230
494.318	6497
494.393	7127
494.468	6556
494.543	7388
494.618	7643
494.693	7567
494.768	7104
494.842	7132
494.917	7558
494.992	8227
495.067	6844
495.142	7972
495.217	6276
495.292	7106
495.366	7126
495.441	5888
495.516	8349
495.591	8116
495.665	10260
495.740	13952
495.815	9520
495.890	7651
495.964	5567
496.039	9146
496.114	7848
496.188	9011
496.263	8422
496.338	7075
496.412	7084
496.487	7381
496.561	7533
496.636	7135
496.710	7936
496.785	8016
496.860	7311
496.934	6714
497.009	8796
497.083	7732
497.158	7419
497.232	8496
497.307	8596
497.381	10511
497.455	9868
497.530	8147
497.604	8031
497.679	7394
497.753	7907
497.827	7458
497.902	7178
497.976	8189
498.050	10131
498.125	17765
498.199	15626
498.273	9073
498.348	10543
498.422	9725
498.496	11036
498.570	11446
498.645	8692
498.719	6161
498.793	6305
498.867	7512
498.941	6754
499.016	11608
499.090	15544
499.164	10297
499.238	8888
499.312	9012
499.386	9160
499.460	9891
499.534	12664
499.609	14634
499.683	9899
499.757	7419
499.831	6827
499.905	11814
499.979	10086
500.053	6069
500.127	7187
500.201	7231
500.275	8859
500.349	8751
500.422	8639
500.496	11530
500.570	13589
500.644	19459
500.718	18300
500.792	7709
500.866	5360
500.940	6244
501.013	5933
501.087	5891
501.161	5988
501.235	5766
501.309	8740
501.382	9301
501.456	9685
501.530	6279
501.603	5519
501.677	5652
501.751	3933
501.825	7719
501.898	6560
501.972	6892
502.046	5976
502.119	4893
502.193	6154
502.266	6580
502.340	5632
502.413	5986
502.487	6827
502.561	4860
502.634	6240
502.708	6739
502.781	5074
502.855	6957
502.928	4333
503.002	5867
503.075	4473
503.149	5911
503.222	6030
503.295	6217
503.369	6594
503.442	7238
503.516	8654
503.589	13019
503.662	11889
503.736	14161
503.809	19368
503.882	24898
503.956	38855
504.029	84786
504.102	251949
504.175	354342
504.249	126890
504.322	45266
504.395	23658
504.468	16779
504.542	10420
504.615	8275
504.688	8740
504.761	5734
504.834	7903
504.907	6488
504.980	6265
505.053	5786
505.127	3005
505.200	6883
505.273	3767
505.346	4517
505.419	3933
505.492	6301
505.565	4476
505.638	4512
505.711	4311
505.784	3693
505.857	3522
505.930	6247
506.003	2666
506.076	6017
506.149	4206
506.221	1599
506.294	6675
506.367	2028
506.440	6088
506.513	5370
506.586	3885
506.659	3611
506.731	3073
506.804	3754
506.877	3039
506.950	4146
507.022	4504
507.095	2032
507.168	4069
507.241	4933
507.313	3204
507.386	2029
507.459	4696
507.531	3298
507.604	2871
507.677	4563
507.749	2185
507.822	4845
507.894	3128
507.967	4350
508.040	2845
508.112	3895
508.185	3727
508.257	2217
508.330	4835
508.402	2793
508.475	3170
508.547	4061
508.620	2688
508.692	4157
508.765	4323
508.837	2859
508.909	3994
508.982	2974
509.054	4437
509.127	3080
509.199	2572
509.271	3025
509.344	2565
509.416	4346
509.488	3643
509.560	3401
509.633	2434
509.705	3885
509.777	3277
509.849	3106
509.922	1622
509.994	3074
510.066	4073
510.138	1860
510.210	5715
510.283	3227
510.355	4302
510.427	3293
510.499	3515
510.571	3999
510.643	2080
510.715	4802
510.787	1568
510.859	5142
510.931	3231
511.003	3460
511.076	4144
511.148	2642
511.219	2710
511.291	4320
511.363	4910
511.435	4290
511.507	3003
511.579	4291
511.651	4073
511.723	3804
511.795	4269
511.867	2528
511.939	3758
512.010	3274
512.082	4544
512.154	2373
512.226	3365
512.298	5187
512.369	3965
512.441	5362
512.513	4739
512.585	3168
512.656	4832
512.728	3689
512.800	3552
512.871	4846
512.943	3772
513.015	2796
513.086	3843
513.158	4085
513.230	3131
513.301	4001
513.373	4718
513.444	4203
513.516	4560
513.588	3609
513.659	4892
513.731	4355
513.802	3179
513.874	6507
513.945	5014
514.016	3965
514.088	4236
514.159	2863
514.231	4956
514.302	4062
514.374	5218
514.445	2872
514.516	6517
514.588	3690
514.659	4673
514.730	4119
514.802	5297
514.873	3314
514.944	7175
515.016	4986
515.087	5031
515.158	5087
515.229	5839
515.301	4067
515.372	5604
515.443	5003
515.514	4853
515.585	4682
515.656	5633
515.728	7001
515.799	4711
515.870	6766
515.941	7145
516.012	6692
516.083	10205
516.154	9476
516.225	13625
516.296	17144
516.367	17947
516.438	23259
516.509	31566
516.580	55759
516.651	215633
516.722	671067
516.793	253589
516.864	48390
516.935	41129
517.006	49750
517.077	68458
517.148	171312
517.219	755786
517.289	967784
517.360	174373
517.431	45567
517.502	26914
517.573	24009
517.643	19307
517.714	20067
517.785	22979
517.856	25939
517.926	34395
517.997	42188
518.068	54172
518.138	77858
518.209	142186
518.280	517246
518.350	1292216
518.421	600185
518.492	117777
518.562	67215
518.633	64950
518.703	84921
518.774	186626
518.845	469162
518.915	406195
518.986	115833
519.056	46740
519.127	30604
519.197	23628
519.268	18139
519.338	15048
519.408	10600
519.479	10352
519.549	8313
519.620	9241
519.690	7025
519.760	7300
519.831	6176
519.901	5916
519.971	6547
520.042	5479
520.112	4991
520.182	6533
520.253	5894
520.323	5031
520.393	4744
520.463	7308
520.534	1617
520.604	7168
520.674	6291
520.744	5073
520.814	4449
520.885	6064
520.955	4264
521.025	6317
521.095	6247
521.165	5225
521.235	3093
521.305	3061
521.375	4599
521.445	5671
521.515	3861
521.585	5753
521.655	2923
521.725	4714
521.795	5511
521.865	2262
521.935	6755
522.005	3832
522.075	4294
522.145	5480
522.215	3775
522.285	4942
522.355	4025
522.424	5289
522.494	4425
522.564	5312
522.634	5493
522.704	8605
522.774	4352
522.843	5124
522.913	4692
522.983	3942
523.053	4202
523.122	6072
523.192	4796
523.262	5555
523.331	3914
523.401	5589
523.471	5543
523.540	5081
523.610	4294
523.680	5295
523.749	5727
523.819	5956
523.888	5571
523.958	5350
524.027	5703
524.097	5827
524.166	5650
524.236	4630
524.305	7188
524.375	3913
524.444	4179
524.514	7794
524.583	5106
524.653	4576
524.722	6358
524.791	4317
524.861	7948
524.930	5419
524.999	6176
525.069	7059
525.138	6611
525.207	6328
525.277	9044
525.346	7948
525.415	10094
525.484	10927
525.554	11975
525.623	15920
525.692	21442
525.761	25157
525.830	31661
525.900	43323
525.969	70247
526.038	136358
526.107	300161
526.176	807653
526.245	587384
526.314	175017
526.383	410212
526.452	523169
526.522	749841
526.591	621405
526.660	104956
526.729	62782
526.797	66561
526.867	98823
526.935	302516
527.004	1047270
527.073	619837
527.142	88748
527.211	36329
527.280	23270
527.349	17947
527.418	11667
527.487	11820
527.555	8779
527.624	8494
527.693	6694
527.762	9196
527.831	6346
527.899	8169
527.968	6771
528.037	4416
528.106	6877
528.174	6737
528.243	6649
528.312	6744
528.380	6059
528.449	4426
528.518	6866
528.586	4122
528.655	5500
528.723	5134
528.792	5183
528.861	4913
528.929	5108
528.998	6318
529.066	4290
529.135	5687
529.203	4586
529.272	5019
529.340	7288
529.409	8309
529.477	4317
529.545	5166
529.614	8466
529.682	5612
529.751	6261
529.819	8837
529.887	7506
529.956	7387
530.024	6964
530.092	5967
530.161	7808
530.229	7430
530.297	6161
530.365	8859
530.434	8048
530.502	6159
530.570	6911
530.638	5445
530.707	6920
530.775	7885
530.843	6481
530.911	7313
530.979	7972
531.047	7502
531.115	7627
531.183	7033
531.252	6799
531.320	6725
531.388	6666
531.456	7172
531.524	5799
531.592	7739
531.660	10445
531.728	6814
531.796	5986
531.864	8027
531.932	7432
532.000	6968
532.067	7422
532.135	8221
532.203	10035
532.271	8314
532.339	10638
532.407	9385
532.475	8619
532.542	9341
532.610	8872
532.678	7085
532.746	12299
532.814	15270
532.881	10791
532.949	9365
533.017	9648
533.084	8567
533.152	7491
533.220	8655
533.287	7495
533.355	9276
533.423	9564
533.490	7846
533.558	9811
533.625	8609
533.693	8277
533.761	9190
533.828	9775
533.896	7870
533.963	10557
534.031	9959
534.098	13243
534.166	14702
534.233	13638
534.300	16386
534.368	16276
534.435	15456
534.503	17818
534.570	19828
534.637	21958
534.705	26139
534.772	34410
534.840	77281
534.907	358309
534.974	398923
535.041	48399
535.109	20723
535.176	15573
535.243	14681
535.310	13172
535.378	12573
535.445	12449
535.512	13976
535.579	13587
535.646	11201
535.714	12985
535.781	14827
535.848	13536
535.915	14752
535.982	11224
536.049	11722
536.116	13932
536.183	12095
536.250	11064
536.317	11467
536.384	12756
536.451	12663
536.518	13920
536.585	11782
536.652	14170
536.719	15306
536.786	12175
536.853	12710
536.920	13836
536.987	13052
537.053	12442
537.120	16178
537.187	15335
537.254	14728
537.321	14215
537.388	15473
537.454	13121
537.521	13464
537.588	13050
537.654	14287
537.721	14542
537.788	15397
537.855	14583
537.921	13637
537.988	13077
538.055	13452
538.121	11517
538.188	11604
538.254	12429
538.321	12452
538.388	12914
538.454	14811
538.521	15702
538.587	15104
538.654	14391
538.720	13532
538.787	14627
538.853	13748
538.920	13261
538.986	11945
539.053	11335
539.119	13760
539.185	13274
539.252	14317
539.318	13112
539.385	16625
539.451	12732
539.517	13985
539.583	14278
539.650	13761
539.716	15473
539.782	13501
539.849	11386
539.915	14482
539.981	13086
540.047	12778
540.114	13242
540.180	13954
540.246	14257
540.312	15949
540.378	15011
540.444	16670
540.510	15009
540.576	16539
540.643	13385
540.709	12912
540.775	13830
540.841	13355
540.907	13859
540.973	14421
541.039	13239
541.105	14377
541.171	15450
541.237	14315
541.303	15717
541.369	17007
541.435	15411
541.500	14192
541.566	12578
541.632	13120
541.698	13801
541.764	15445
541.830	13619
541.896	13199
541.961	14582
542.027	13940
542.093	15069
542.159	15725
542.224	13225
542.290	15966
542.356	12831
542.421	14271
542.487	13200
542.553	12710
542.618	13111
542.684	13232
542.750	12804
542.815	15573
542.881	14214
542.947	16157
543.012	15931
543.078	14077
543.143	12059
543.209	13925
543.274	12839
543.340	13402
543.405	14639
543.471	14091
543.536	12906
543.602	14521
543.667	12383
543.732	15605
543.798	12900
543.863	14546
543.928	13532
543.994	14649
544.059	15274
544.124	15130
544.190	14102
544.255	14936
544.320	16206
544.386	14565
544.451	15756
544.516	16241
544.581	15184
544.646	17054
544.712	17650
544.777	17333
544.842	15800
544.907	16040
544.972	16200
545.037	17428
545.102	17126
545.168	17567
545.233	17899
545.298	18323
545.363	17897
545.428	18839
545.493	20534
545.558	19418
545.623	19591
545.688	19378
545.753	19770
545.818	20733
545.883	21726
545.947	22717
546.012	23769
546.077	24502
546.142	26733
546.207	26405
546.272	28846
546.337	28588
546.401	29171
546.466	31870
546.531	32218
546.596	36003
546.661	36117
546.725	39059
546.790	39382
546.855	45088
546.919	47991
546.984	53913
547.049	58580
547.113	67092
547.178	74396
547.243	84092
547.307	97092
547.372	108373
547.436	105886
547.501	112722
547.565	120194
547.630	110446
547.695	106580
547.759	107353
547.823	108312
547.888	111786
547.952	112614
548.017	117740
548.081	118795
548.146	117267
548.210	122433
548.274	132189
548.339	128558
548.403	118155
548.468	111018
548.532	110325
548.596	112019
548.660	112268
548.725	123336
548.789	134607
548.853	129442
548.917	123424
548.982	120685
549.046	107474
549.110	97520
549.174	101645
549.238	118180
549.303	130186
549.367	133001
549.431	126966
549.495	118537
549.559	120003
549.623	138491
549.687	151936
549.751	146603
549.815	175888
549.879	177477
549.943	172217
550.007	178994
550.071	176258
550.135	156023
550.199	149840
550.263	148176
550.327	141106
550.391	143484
550.455	160128
550.519	169936
550.582	180828
550.646	203666
550.710	205078
550.774	203098
550.838	206724
550.901	213039
550.965	224924
551.029	235439
551.093	254347
551.156	283544
551.220	327603
551.284	365955
551.347	275264
551.411	224904
551.475	211771
551.538	219926
551.602	203940
551.666	192566
551.729	181323
551.793	175992
551.856	173540
551.920	170552
551.983	170172
552.047	167152
552.110	169798
552.174	169762
552.237	173972
552.301	161937
552.364	153874
552.428	153737
552.491	159718
552.554	162078
552.618	162868
552.681	168118
552.745	169056
552.808	204891
552.871	242834
552.934	196084
552.998	170180
553.061	158589
553.124	152379
553.187	148528
553.251	153972
553.314	153885
553.377	154730
553.440	164038
553.503	165660
553.567	165854
553.630	163368
553.693	164449
553.756	164996
553.819	161451
553.882	155245
553.945	155198
554.008	156735
554.071	157344
554.134	157686
554.197	149137
554.260	146146
554.323	148220
554.386	151535
554.449	157329
554.512	156015
554.575	150060
554.638	148137
554.701	149554
554.764	145844
554.827	140484
554.889	134803
554.952	126740
555.015	125712
555.078	128523
555.141	129968
555.203	125941
555.266	125768
555.329	125064
555.391	119836
555.454	117469
555.517	115054
555.580	111648
555.642	107652
555.705	103570
555.768	104236
555.830	101641
555.893	95929
555.955	92935
556.018	90722
556.080	92297
556.143	95088
556.206	93275
556.268	90903
556.330	88704
556.393	87950
556.455	82560
556.518	82146
556.580	77569
556.643	75993
556.705	76594
556.767	73975
556.830	73125
556.892	71056
556.955	70182
557.017	68255
557.079	68070
557.142	66294
557.204	65329
557.266	66885
557.328	61165
557.391	58095
557.453	56562
557.515	57577
557.577	57179
557.639	59578
557.701	59572
557.764	60313
557.826	60203
557.888	63990
557.950	66853
558.012	76891
558.074	101548
558.136	234854
558.198	506514
558.260	171086
558.322	71333
558.384	70716
558.446	74642
558.508	81112
558.570	90702
558.632	106251
558.694	139511
558.756	240520
558.818	660489
558.880	1190217
558.942	523736
559.003	545660
559.065	244441
559.127	98448
559.189	92751
559.251	103328
559.312	152750
559.374	368518
559.436	957822
559.498	458537
559.559	114353
559.621	94362
559.683	111263
559.744	185346
559.806	557306
559.868	716317
559.929	163630
559.991	108687
560.052	185153
560.114	497680
560.176	296960
560.237	300203
560.299	433546
560.360	90477
560.422	37897
560.483	31942
560.545	28441
560.606	27443
560.667	25644
560.729	24543
560.790	24022
560.852	23491
560.913	22657
560.974	22234
561.036	21072
561.097	21519
561.158	20174
561.220	21114
561.281	19090
561.342	19457
561.403	19596
561.465	18662
561.526	19887
561.587	19444
561.648	17962
561.709	17677
561.771	18000
561.832	17468
561.893	16890
561.954	17138
562.015	15732
562.076	16222
562.137	15405
562.198	15741
562.259	16232
562.320	15706
562.381	15347
562.442	16116
562.503	15846
562.564	15676
562.625	14697
562.686	15609
562.747	14700
562.808	15270
562.869	13724
562.930	14370
562.991	13104
563.051	14486
563.112	14754
563.173	14378
563.234	12949
563.294	13450
563.355	12998
563.416	13068
563.477	13231
563.537	13789
563.598	13244
563.659	13455
563.720	12132
563.780	12698
563.841	12006
563.901	13529
563.962	12509
564.023	12805
564.083	12444
564.144	12099
564.204	12069
564.265	11952
564.325	11828
564.386	11728
564.446	11796
564.507	11780
564.567	10061
564.628	11936
564.688	11954
564.749	11513
564.809	11547
564.869	11099
564.930	11706
564.990	12762
565.050	11127
565.111	11216
565.171	10869
565.231	10887
565.292	12033
565.352	10793
565.412	11379
565.472	11266
565.532	11398
565.593	11240
565.653	10457
565.713	10917
565.773	11500
565.833	11904
565.893	11679
565.953	10680
566.013	10538
566.074	10310
566.134	10309
566.194	9297
566.254	9885
566.314	9601
566.374	9598
566.434	10762
566.494	10771
566.554	9574
566.614	10161
566.673	10558
566.733	11308
566.793	11721
566.853	10139
566.913	10603
566.973	9743
567.033	10791
567.092	9788
567.152	9881
567.212	11432
567.272	10954
567.331	10310
567.391	11591
567.451	12109
567.511	12087
567.570	11749
567.630	11126
567.690	10589
567.749	10873
567.809	11334
567.868	11192
567.928	11169
567.988	10517
568.047	10640
568.107	11420
568.166	11555
568.226	11725
568.285	12694
568.345	11380
568.404	11283
568.464	11806
568.523	12085
568.582	12204
568.642	10675
568.701	9955
568.761	11133
568.820	11223
568.879	10898
568.939	11345
568.998	11320
569.057	11808
569.116	10482
569.176	11433
569.235	11364
569.294	10379
569.353	10192
569.413	10777
569.472	9340
569.531	9973
569.590	10274
569.649	9775
569.708	10080
569.767	10304
569.827	10017
569.886	9753
569.945	10319
570.004	11064
570.063	11241
570.122	11538
570.181	9737
570.240	10238
570.299	12293
570.358	10646
570.417	10975
570.475	11043
570.534	11970
570.593	11079
570.652	11311
570.711	11837
570.770	10933
570.829	10217
570.887	12095
570.946	12811
571.005	11343
571.064	13920
571.122	15778
571.181	12943
571.240	11357
571.299	11293
571.357	10264
571.416	9747
571.475	10427
571.533	11153
571.592	11839
571.650	12501
571.709	12251
571.768	15686
571.826	15442
571.885	13760
571.943	11568
572.002	10233
572.060	10810
572.119	10678
572.177	10170
572.236	10798
572.294	10966
572.352	12265
572.411	12123
572.469	10922
572.528	10625
572.586	9895
572.644	10285
572.703	10692
572.761	9826
572.819	9725
572.877	9786
572.936	10072
572.994	9370
573.052	9255
573.110	10279
573.169	10387
573.227	10590
573.285	10015
573.343	10028
573.401	10186
573.459	10443
573.517	10890
573.576	12338
573.634	11647
573.692	10327
573.750	12620
573.808	9936
573.866	10816
573.924	9855
573.982	9829
574.040	9309
574.098	9554
574.155	9498
574.213	9024
574.271	10125
574.329	11547
574.387	9921
574.445	9133
574.503	8831
574.560	9088
574.618	9625
574.676	10036
574.734	8410
574.792	9016
574.849	8042
574.907	7578
574.965	7339
575.022	7076
575.080	6861
575.138	7537
575.195	7105
575.253	6537
575.311	6901
575.368	7701
575.426	6559
575.483	8667
575.541	8105
575.598	7613
575.656	7373
575.713	7094
575.771	9218
575.828	8079
575.886	7102
575.943	7149
576.001	6648
576.058	6665
576.115	7390
576.173	7612
576.230	7299
576.287	7442
576.345	7403
576.402	7484
576.459	8361
576.517	6764
576.574	7372
576.631	6940
576.688	6238
576.746	6422
576.803	5932
576.860	5734
576.917	6424
576.974	6757
577.031	6883
577.089	7302
577.146	5292
577.203	6069
577.260	6007
577.317	6713
577.374	5631
577.431	6096
577.488	5826
577.545	5168
577.602	6227
577.659	5617
577.716	6109
577.773	6593
577.830	5884
577.886	6791
577.943	6172
578.000	6126
578.057	5404
578.114	6076
578.171	5798
578.227	6871
578.284	5395
578.341	6914
578.398	7093
578.454	6590
578.511	5705
578.568	6625
578.625	4922
578.681	5589
578.738	6167
578.794	6231
578.851	6177
578.908	6197
578.964	6159
579.021	6632
579.077	6073
579.134	6290
579.190	6263
579.247	6726
579.303	5745
579.360	6314
579.416	6104
579.473	6107
579.529	5757
579.586	6786
579.642	6888
579.698	6827
579.755	6177
579.811	6174
579.867	6332
579.924	6908
579.980	7198
580.036	7109
580.093	7942
580.149	7430
580.205	6620
580.261	6917
580.317	7102
580.374	6681
580.430	7575
580.486	6627
580.542	7201
580.598	7847
580.619	7908
580.654	8023
580.692	7207
580.710	6815
580.765	6570
580.767	6567
580.823	8747
580.838	8452
580.879	7697
580.911	8110
580.935	8433
580.984	7072
580.991	6896
581.047	7877
581.057	7705
581.103	6940
581.130	7077
581.159	7252
581.203	6794
581.215	6674
581.270	7353
581.276	7358
581.326	7454
581.349	7141
581.382	6686
581.422	6875
581.438	6971
581.494	6418
581.494	6401
581.550	4963
581.567	5550
581.606	6823
581.640	6623
581.661	6511
581.713	8175
581.717	8325
581.773	6240
581.786	6513
581.829	7190
581.859	7226
581.885	7361
581.932	6903
581.940	6807
581.996	7339
582.004	7436
582.052	7973
582.077	7442
582.107	6885
582.150	6914
582.163	6911
582.219	6766
582.223	6796
582.274	7186
582.296	6848
582.330	6336
582.368	6649
582.386	6840
582.441	7222
582.441	7223
582.497	6812
582.514	6793
582.552	7034
582.587	7111
582.608	7106
582.659	7083
582.663	7083
582.719	7127
582.732	7218
582.774	7646
582.805	7267
582.830	6867
582.877	7081
582.885	7126
582.941	7081
582.950	7052
582.996	6825
583.023	7394
583.052	8234
583.095	7547
583.107	7243
583.162	7265
583.168	7267
583.218	7640
583.240	7300
583.273	6536
583.313	6759
583.328	6998
583.384	7300
583.385	7289
583.439	6565
583.458	6654
583.494	6927
583.531	6916
583.549	6939
583.603	7005
583.605	7001
583.660	7753
583.676	7553
583.715	7159
583.748	7013
583.770	6880
583.820	7769
583.825	7844
583.881	6794
583.893	6747
583.936	6885
583.965	7044
583.991	6988
584.038	7374
584.046	7461
584.101	7162
584.110	7104
584.156	6845
584.183	7061
584.211	7326
584.255	7873
584.266	8033
584.321	7847
584.328	7821
584.376	7524
584.400	7784
584.431	7972
584.472	8152
584.486	8281
584.541	8744
584.545	8797
584.596	9425
584.617	8877
584.651	8492
584.689	9299
584.706	9401
584.761	9867
584.762	9867
584.816	9952
584.834	10232
584.871	10889
584.906	11064
584.926	11103
584.978	12496
584.980	12569
585.035	14591
585.051	15153
585.090	16307
585.123	16935
585.145	17611
585.195	20998
585.200	21357
585.254	25123
585.267	26103
585.309	29068
585.340	32092
585.364	35096
585.412	42408
585.419	43588
585.473	55587
585.484	59216
585.528	78759
585.556	100061
585.583	138554
585.628	230566
585.637	260768
585.692	536441
585.700	577919
585.747	706600
585.772	588163
585.801	366206
585.845	132551
585.856	101258
585.910	49841
585.917	45186
585.965	31846
585.989	27624
586.019	24451
586.061	21659
586.074	20936
586.128	18231
586.133	18105
586.183	17487
586.205	17084
586.237	16509
586.277	15885
586.292	15709
586.346	15854
586.349	15801
586.401	14722
586.421	14595
586.455	14652
586.493	14926
586.509	15053
586.564	15429
586.565	15439
586.618	16934
586.637	17797
586.672	20316
586.709	24272
586.727	25706
586.781	28096
586.781	28089
586.835	19916
586.853	18404
586.889	16540
586.925	15035
586.944	14795
586.996	15127
586.998	15141
587.052	14580
587.068	14687
587.106	14957
587.140	14867
587.161	14748
587.212	14686
587.215	14688
587.269	14550
587.284	14588
587.323	15060
587.356	15689
587.377	16085
587.427	16188
587.431	16160
587.485	16293
587.499	16267
587.539	16889
587.571	17464
587.593	17597
587.643	18134
587.648	18272
587.702	18849
587.715	19093
587.755	18804
587.786	18615
587.810	18756
587.858	19143
587.864	19184
587.917	19060
587.930	19153
587.971	19552
588.001	19565
588.025	19465
588.073	19346
588.079	19399
588.133	20309
588.145	20361
588.187	19996
588.217	19846
588.241	20327
588.288	21693
588.295	21755
588.348	21925
588.360	21937
588.402	22434
588.431	22589
588.456	22999
588.503	24841
588.510	25114
588.564	26435
588.575	26912
588.617	28418
588.646	29238
588.671	30475
588.718	33632
588.725	34429
588.778	42444
588.789	44536
588.832	67323
588.861	85869
588.886	125131
588.932	213806
588.939	221291
588.993	265791
589.004	262349
589.047	136392
589.075	65359
589.100	49779
589.147	33100
589.154	32519
589.207	29410
589.218	28881
589.261	29729
589.290	30547
589.314	31422
589.361	34081
589.368	35473
589.421	48408
589.433	51888
589.475	90820
589.504	122442
589.528	161020
589.576	240009
589.582	231940
589.635	111789
589.647	88358
589.689	49420
589.718	28722
589.742	27071
589.790	23929
589.795	23777
589.849	22719
589.861	22497
589.902	22266
589.932	22024
589.955	21882
590.004	21739
590.009	21717
590.062	21457
590.075	21302
590.115	21186
590.146	21162
590.168	21011
590.218	20796
590.222	20830
590.275	20896
590.289	20909
590.328	21693
590.360	22369
590.381	22565
590.431	22841
590.435	22860
590.488	23034
590.503	23026
590.541	23212
590.574	23298
590.594	23415
590.645	23921
590.647	23973
590.700	24818
590.716	25019
590.753	25979
590.787	26926
590.806	27007
590.859	27323
590.859	27346
590.912	27317
590.930	27362
590.965	28067
591.001	28713
591.018	28270
591.071	26734
591.072	26700
591.124	26333
591.143	26285
591.177	27012
591.214	27720
591.230	27931
591.283	28648
591.285	28646
591.336	28193
591.356	28051
591.389	28211
591.427	28176
591.442	27977
591.495	27425
591.498	27350
591.547	28189
591.569	28653
591.600	28420
591.640	27894
591.653	28107
591.706	28953
591.711	29021
591.759	29907
591.782	30388
591.811	31238
591.853	32327
591.864	32231
591.917	31633
591.924	31510
591.969	31752
591.995	31839
592.022	32346
592.066	33193
592.075	33245
592.127	33343
592.137	33330
592.180	33890
592.208	34213
592.233	34784
592.279	35816
592.285	35877
592.338	36113
592.350	36134
592.390	36381
592.421	36539
592.443	36968
592.491	37815
592.495	37874
592.548	38291
592.562	38376
592.600	38198
592.633	37994
592.653	38035
592.704	37863
592.705	38099
592.775	39136
592.846	40252
592.916	40600
592.987	41216
593.058	41852
593.128	42052
593.199	42380
593.270	44897
593.341	44401
593.411	46192
593.482	48911
593.553	49794
593.623	47499
593.694	50455
593.764	49984
593.835	49243
593.906	51146
593.976	52373
594.047	52039
594.117	55583
594.188	56601
594.258	56498
594.329	57695
594.399	59193
594.470	59530
594.540	62541
594.611	62935
594.681	63945
594.751	63105
594.822	66140
594.892	69076
594.963	69581
595.033	72483
595.103	74818
595.174	75024
595.244	77037
595.314	78587
595.384	81085
595.455	82716
595.525	85466
595.595	89833
595.665	89804
595.736	86479
595.806	89654
595.876	91203
595.946	92099
596.016	96101
596.087	99111
596.157	96457
596.227	99364
596.297	104511
596.367	112780
596.437	118122
596.507	117531
596.577	117336
596.647	121881
596.717	126428
596.787	127941
596.857	128362
596.927	131262
596.997	129070
597.067	131402
597.137	132877
597.207	134355
597.277	134980
597.347	129554
597.417	124986
597.487	125759
597.557	128972
597.626	133797
597.696	135573
597.766	132538
597.836	124193
597.906	118302
597.975	116335
598.045	118385
598.115	124567
598.185	133300
598.254	151746
598.324	163540
598.394	165540
598.464	160115
598.533	157008
598.603	145495
598.672	141308
598.742	144644
598.812	144877
598.881	149794
598.951	148708
599.020	151178
599.090	155683
599.159	158880
599.229	152003
599.299	151637
599.368	153463
599.437	151872
599.507	138544
599.576	133923
599.646	131350
599.715	131632
599.785	128582
599.854	123254
599.924	123365
599.993	122648
600.062	124735
600.132	129892
600.201	138196
600.270	162147
600.340	167721
600.409	165615
600.478	162373
600.547	167814
600.617	147852
600.686	117691
600.755	106598
600.824	101277
600.894	101984
600.963	100312
601.032	97762
601.101	94885
601.170	90643
601.239	87489
601.308	87440
601.378	86475
601.447	87716
601.516	87579
601.585	89136
601.654	91790
601.723	90919
601.792	94353
601.861	97084
601.930	100714
601.999	100903
602.068	99870
602.137	102994
602.206	103895
602.275	106423
602.343	106358
602.412	106474
602.481	109415
602.550	109516
602.619	113436
602.688	114716
602.756	114620
602.825	115684
602.894	120295
602.963	121850
603.032	121630
603.100	122944
603.169	124209
603.238	124481
603.307	125548
603.375	128145
603.444	131676
603.513	132637
603.581	135315
603.650	136319
603.719	131955
603.787	137468
603.856	141885
603.924	144722
603.993	150277
604.061	155999
604.130	163427
604.198	166226
604.267	170103
604.335	173233
604.404	174282
604.472	177199
604.541	178915
604.609	182074
604.678	181074
604.746	182398
604.815	187241
604.883	189521
604.951	191474
605.020	194286
605.088	198975
605.156	202740
605.225	204753
605.293	205756
605.361	207153
605.429	209656
605.498	212684
605.566	219413
605.634	227210
605.702	239156
605.771	244155
605.839	243281
605.907	240131
605.975	230899
606.043	226981
606.111	226867
606.180	227336
606.248	223234
606.316	221632
606.384	219978
606.452	223149
606.520	227822
606.588	237301
606.656	238071
606.724	232814
606.792	218744
606.860	196572
606.928	180328
606.996	174637
607.064	171037
607.132	175445
607.200	188597
607.267	191771
607.335	197566
607.403	200360
607.471	193609
607.539	187925
607.607	188413
607.674	165842
607.742	167156
607.810	164526
607.878	165709
607.946	169560
608.013	176471
608.081	180078
608.149	182223
608.216	188599
608.284	193752
608.352	196964
608.419	192795
608.487	189228
608.555	186122
608.622	192134
608.690	206383
608.757	227433
608.825	230774
608.893	222030
608.960	208681
609.028	199270
609.095	200226
609.163	199016
609.230	177808
609.298	163786
609.365	174472
609.432	188233
609.500	204278
609.567	235556
609.635	268902
609.702	278779
609.769	264175
609.837	202608
609.904	178727
609.971	186581
610.039	207555
610.106	265598
610.173	479294
610.241	955680
610.308	509829
610.375	227214
610.442	194933
610.509	185263
610.577	186827
610.644	188910
610.711	195637
610.778	200051
610.845	209445
610.912	221812
610.980	228355
611.047	229807
611.114	223226
611.181	218452
611.248	219042
611.315	231689
611.382	237011
611.449	244263
611.516	247648
611.583	243860
611.650	246960
611.717	250456
611.784	254840
611.851	265079
611.918	282424
611.984	324495
612.051	432104
612.118	761238
612.185	1414974
612.252	920531
612.319	384136
612.386	323750
612.452	294801
612.519	281783
612.586	273829
612.653	280836
612.719	288782
612.786	274800
612.853	258442
612.919	254190
612.986	256012
613.053	241882
613.120	228006
613.186	219393
613.253	220569
613.319	222048
613.386	222331
613.453	226812
613.519	227926
613.586	223979
613.652	225735
613.719	223292
613.785	230039
613.852	229890
613.918	226483
613.985	231514
614.051	240436
614.118	236192
614.184	225738
614.250	227210
614.317	232477
614.383	230927
614.449	235875
614.516	232469
614.582	232965
614.648	229294
614.715	226864
614.781	220647
614.847	223313
614.914	221658
614.980	214723
615.046	216941
615.112	222764
615.179	222333
615.245	227589
615.311	223042
615.377	226200
615.443	230006
615.509	233453
615.575	241656
615.642	238145
615.708	244059
615.774	254980
615.840	270856
615.906	286856
615.972	340261
616.038	483437
616.104	895612
616.170	1545978
616.236	1237642
616.302	527610
616.368	425079
616.434	313145
616.500	294217
616.565	331653
616.631	410617
616.697	331581
616.763	347625
616.829	525522
616.895	878224
616.961	767916
617.026	352203
617.092	259060
617.158	242151
617.224	234729
617.289	215802
617.355	208692
617.421	204696
617.487	203372
617.552	193969
617.618	194304
617.684	193115
617.749	193795
617.815	185632
617.880	182709
617.946	181648
618.012	187033
618.077	191497
618.143	180555
618.208	184323
618.274	198356
618.339	196468
618.405	161268
618.470	163820
618.536	162607
618.601	160780
618.667	145925
618.732	141541
618.798	139934
618.863	138428
618.928	137943
618.994	140530
619.059	139459
619.124	139092
619.190	137325
619.255	136887
619.320	138405
619.386	139300
619.451	136316
619.516	133411
619.581	135106
619.647	137947
619.712	138886
619.777	134102
619.842	133454
619.907	136053
619.972	139314
620.038	136827
620.103	135054
620.168	134337
620.233	137491
620.298	136866
620.363	139963
620.428	144871
620.493	147092
620.558	149222
620.623	148428
620.688	149749
620.753	147992
620.818	150458
620.883	152132
620.948	150481
621.013	148495
621.078	146448
621.143	146270
621.207	150701
621.272	145916
621.337	141446
621.402	140063
621.467	139002
621.532	140546
621.596	140670
621.661	133939
621.726	133695
621.791	137813
621.855	135589
621.920	133451
621.985	138152
622.049	141004
622.114	138698
622.179	141797
622.243	143557
622.308	149902
622.373	156238
622.437	150102
622.502	143321
622.566	142080
622.631	140863
622.695	145117
622.760	144511
622.824	144361
622.889	143983
622.953	143221
623.018	154242
623.082	153890
623.147	152862
623.211	146822
623.276	148635
623.340	141585
623.404	138894
623.469	138208
623.533	141476
623.597	136686
623.662	137582
623.726	125947
623.790	119706
623.854	116976
623.919	117240
623.983	119867
624.047	120970
624.111	122407
624.176	126218
624.240	126555
624.304	132047
624.368	125101
624.432	125650
624.496	128332
624.560	136778
624.625	134487
624.689	135454
624.753	142780
624.817	135057
624.881	131318
624.945	119186
625.009	114999
625.073	119985
625.137	120860
625.201	126833
625.265	125209
625.329	120802
625.393	122370
625.456	123553
625.520	126504
625.584	130148
625.648	133160
625.712	134093
625.776	132848
625.839	124942
625.903	107116
625.967	100342
626.031	109306
626.095	128827
626.158	116739
626.222	92093
626.286	86411
626.349	82971
626.413	78397
626.477	78306
626.540	78377
626.604	77859
626.668	75807
626.731	74075
626.795	75016
626.858	77123
626.922	72993
626.986	72797
627.049	72166
627.113	77246
627.176	74541
627.240	72017
627.303	72960
627.366	71601
627.430	72637
627.493	71518
627.557	70034
627.620	72944
627.684	74871
627.747	75277
627.810	67013
627.874	61090
627.937	58501
628.000	63455
628.064	59748
628.127	53229
628.190	53310
628.253	51479
628.317	49047
628.380	47946
628.443	45448
628.506	45834
628.569	44139
628.632	41266
628.696	41617
628.759	42189
628.822	39883
628.885	38515
628.948	37594
629.011	36512
629.074	35852
629.137	35138
629.200	34232
629.263	35628
629.326	33067
629.389	33939
629.452	32329
629.515	33487
629.578	31748
629.641	33890
629.704	32363
629.767	32417
629.830	31836
629.892	31010
629.955	29566
630.018	32825
630.081	29126
630.144	31329
630.207	28672
630.269	31703
630.332	29514
630.395	29622
630.458	28712
630.520	26499
630.583	29065
630.646	29493
630.708	28790
630.771	29078
630.834	31276
630.896	30271
630.959	30226
631.021	30092
631.084	28623
631.146	30026
631.209	30025
631.272	30026
631.334	30638
631.397	31904
631.459	31275
631.522	34952
631.584	34548
631.646	39070
631.709	39198
631.771	41315
631.834	37218
631.896	36702
631.958	32078
632.021	31874
632.083	28914
632.145	30066
632.208	28190
632.270	29710
632.332	27519
632.395	27649
632.457	28837
632.519	27421
632.581	28232
632.643	26338
632.706	27129
632.768	26554
632.830	27346
632.892	28199
632.954	27879
633.016	28638
633.078	28221
633.141	28914
633.203	27247
633.265	28107
633.327	27278
633.389	27869
633.451	28955
633.513	27307
633.575	29007
633.637	28743
633.698	28970
633.760	31182
633.822	32886
633.884	34233
633.946	33912
634.008	36204
634.070	37675
634.132	41635
634.193	45361
634.255	50773
634.317	51912
634.379	49205
634.441	43027
634.502	38620
634.564	35036
634.626	31753
634.687	29877
634.749	28827
634.811	29101
634.873	28150
634.934	27557
634.996	29007
635.057	27264
635.119	28782
635.181	29808
635.242	30456
635.304	27581
635.365	32355
635.427	27873
635.488	29168
635.550	28054
635.611	31149
635.673	28402
635.734	33663
635.796	34721
635.857	40541
635.918	41480
635.980	48851
636.041	51004
636.102	56290
636.164	57261
636.225	54044
636.286	43201
636.348	39843
636.409	34157
636.470	30936
636.531	30244
636.593	28685
636.654	28638
636.715	27190
636.776	25292
636.838	25298
636.899	24862
636.960	23699
637.021	23797
637.082	22560
637.143	22907
637.204	22064
637.265	21212
637.326	24153
637.387	24014
637.448	22205
637.509	23377
637.570	22593
637.631	23792
637.692	20177
637.753	20206
637.814	21496
637.875	20650
637.936	21475
637.997	20331
638.058	20081
638.119	21008
638.179	20255
638.240	20693
638.301	20976
638.362	19522
638.423	18837
638.483	19879
638.544	18732
638.605	18441
638.666	18333
638.726	18739
638.787	20044
638.848	19573
638.908	19176
638.969	19018
639.030	18223
639.090	17352
639.151	18415
639.211	19318
639.272	19786
639.332	19118
639.393	19942
639.453	21400
639.514	22171
639.574	19551
639.635	17187
639.695	18506
639.756	17293
639.816	17594
639.877	16049
639.937	17987
639.997	18467
640.058	16550
640.118	16416
640.178	17491
640.239	18134
640.299	17833
640.359	17855
640.420	19815
640.480	23330
640.540	27576
640.600	27163
640.661	22610
640.721	20537
640.781	21423
640.841	16250
640.901	18090
640.961	17936
641.021	19852
641.082	20753
641.142	17036
641.202	17696
641.262	13759
641.322	17156
641.382	15102
641.442	16120
641.502	15753
641.562	16825
641.622	17256
641.682	19055
641.742	23400
641.802	19990
641.861	15858
641.921	16329
641.981	15581
642.041	14596
642.101	14165
642.161	12967
642.221	15096
642.280	15202
642.340	14811
642.400	15010
642.460	16517
642.519	15571
642.579	16047
642.639	17065
642.698	13489
642.758	18762
642.818	16080
642.877	15586
642.937	15427
642.997	16789
643.056	16110
643.116	14849
643.175	17970
643.235	16712
643.294	18088
643.354	19379
643.414	20207
643.473	24549
643.532	30193
643.592	42934
643.651	65151
643.711	115083
643.770	222836
643.830	526621
643.889	865506
643.948	222685
644.008	56097
644.067	35784
644.126	25214
644.186	22296
644.245	20466
644.304	17034
644.363	20039
644.423	16169
644.482	17612
644.541	19105
644.600	18782
644.659	26480
644.719	32874
644.778	50058
644.837	91581
644.896	193216
644.955	389449
645.014	108957
645.073	29129
645.132	22701
645.191	20810
645.250	19190
645.309	21721
645.368	23697
645.427	33974
645.486	62054
645.545	99155
645.604	26147
645.663	17074
645.722	17380
645.781	19597
645.840	22371
645.898	28352
645.957	39767
646.016	60264
646.075	110281
646.134	211476
646.192	555345
646.251	645094
646.310	116323
646.369	41960
646.427	34613
646.486	24062
646.545	19696
646.603	17125
646.662	17252
646.721	16609
646.779	15098
646.838	16661
646.896	23872
646.955	32115
647.014	53282
647.072	108331
647.131	279794
647.189	106463
647.248	19933
647.306	15594
647.365	14392
647.423	11678
647.481	13950
647.540	10598
647.598	12004
647.657	10890
647.715	11696
647.773	9660
647.832	11843
647.890	9177
647.948	9127
648.007	9468
648.065	8580
648.123	8656
648.181	10386
648.240	9516
648.298	8816
648.356	8752
648.414	9228
648.472	8486
648.531	9201
648.589	8007
648.647	9528
648.705	7870
648.763	9437
648.821	9891
648.879	9837
648.937	11913
648.995	14877
649.053	19661
649.111	31004
649.169	50994
649.227	93912
649.285	203180
649.343	514786
649.401	199672
649.459	32095
649.516	18331
649.574	14703
649.632	15661
649.690	17841
649.748	23547
649.806	35856
649.863	73146
649.921	209353
649.979	109836
650.037	16101
650.094	8972
650.152	10396
650.210	7547
650.268	7399
650.325	6461
650.383	5942
650.440	5850
650.498	6686
650.556	5045
650.613	5409
650.671	6545
650.728	7184
650.786	7128
650.843	12346
650.901	7069
650.958	5223
651.016	6003
651.073	5736
651.131	4488
651.188	4357
651.246	4573
651.303	4280
651.360	5166
651.418	4641
651.475	5151
651.532	3770
651.590	5222
651.647	4584
651.704	4016
651.762	4340
651.819	4968
651.876	4496
651.933	4538
651.990	5238
652.048	2464
652.105	3312
652.162	4050
652.219	3758
652.276	4276
652.333	4722
652.390	2802
652.448	3983
652.505	3734
652.562	3647
652.619	2978
652.676	3897
652.733	3966
652.790	3997
652.847	2302
652.904	3990
652.961	2429
653.017	2869
653.074	3721
653.131	4275
653.188	2671
653.245	3107
653.302	3053
653.359	4097
653.415	2841
653.472	3023
653.529	4429
653.586	2361
653.642	3189
653.699	4078
653.756	3401
653.813	3866
653.869	4272
653.926	2870
653.983	3246
654.039	3552
654.096	2772
654.152	4321
654.209	2381
654.266	3486
654.322	2174
654.379	4067
654.435	3935
654.492	2965
654.548	2667
654.605	2839
654.661	2941
654.717	3627
654.774	3297
654.830	2897
654.887	2513
654.943	3618
655.000	3625
655.056	3454
655.112	3301
655.168	2566
655.225	2863
655.281	4085
655.337	2731
655.394	3050
655.450	3126
655.506	3097
655.562	2454
655.618	3989
655.675	2046
655.731	3440
655.787	2241
655.843	3501
655.899	2185
655.955	3863
656.011	3711
656.067	3317
656.123	3017
656.179	3930
656.235	4719
656.291	2724
656.347	5006
656.403	2452
656.459	2790
656.515	3197
656.571	3128
656.627	3756
656.683	2470
656.739	3525
656.795	2673
656.850	2646
656.906	4080
656.962	4025
657.018	3179
657.074	4670
657.129	6808
657.185	12311
657.241	29531
657.297	12903
657.352	3709
657.408	2898
657.464	3145
657.519	3432
657.575	1793
657.630	2248
657.686	2717
657.742	2562
657.797	2017
657.853	2335
657.908	1916
657.964	2170
658.019	2468
658.075	2487
658.130	2528
658.186	1617
658.241	2572
658.297	1781
658.352	1714
658.407	2577
658.463	1514
658.518	2968
658.573	1793
658.629	1750
658.684	2175
658.739	2598
658.795	650
658.850	2154
658.905	1646
658.960	2456
659.016	1494
659.071	1607
659.126	1391
659.181	1810
659.236	2642
659.291	2394
659.346	1365
659.401	1852
659.457	2034
659.512	1332
659.567	1908
659.622	2410
659.677	1256
659.732	1217
659.787	1941
659.842	977
659.897	1446
659.952	1714
660.007	2021
660.061	2410
660.116	1315
660.171	1821
660.226	1469
660.281	2476
660.336	2250
660.391	2791
660.445	898
660.500	1854
660.555	1442
660.610	2051
660.664	1893
660.719	1198
660.774	1963
660.828	1857
660.883	1267
660.938	2204
660.992	810
661.047	1710
661.101	862
661.156	1334
661.211	1203
661.265	1609
661.320	1582
661.374	1247
661.429	1238
661.483	1732
661.538	850
661.592	1653
661.647	921
661.701	2011
661.755	1370
661.810	1362
661.864	1044
661.919	1127
661.973	2039
662.027	1771
662.081	646
662.136	1180
662.190	1848
662.244	1976
662.299	945
662.353	2765
662.407	672
662.461	1244
662.515	2145
662.569	1511
662.624	1936
662.678	1041
662.732	1268
662.786	1490
662.840	1434
662.894	1676
662.948	1106
663.002	1320
663.056	1406
663.110	1282
663.164	1580
663.218	2170
663.272	1654
663.326	1262
663.380	1252
663.434	1405
663.488	1036
663.542	1768
663.595	1093
663.649	2134
663.703	1687
663.757	1400
663.811	879
663.864	1407
663.918	1426
663.972	1545
664.026	1668
664.079	1611
664.133	1815
664.187	1941
664.240	1603
664.294	1773
664.348	1349
664.401	1613
664.455	1437
664.508	1249
664.562	1145
664.615	1634
664.669	869
664.722	1857
664.776	1711
664.829	1473
664.883	1356
664.936	1354
664.990	2032
665.043	2057
665.097	1141
665.150	1967
665.203	1930
665.257	1170
665.310	1715
665.363	2252
665.417	1837
665.470	2113
665.523	1365
665.576	1635
665.630	1853
665.683	1439
665.736	1437
665.789	1792
665.842	1269
665.895	1671
665.949	1416
666.002	2329
666.055	1572
666.108	2386
666.161	1886
666.214	2388
666.267	1916
666.320	2146
666.373	2020
666.426	2246
666.479	1507
666.532	2357
666.585	2078
666.638	1759
666.691	1216
666.744	2347
666.796	681
666.849	1311
666.902	2955
666.955	1688
667.008	1327
667.060	1157
667.113	925
667.166	2413
667.219	1362
667.271	2443
667.324	2438
667.377	2151
667.430	1765
667.482	1743
667.535	1799
667.587	2011
667.640	1864
667.693	1128
667.745	643
667.798	1587
667.850	1612
667.903	2422
667.955	2763
668.008	1976
668.060	1445
668.113	1464
668.165	1407
668.218	2621
668.270	2426
668.322	1759
668.375	1748
668.427	2575
668.479	1184
668.532	2082
668.584	1447
668.636	1386
668.689	1557
668.741	1659
668.793	1676
668.845	1496
668.898	2087
668.950	2552
669.002	1127
669.054	1946
669.106	777
669.158	2149
669.211	1032
669.263	2020
669.315	1542
669.367	1659
669.419	957
669.471	2237
669.523	1322
669.575	1354
669.627	546
669.679	959
669.731	1499
669.783	1699
669.835	1354
669.886	901
669.938	1713
669.990	1474
670.042	347
670.094	1835
670.146	1694
670.197	2524
670.249	858
670.301	1601
670.353	2037
670.404	2608
670.456	1160
670.508	2852
670.560	4102
670.611	6768
670.663	9578
670.715	25804
670.766	34550
670.818	9036
670.869	1618
670.921	3136
670.972	2708
671.024	2749
671.075	1743
671.127	2141
671.178	1867
671.230	4033
671.281	2841
671.333	3534
671.384	4908
671.436	7416
671.487	11186
671.538	16263
671.590	27094
671.641	47186
671.692	89327
671.744	161959
671.795	96167
671.846	31313
671.897	13919
671.949	7961
672.000	5617
672.051	4309
672.102	3503
672.153	2388
672.204	3150
672.256	2200
672.307	2419
672.358	2533
672.409	1087
672.460	1182
672.511	578
672.562	688
672.613	737
672.664	1118
672.715	1113
672.766	979
672.817	479
672.868	1648
672.919	1028
672.970	1305
673.021	27
673.071	729
673.122	1273
673.173	75
673.224	1199
673.275	488
673.326	330
673.376	958
673.427	460
673.478	880
673.528	1214
673.579	1240
673.630	-26
673.680	1340
673.731	572
673.782	1213
673.832	612
673.883	1025
673.934	98
673.984	786
674.035	1290
674.085	1083
674.136	898
674.186	1352
674.237	1085
674.287	1305
674.338	827
674.388	1416
674.438	1268
674.489	2058
674.539	1137
674.589	1667
674.640	1533
674.690	641
674.740	591
674.791	1611
674.841	1131
674.891	404
674.942	831
674.992	1190
675.042	1104
675.092	553
675.142	496
675.193	1276
675.243	461
675.293	1453
675.343	535
675.393	484
675.443	632
675.493	490
675.543	198
675.593	548
675.643	98
675.693	1266
675.743	252
675.793	861
675.843	-367
675.893	867
675.943	259
675.993	-858
676.043	-583
676.093	408
676.142	-45
676.192	675
676.242	193
676.292	1031
676.341	147
676.391	72
676.441	-510
676.491	262
676.540	-198
676.590	392
676.640	135
676.689	135
676.739	-781
676.789	219
676.838	-569
676.888	30
676.937	-46
676.987	992
677.037	-233
677.086	-242
677.136	79
677.185	672
677.235	270
677.284	661
677.333	-628
677.383	7
677.432	-1323
677.482	226
677.531	384
677.580	220
677.630	105
677.679	177
677.728	562
677.778	28
677.827	-122
677.876	33
677.925	87
677.975	-394
678.024	524
678.073	-114
678.122	-94
678.171	5
678.220	-260
678.269	1578
678.319	1845
678.368	1847
678.417	627
678.466	340
678.515	115
678.564	287
678.613	-670
678.662	30
678.711	230
678.760	442
678.809	-329
678.857	6
678.906	646
678.955	52
679.004	298
679.053	-773
679.102	-60
679.151	436
679.199	-705
679.248	-50
679.297	-459
679.346	-329
679.394	-833
679.443	36
679.492	568
679.540	176
679.589	-523
679.638	-127
679.686	-153
679.735	932
679.784	840
679.832	1841
679.881	64
679.929	389
679.978	-799
680.026	290
680.075	-61
680.123	-180
680.172	-1137
680.220	189
680.268	167
680.317	-783
680.365	-296
680.414	-893
680.462	-334
680.510	18
680.559	-36
680.607	698
680.655	-900
680.703	-138
680.752	-488
680.800	364
680.848	-386
680.896	-419
680.945	-209
680.993	-748
681.041	-993
681.089	251
681.137	-723
681.185	-332
681.233	-270
681.258	-8
681.281	225
681.329	-696
681.377	179
681.380	161
681.425	-450
681.473	151
681.502	-442
681.521	-886
681.569	138
681.617	229
681.624	284
681.665	525
681.713	117
681.745	770
681.761	1059
681.809	-337
681.857	474
681.867	420
681.904	158
681.952	654
681.989	60
682.000	-137
682.048	532
682.096	-808
682.111	-436
682.143	296
682.191	251
682.233	345
682.239	344
682.286	-255
682.334	95
682.354	-51
682.382	-290
682.430	781
682.476	-656
682.477	-702
682.525	440
682.572	116
682.598	259
682.620	363
682.667	538
682.715	1017
682.720	975
682.763	395
682.810	-5
682.841	707
682.857	1076
682.905	617
682.952	963
682.963	1058
683.000	1325
683.047	619
683.085	1690
683.095	1967
683.142	1485
683.190	1900
683.206	1644
683.237	1128
683.284	1074
683.328	126
683.332	30
683.379	1233
683.426	683
683.449	908
683.473	1194
683.521	847
683.568	1532
683.571	1510
683.615	931
683.662	1280
683.693	1075
683.709	921
683.757	776
683.804	2244
683.814	1964
683.851	1041
683.898	1121
683.936	1402
683.945	1461
683.992	1210
684.039	1614
684.057	1589
684.086	1470
684.133	1412
684.179	683
684.180	649
684.227	1361
684.274	1926
684.300	2082
684.321	2252
684.368	1268
684.415	1917
684.422	1879
684.462	1519
684.509	1994
684.543	1530
684.556	1339
684.603	1551
684.649	1396
684.665	1505
684.696	1790
684.743	1564
684.786	2240
684.790	2272
684.837	1462
684.883	1476
684.908	1390
684.930	1431
684.977	2116
685.023	2618
685.029	2626
685.070	2424
685.117	1806
685.150	1697
685.164	1666
685.210	1907
685.257	2756
685.272	2607
685.303	2245
685.350	2534
685.393	1698
685.396	1630
685.443	2697
685.490	2044
685.514	2209
685.536	2325
685.583	1561
685.629	2753
685.636	2609
685.675	1737
685.722	2532
685.757	2413
685.768	2346
685.815	2414
685.861	2785
685.878	2559
685.908	2269
685.954	1913
686.000	2822
686.000	2831
686.047	2450
686.093	3026
686.121	2930
686.139	2875
686.185	3281
686.232	2642
686.242	2681
686.278	2700
686.324	2504
686.363	2725
686.370	2794
686.416	2541
686.463	3258
686.484	3407
686.509	3407
686.555	2689
686.601	2525
686.606	2571
686.647	3185
686.693	2300
686.727	2737
686.739	2886
686.785	3055
686.831	3246
686.848	3201
686.877	3138
686.923	3242
686.969	3208
686.969	3207
687.015	3263
687.061	3698
687.090	3986
687.107	4085
687.153	3420
687.199	3647
687.211	3460
687.245	3002
687.291	2856
687.332	3173
687.336	3223
687.382	3223
687.428	3150
687.453	3510
687.474	3731
687.520	3966
687.565	3477
687.574	3491
687.611	3676
687.657	4056
687.695	3744
687.702	3671
687.748	3895
687.794	4026
687.816	4505
687.839	4911
687.885	4461
687.931	4037
687.937	3945
687.976	3632
688.022	3610
688.058	3951
688.067	3991
688.113	4113
688.158	3854
688.179	3680
688.204	3625
688.249	3429
688.295	4462
688.300	4420
688.340	3987
688.386	4477
688.421	3955
688.431	3847
688.477	4570
688.522	4549
688.542	4397
688.567	4235
688.613	4446
688.658	5046
688.663	5027
688.703	4686
688.749	4664
688.784	4469
688.794	4481
688.839	4702
688.884	4772
688.905	4838
688.930	4819
688.975	4974
689.020	4603
689.026	4597
689.065	4592
689.110	4284
689.146	4462
689.155	4521
689.201	4664
689.246	4623
689.267	4548
689.291	4490
689.336	4462
689.381	4505
689.388	4432
689.426	4143
689.471	4614
689.509	4636
689.516	4647
689.561	4851
689.606	4675
689.630	4793
689.651	4837
689.696	4798
689.741	4708
689.750	4655
689.785	4723
689.830	5263
689.871	5148
689.875	5120
689.920	5011
689.965	4847
689.992	4899
690.010	4915
690.054	4857
690.099	4413
690.112	4285
690.144	4085
690.189	4413
690.233	4211
690.233	4219
690.278	4660
690.323	5153
690.354	5455
690.367	5461
690.412	5056
690.457	5029
690.474	4862
690.501	4788
690.546	4840
690.590	5348
690.595	5283
690.635	4610
690.680	4938
690.716	4636
690.724	4636
690.769	5186
690.813	5430
690.836	5453
690.857	5631
690.902	5925
690.946	6427
690.957	6534
690.991	6532
691.035	6254
691.077	6368
691.080	6376
691.124	6166
691.168	6333
691.198	5615
691.213	5299
691.257	5585
691.301	4890
691.318	5012
691.346	5392
691.390	5441
691.434	5137
691.439	5144
691.478	5242
691.522	5338
691.559	5267
691.567	5311
691.611	5740
691.655	5806
691.680	5988
691.699	6042
691.743	6074
691.787	6214
691.800	6161
691.831	6082
691.875	6154
691.919	5943
691.921	5930
691.964	5904
692.008	5986
692.041	5761
692.052	5753
692.096	5883
692.139	6301
692.162	6180
692.183	5768
692.227	5713
692.271	4882
692.282	4735
692.315	5024
692.359	5474
692.402	6042
692.403	6058
692.447	5955
692.490	6226
692.523	6134
692.534	6077
692.578	5657
692.622	5665
692.643	5682
692.666	5777
692.709	5542
692.753	5800
692.763	5731
692.797	5648
692.840	5735
692.884	5656
692.884	5669
692.928	5813
692.971	5913
693.004	5672
693.015	5627
693.059	5562
693.102	5482
693.124	5451
693.146	5536
693.189	5856
693.233	5668
693.245	5790
693.276	6140
693.320	6350
693.363	6419
693.365	6396
693.407	6161
693.450	6536
693.485	6200
693.493	6128
693.537	6472
693.580	6265
693.605	6312
693.624	6559
693.667	6756
693.710	7299
693.725	7348
693.753	7615
693.797	8436
693.840	9126
693.845	9162
693.883	8677
693.926	8114
693.966	7901
693.970	7877
694.013	7080
694.056	6825
694.086	6118
694.099	6084
694.142	6226
694.185	6249
694.206	6355
694.229	6577
694.272	6558
694.315	7057
694.326	7038
694.358	6885
694.401	7364
694.444	7223
694.446	7207
694.487	7191
694.530	7030
694.566	7019
694.573	7043
694.616	6891
694.659	6925
694.686	6907
694.702	6945
694.745	6805
694.787	6850
694.806	6921
694.830	7189
694.873	7304
694.916	7651
694.926	7667
694.959	7620
695.002	7712
695.044	7601
695.046	7577
695.087	7579
695.130	7688
695.166	7716
695.172	7771
695.215	7975
695.258	8304
695.286	8375
695.301	8382
695.343	8487
695.386	8386
695.406	8385
695.428	8911
695.471	9868
695.514	10998
695.526	11184
695.556	11517
695.599	12449
695.641	12838
695.646	12881
695.684	12381
695.726	11656
695.766	11039
695.769	11052
695.811	10770
695.854	10655
695.886	10459
695.896	10540
695.938	10621
695.981	10684
696.005	10809
696.023	11135
696.065	11821
696.108	12435
696.125	12619
696.150	12776
696.192	13239
696.235	13525
696.245	13585
696.277	13561
696.319	13351
696.361	13168
696.365	13120
696.404	12933
696.446	12872
696.485	12597
696.488	12649
696.530	12938
696.572	13025
696.604	13291
696.614	13249
696.656	12719
696.698	12345
696.724	12002
696.740	12233
696.783	12892
696.825	13438
696.844	13666
696.867	13607
696.909	13534
696.951	13305
696.964	13186
696.992	13331
697.034	13666
697.076	13930
697.083	13930
697.118	14259
697.160	14613
697.202	15008
697.203	14977
697.244	14803
697.286	14787
697.323	14434
697.327	14470
697.369	14722
697.411	14740
697.442	14847
697.453	14873
697.494	14667
697.536	14613
697.562	14480
697.578	14411
697.620	14059
697.661	13854
697.682	13697
697.703	14106
697.744	14785
697.786	15563
697.801	15755
697.828	15765
697.869	15782
697.911	15788
697.921	15755
697.952	15888
697.994	15954
698.035	16036
698.040	16003
698.077	15796
698.118	15490
698.160	15209
698.160	15166
698.201	15558
698.243	15889
698.279	16206
698.284	16311
698.325	16825
698.367	17361
698.399	17722
698.408	17876
698.449	18368
698.491	18878
698.518	19159
698.532	19182
698.573	19097
698.614	19049
698.638	18918
698.656	18929
698.697	18907
698.738	18862
698.757	18790
698.779	18628
698.820	18216
698.862	17829
698.877	17630
698.903	17952
698.944	18403
698.985	18846
698.996	18922
699.026	18938
699.067	18891
699.116	18787
699.235	18783
699.354	18105
699.474	16342
699.593	17738
699.713	17230
699.832	17852
699.951	18352
700.070	17689
700.190	17027
700.309	15852
700.428	15729
700.547	15550
700.667	15277
700.786	15498
700.905	14517
701.024	15332
701.143	15102
701.262	16145
701.381	15934
701.500	15646
701.619	15432
701.738	16098
701.857	16017
701.976	14353
702.095	15119
702.214	15664
702.333	14683
702.452	15289
702.571	16226
702.690	15348
702.809	16465
702.928	15311
703.047	13986
703.165	14884
703.284	13445
703.403	15174
703.522	13871
703.640	13336
703.759	13350
703.878	14135
703.997	13076
704.115	13303
704.234	14561
704.353	13889
704.471	12459
704.590	12686
704.708	12449
704.827	12432
704.946	12364
705.064	12265
705.183	12568
705.301	13188
705.420	11796
705.538	11534
705.656	10924
705.775	10208
705.893	12544
706.012	11551
706.130	10703
706.249	11140
706.367	11238
706.485	10639
706.604	10270
706.722	10438
706.840	11238
706.958	11414
707.077	9498
707.195	10920
707.313	10034
707.431	9648
707.549	9794
707.668	8763
707.786	10954
707.904	9135
708.022	10077
708.140	9735
708.258	9032
708.376	10493
708.494	9414
708.612	11874
708.730	10717
708.848	10643
708.966	10469
709.084	10055
709.202	9888
709.320	8467
709.438	8923
709.556	8393
709.674	8072
709.791	9141
709.909	8228
710.027	8143
710.145	9514
710.263	9048
710.380	7718
710.498	9158
710.616	8432
710.733	8108
710.851	8277
710.969	8121
711.086	7271
711.204	9271
711.322	8754
711.439	7494
711.557	7425
711.674	8297
711.792	7993
711.909	7311
712.027	7822
712.144	7528
712.262	7615
712.379	6857
712.497	6883
712.614	7386
712.732	6241
712.849	7133
712.966	7457
713.084	7647
713.201	7204
713.318	7537
713.436	7603
713.553	7898
713.670	8911
713.787	8723
713.905	7991
714.022	8582
714.139	8854
714.256	13214
714.373	19767
714.490	42223
714.608	130839
714.725	512596
714.842	350594
714.959	33822
715.076	14175
715.193	11442
715.310	9862
715.427	7637
715.544	8159
715.661	7607
715.778	7011
715.895	7387
716.011	7324
716.128	7217
716.245	7200
716.362	6641
716.479	5099
716.596	6644
716.713	6199
716.829	5790
716.946	5755
717.063	5406
717.180	5327
717.296	5458
717.413	5747
717.530	5104
717.646	5067
717.763	5625
717.880	5004
717.996	4873
718.113	5227
718.229	5042
718.346	4794
718.462	4327
718.579	6367
718.695	5591
718.812	5461
718.928	5400
719.045	5080
719.161	5309
719.277	4848
719.394	5828
719.510	6169
719.626	7340
719.743	9219
719.859	18590
719.975	44939
720.092	194766
720.208	317271
720.324	30183
720.440	9070
720.557	6225
720.673	6614
720.789	5945
720.905	5315
721.021	5195
721.137	4511
721.253	4244
721.369	5028
721.486	5396
721.602	3953
721.718	4171
721.834	4228
721.950	4935
722.066	4082
722.181	4703
722.297	3585
722.413	4410
722.529	4079
722.645	4050
722.761	3897
722.877	4129
722.993	5212
723.108	7287
723.224	5671
723.340	4498
723.456	3874
723.571	4216
723.687	4068
723.803	3990
723.918	3997
724.034	3468
724.150	3511
724.265	2830
724.381	3788
724.497	3333
724.612	3037
724.728	4214
724.843	3460
724.959	3493
725.074	4098
725.190	3250
725.305	3543
725.421	4183
725.536	3574
725.651	4145
725.767	4116
725.882	3975
725.997	3935
726.113	3942
726.228	3556
726.343	3531
726.459	3231
726.574	3571
726.689	3571
726.804	3554
726.920	4486
727.035	3249
727.150	3669
727.265	2863
727.380	3413
727.495	4161
727.610	3498
727.725	2909
727.841	3888
727.956	3410
728.071	3574
728.186	3757
728.301	2303
728.416	2718
728.531	3448
728.645	2207
728.760	3487
728.875	3279
728.990	3425
729.105	2508
729.220	3026
729.335	3940
729.449	3149
729.564	2745
729.679	3273
729.794	3436
729.908	2606
730.023	3325
730.138	3793
730.253	4053
730.367	3543
730.482	3303
730.596	4199
730.711	4492
730.826	6139
730.940	5211
731.055	4577
731.169	5883
731.284	4823
731.398	5482
731.513	5936
731.627	6424
731.742	8847
731.856	9488
731.970	10293
732.085	13338
732.199	20141
732.313	41362
732.428	119097
732.542	335721
732.656	142949
732.771	27724
732.885	15580
732.999	14035
733.113	13792
733.227	14256
733.342	13096
733.456	12153
733.570	12623
733.684	11087
733.798	11110
733.912	11290
734.026	10813
734.140	11262
734.254	10417
734.368	10111
734.482	9995
734.596	10382
734.710	9993
734.824	9684
734.938	9111
735.052	10307
735.166	9641
735.280	10158
735.393	9591
735.507	9663
735.621	8782
735.735	9009
735.849	8801
735.962	8602
736.076	9431
736.190	8934
736.303	9493
736.417	10016
736.531	7852
736.644	8731
736.758	7927
736.872	7319
736.985	8883
737.099	7786
737.212	6534
737.326	7544
737.439	7955
737.553	7775
737.666	7347
737.780	7676
737.893	7706
738.007	8193
738.120	8082
738.233	7717
738.347	6850
738.460	6535
738.573	8774
738.687	7748
738.800	6803
738.913	7430
739.026	7426
739.140	6507
739.253	6639
739.366	6758
739.479	7278
739.592	6468
739.705	6503
739.818	8524
739.932	5447
740.045	7058
740.158	5963
740.271	6930
740.384	6425
740.497	6119
740.610	6726
740.723	6076
740.836	6223
740.949	6808
741.062	6645
741.174	6145
741.287	7026
741.400	5787
741.513	5166
741.626	6767
741.739	5499
741.851	5823
741.964	7127
742.077	6282
742.189	5873
742.302	6655
742.415	5581
742.527	6638
742.640	5577
742.753	5784
742.865	5773
742.978	5507
743.090	4670
743.203	5592
743.316	4822
743.428	5075
743.541	6033
743.653	3849
743.766	5042
743.878	4741
743.990	4467
744.103	5758
744.215	5396
744.327	4802
744.440	6644
744.552	5556
744.664	4814
744.777	5853
744.889	4093
745.001	5476
745.113	5294
745.226	5000
745.338	4671
745.450	5359
745.562	5058
745.674	4448
745.786	5391
745.898	4394
746.010	5073
746.122	4408
746.234	4289
746.347	4903
746.459	4524
746.570	4129
746.682	6201
746.794	6736
746.906	3550
747.018	4347
747.130	4494
747.242	3998
747.354	4191
747.466	5487
747.577	3593
747.689	5334
747.801	5093
747.913	3704
748.024	4178
748.136	4002
748.248	3678
748.359	3881
748.471	5147
748.583	2778
748.694	2907
748.806	4047
748.918	3848
749.029	3791
749.141	4164
749.252	4379
749.364	3387
749.475	3379
749.587	3428
749.698	3647
749.809	3896
749.921	3312
750.032	3339
750.144	2566
750.255	3074
750.366	3078
750.478	2828
750.589	3434
750.700	2542
750.811	3802
750.923	2897
751.034	2709
751.145	4314
751.256	3083
751.367	3228
751.479	3387
751.590	3243
751.701	3478
751.812	2852
751.923	2832
752.034	4067
752.145	3757
752.256	3895
752.367	2449
752.478	3062
752.589	3981
752.700	3604
752.811	1986
752.922	2268
753.032	3651
753.143	2804
753.254	2673
753.365	4665
753.476	4188
753.586	3278
753.697	3251
753.808	3447
753.919	2338
754.029	2598
754.140	2695
754.251	2511
754.361	3132
754.472	3421
754.582	2218
754.693	2733
754.804	3801
754.914	3405
755.025	2067
755.135	3143
755.246	3105
755.356	2577
755.466	2188
755.577	2432
755.687	3610
755.798	2742
755.908	3511
756.018	2797
756.129	2495
756.239	2795
756.349	3021
756.460	3095
756.570	3155
756.680	2299
756.790	2917
756.900	2662
757.011	2830
757.121	2039
757.231	2751
757.341	2517
757.451	2215
757.561	1856
757.671	2743
757.781	2372
757.891	3054
758.001	1605
758.111	3142
758.221	3142
758.331	2410
758.441	3325
758.551	2520
758.661	3402
758.771	3837
758.880	3192
758.990	2471
759.100	3096
759.210	2707
759.320	3193
759.429	3804
759.539	3800
759.649	4156
759.758	5475
759.868	5769
759.978	4289
760.087	5515
760.197	5353
760.307	5471
760.416	4294
760.526	3155
760.635	5140
760.745	6064
760.854	5137
760.964	6467
761.073	6118
761.182	5683
761.292	4726
761.401	4196
761.511	3281
761.620	2626
761.729	2540
761.839	1779
761.948	2579
762.057	1998
762.166	2957
762.276	1760
762.385	4381
762.494	2511
762.603	2504
762.712	3045
762.822	2463
762.931	3479
763.040	1923
763.149	2131
763.258	2186
763.367	2746
763.476	2410
763.585	2249
763.694	1523
763.803	2413
763.912	2272
764.021	2311
764.130	1860
764.238	2389
764.347	2407
764.456	2523
764.565	2772
764.674	1504
764.783	1697
764.891	1371
765.000	3332
765.109	2011
765.217	2354
765.326	2730
765.435	4130
765.543	4455
765.652	3841
765.761	4996
765.869	5681
765.978	9462
766.086	16525
766.195	32150
766.303	87919
766.412	209027
766.520	138157
766.629	41674
766.737	17480
766.846	10126
766.954	6505
767.062	6888
767.171	4514
767.279	4766
767.387	3350
767.496	3157
767.604	2995
767.712	3059
767.820	2537
767.928	2930
768.037	1509
768.145	1661
768.253	2470
768.361	1284
768.469	2651
768.577	1996
768.685	2711
768.793	2833
768.901	2377
769.009	3442
769.117	3577
769.225	3358
769.333	5267
769.441	7171
769.549	12704
769.657	30968
769.765	102470
769.873	155522
769.981	50439
770.088	13188
770.196	8578
770.304	5594
770.412	5100
770.519	4035
770.627	4094
770.735	3370
770.842	3524
770.950	3599
771.058	3699
771.165	5019
771.273	5093
771.380	5238
771.488	7552
771.595	7152
771.703	6893
771.810	6013
771.918	6876
772.025	7674
772.133	9135
772.240	6667
772.348	10361
772.455	9715
772.562	8196
772.670	7848
772.777	8806
772.884	8030
772.991	7928
773.099	8289
773.206	7225
773.313	7762
773.420	7961
773.528	7536
773.635	6628
773.742	8134
773.849	7205
773.956	6760
774.063	7325
774.170	6616
774.277	7584
774.384	5934
774.491	6340
774.598	6532
774.705	7311
774.812	6251
774.919	7161
775.026	6302
775.133	6609
775.239	6539
775.346	5714
775.453	6944
775.560	6227
775.667	6601
775.773	6702
775.880	6664
775.987	6164
776.093	5830
776.200	7403
776.307	4479
776.413	6077
776.520	5970
776.627	5730
776.733	5272
776.840	4994
776.946	8967
777.053	6797
777.159	7882
777.266	6381
777.372	7726
777.478	7406
777.585	6319
777.691	4588
777.798	6216
777.904	5656
778.010	5690
778.117	5950
778.223	5092
778.329	4689
778.435	4015
778.542	5773
778.648	4548
778.754	4211
778.860	5800
778.966	4773
779.072	3748
779.178	4520
779.284	4070
779.391	4609
779.497	3837
779.603	7348
779.708	3386
779.815	4834
779.920	6823
780.026	5490
780.132	5109
780.238	4649
780.344	4311
780.450	6130
780.556	3337
780.661	4831
780.767	4168
780.873	3733
780.979	3684
781.085	4728
781.190	3744
781.296	2915
781.402	4136
781.507	3728
781.613	2806
781.719	3319
781.824	4270
781.930	4294
782.035	4180
782.141	4395
782.246	3226
782.352	3498
782.457	3928
782.563	3784
782.668	4050
782.773	3275
782.879	2855
782.984	3830
783.090	3619
783.195	3348
783.300	3682
783.405	2930
783.511	2614
783.616	3095
783.721	4107
783.826	2982
783.932	3754
784.037	2703
784.142	3691
784.247	2756
784.352	3756
784.457	2595
784.562	3299
784.667	3012
784.772	2420
784.877	2428
784.982	3837
785.087	3325
785.192	3130
785.297	2896
785.402	2955
785.507	3235
785.611	2663
785.716	1655
785.821	2817
785.926	2847
786.031	2890
786.135	3746
786.240	3282
786.345	1524
786.450	1932
786.554	2690
786.659	2734
786.763	1762
786.868	2848
786.973	4068
787.077	2620
787.182	2009
787.286	3262
787.391	3269
787.495	1311
787.600	2031
787.704	1353
787.809	2687
787.913	2660
788.017	2684
788.122	2773
788.226	2494
788.330	878
788.435	2285
788.539	2202
788.643	1790
788.747	1805
788.852	2710
788.956	2233
789.060	3102
789.164	2355
789.268	1742
789.372	2587
789.476	2789
789.580	969
789.684	1121
789.788	2733
789.892	2531
789.996	1907
790.100	812
790.204	1796
790.308	2441
790.412	1255
790.516	1314
790.620	1709
790.724	2828
790.828	1597
790.931	-228
791.035	3397
791.139	674
791.242	1240
791.346	2817
791.450	1538
791.554	1155
791.657	154
791.761	2366
791.864	2168
791.968	2776
792.072	1753
792.175	1068
792.279	951
792.382	2203
792.486	1064
792.589	2318
792.693	1772
792.796	906
792.899	2661
793.003	2077
793.106	598
793.209	1341
793.313	2264
793.416	-245
793.519	2349
793.623	3366
793.726	1227
793.829	1391
793.932	1334
794.035	270
794.138	2416
794.242	2668
794.345	1024
794.448	978
794.551	296
794.654	3642
794.757	3049
794.860	957
794.963	1376
795.066	660
795.169	2574
795.272	1047
795.375	2023
795.477	110
795.580	2048
795.683	269
795.786	1909
795.889	538
795.991	1815
796.094	2214
796.197	201
796.300	2853
796.402	1732
796.505	1038
796.608	1087
796.710	2000
796.813	1869
796.915	1472
797.018	1900
797.120	2183
797.223	835
797.326	1939
797.428	210
797.530	1571
797.633	958
797.735	2162
797.838	800
797.940	2656
798.042	360
798.145	966
798.247	1515
798.349	693
798.452	1924
798.554	1622
798.656	233
798.758	3201
798.860	1171
798.962	1358
799.065	538
799.167	1147
799.269	1913
799.371	2198
799.473	2640
799.575	1143
799.677	766
799.779	2874
799.881	-210
799.983	2170
800.085	1596
800.187	1392
800.289	325
800.390	532
800.492	2026
800.594	2223
800.696	205
800.798	879
800.899	1077
801.001	537
801.103	1702
801.205	737
801.306	900
801.408	88
801.509	386
801.611	1468
801.713	1158
801.814	316
801.916	51
802.017	312
802.119	-28
802.220	852
802.322	-349
802.423	2020
802.525	-510
802.626	364
802.727	371
802.829	2012
802.930	-1908
803.031	1945
803.133	833
803.234	630
803.335	1392
803.436	-484
803.538	736
803.639	-164
803.740	1180
803.841	-92
803.942	1713
804.043	1826
804.144	0
804.245	764
804.346	121
804.447	-195
804.548	432
804.649	1192
804.750	-383
804.851	-231
804.952	38
805.053	620
805.154	235
805.255	1410
805.355	410
805.456	292
805.557	302
805.658	669
805.758	683
805.859	332
805.960	687
806.061	226
806.161	-292
806.262	-58
806.362	227
806.463	275
806.564	1126
806.664	199
806.765	849
806.865	491
806.966	-155
807.066	-197
807.166	1395
807.267	1361
807.367	-729
807.468	1448
807.568	-1427
807.668	1529
807.769	1477
807.869	199
807.969	-140
808.069	1330
808.170	603
808.270	571
808.370	547
808.470	1431
808.570	-976
808.670	221
808.770	241
808.870	-68
808.970	747
809.070	-7
809.170	311
809.271	1184
809.370	697
809.470	1204
809.570	263
809.670	371
809.770	1103
809.870	474
809.970	720
810.070	262
810.169	574
810.269	-1099
810.369	1485
810.469	357
810.568	-132
810.668	402
810.768	156
810.867	700
810.967	455
811.066	550
811.166	297
811.265	1572
811.365	-128
811.464	-41
811.564	1147
811.663	273
811.763	-760
811.862	1522
811.962	106
812.061	-37
812.160	-498
812.260	7
812.359	103
812.458	105
812.557	1582
812.657	-647
812.756	728
812.855	79
812.954	-130
813.053	1378
813.153	330
813.252	-1092
813.351	1266
813.450	-7
813.549	617
813.648	72
813.747	-590
813.846	1163
813.945	-452
814.044	787
814.143	56
814.242	1247
814.341	-287
814.439	1263
814.538	2045
814.637	1559
814.736	478
814.835	1296
814.933	1072
815.032	2327
815.131	2358
815.229	5192
815.328	7614
815.427	3768
815.525	4461
815.624	4251
815.722	3454
815.821	4380
815.919	4222
816.018	4080
816.116	4951
816.215	3685
816.313	4436
816.412	5727
816.510	5853
816.609	6735
816.707	6837
816.805	5852
816.904	5988
817.002	5779
817.100	6726
817.198	6347
817.296	4367
817.395	5908
817.493	5840
817.591	4802
817.689	5056
817.787	4629
817.885	4687
817.983	4871
818.081	5546
818.179	6156
818.277	9454
818.375	6897
818.473	5461
818.571	4746
818.669	5563
818.767	6059
818.865	4911
818.963	4565
819.061	4632
819.158	4142
819.256	7813
819.354	7107
819.452	12995
819.549	7042
819.647	6082
819.745	5271
819.842	5207
819.940	5059
820.038	4046
820.135	3367
820.233	5508
820.330	3801
820.428	3672
820.525	5005
820.623	3498
820.720	3666
820.818	4215
820.915	3940
821.012	4246
821.110	3466
821.207	5042
821.304	3531
821.402	4569
821.499	5245
821.596	3386
821.693	3745
821.791	4396
821.888	3648
821.985	4472
822.082	2499
822.179	4742
822.276	3648
822.373	3456
822.470	2849
822.567	3332
822.664	3099
822.761	4362
822.858	3444
822.955	3599
823.052	2282
823.149	2827
823.246	3413
823.343	1961
823.440	3801
823.536	4084
823.633	3233
823.730	2428
823.827	3270
823.923	2738
824.020	3504
824.117	3630
824.213	3461
824.310	2633
824.407	3114
824.503	3120
824.600	2739
824.696	2261
824.793	4407
824.889	2142
824.986	2260
825.082	2409
825.179	3018
825.275	3792
825.371	3290
825.468	2610
825.564	1788
825.660	3258
825.757	4626
825.853	3348
825.949	1404
826.045	2734
826.142	3226
826.238	2469
826.334	3487
826.430	2138
826.526	1928
826.622	1374
826.718	3180
826.814	3342
826.910	2385
827.006	498
827.102	1785
827.198	2623
827.294	3160
827.390	2597
827.486	2145
827.582	1371
827.678	680
827.774	3725
827.869	1018
827.965	3157
828.061	978
828.157	2715
828.252	2628
828.348	1388
828.444	1879
828.539	937
828.635	2115
828.731	2360
828.826	1282
828.922	2675
829.017	2501
829.113	3395
829.208	1461
829.304	2125
829.399	4120
829.495	2539
829.590	2616
829.685	1612
829.781	2463
829.876	2041
829.971	1379
830.066	744
830.162	2251
830.257	2774
830.352	1619
830.447	1329
830.543	2206
830.638	1168
830.733	2355
830.828	1620
830.923	2655
831.018	2291
831.113	2077
831.208	616
831.303	96
831.398	633
831.493	1821
831.588	3033
831.683	703
831.778	1479
831.873	1306
831.967	3028
832.062	2511
832.157	1030
832.252	1434
832.346	1158
832.441	1993
832.536	1503
832.631	2050
832.725	1142
832.820	1048
832.914	1027
833.009	983
833.104	1023
833.198	889
833.293	1040
833.387	2275
833.482	1947
833.576	1421
833.670	1556
833.765	1170
833.859	2607
833.954	2209
834.048	1890
834.142	1534
834.237	283
834.331	1268
834.425	1176
834.519	833
834.613	1738
834.708	958
834.802	1186
834.896	1737
834.990	1656
835.084	535
835.178	582
835.272	952
835.366	1326
835.460	2048
835.554	833
835.648	1165
835.742	136
835.836	1291
835.930	103
836.024	1253
836.117	1667
836.211	257
836.305	85
836.399	1264
836.493	553
836.586	1788
836.680	767
836.774	38
836.867	1312
836.961	563
837.055	-417
837.148	1243
837.242	756
837.335	1170
837.429	962
837.522	-658
837.616	594
837.709	815
837.803	1065
837.896	2186
837.989	501
838.083	811
838.176	-143
838.269	-604
838.363	765
838.456	351
838.549	1725
838.642	397
838.735	902
838.829	1381
838.922	373
839.015	376
839.108	-290
839.201	815
839.294	1082
839.387	1005
839.480	-318
839.573	-364
839.666	17
839.759	489
839.852	274
839.945	664
840.038	869
840.131	-224
840.223	326
840.316	737
840.409	141
840.502	214
840.594	1722
840.687	-218
840.780	-146
840.873	-308
840.965	-505
841.058	938
841.150	624
841.243	-258
841.336	553
841.428	769
841.521	1430
841.613	-80
841.706	659
841.798	-199
841.890	725
841.983	-11
842.075	1213
842.167	-502
842.260	299
842.352	1546
842.444	846
842.537	344
842.629	214
842.721	171
842.813	383
842.905	-1498
842.997	1048
843.090	700
843.182	-273
843.274	-1971
843.366	-36
843.458	477
843.550	837
843.642	-299
843.734	385
843.826	-527
843.918	-108
844.009	328
844.101	3
844.193	745
844.285	13
844.377	591
844.469	1193
844.560	177
844.652	37
844.744	959
844.835	-58
844.927	252
845.019	252
845.110	143
845.202	-142
845.293	1243
845.385	-211
845.476	-394
845.568	265
845.659	-347
845.751	321
845.842	-42
845.934	-138
846.025	389
846.116	-525
846.208	-21
846.299	-470
846.390	140
846.482	-563
846.573	524
846.664	-245
846.755	426
846.846	444
846.937	-967
847.029	-372
847.120	-197
847.211	179
847.302	1405
847.393	-233
847.484	-250
847.575	-279
847.666	-1196
847.757	-846
847.847	291
847.938	910
848.029	-134
848.120	-676
848.211	105
848.302	-212
848.392	451
848.483	-213
848.574	440
848.664	84
848.755	-397
848.846	-185
848.936	-472
849.027	-157
849.118	181
849.208	715
849.299	2183
849.389	5143
849.480	10395
849.570	21087
849.661	42015
849.751	57417
849.841	16584
849.932	2661
850.022	226
850.112	584
850.203	611
850.293	79
850.383	-305
850.474	73
850.564	118
850.654	70
850.744	-332
850.834	180
850.924	86
851.014	583
851.104	682
851.194	-202
851.284	-220
851.374	195
851.464	-36
851.554	-429
851.644	-300
851.734	399
851.824	279
851.914	-663
852.004	-363
852.094	-807
852.183	-544
852.273	390
852.363	469
852.452	579
852.542	-167
852.632	-74
852.721	-247
852.811	319
852.901	774
852.990	270
853.080	336
853.169	443
853.259	715
853.348	1074
853.438	3116
853.527	3938
853.617	5491
853.706	12214
853.795	22350
853.885	46360
853.974	78896
854.063	143201
854.152	163859
854.242	60352
854.331	16952
854.420	7916
854.509	5601
854.598	3452
854.687	2912
854.777	2465
854.866	656
854.955	1068
855.044	865
855.133	742
855.222	-273
855.311	-135
855.400	261
855.488	-270
855.577	-371
855.666	-137
855.755	284
855.844	8
855.933	-52
856.021	434
856.110	255
856.199	-895
856.288	35
856.376	-130
856.465	-521
856.554	-203
856.642	-428
856.731	-79
856.819	602
856.908	-229
856.996	-160
857.085	-407
857.173	121
857.262	-365
857.350	-923
857.438	-18
857.527	-714
857.615	-11
857.703	564
857.792	-1244
857.880	-465
857.968	-429
858.056	-591
858.145	-464
858.233	-579
858.321	-226
858.409	324
858.497	309
858.585	-196
858.673	-41
858.761	-1115
858.849	78
858.937	147
859.025	-28
859.113	168
859.201	-96
859.289	370
859.377	266
859.465	221
859.552	-337
859.640	-494
859.728	-239
859.816	22
859.903	226
859.991	-539
860.079	-168
860.166	112
860.254	-720
860.342	146
860.429	-901
860.517	-836
860.604	-386
860.692	-728
860.779	-231
860.867	-82
860.954	-656
861.042	-612
861.129	-482
861.216	-178
861.304	-951
861.391	291
861.478	-1184
861.565	20
861.653	835
861.740	93
861.827	-425
861.914	-110
862.001	-307
862.089	84
862.176	362
862.263	-244
862.350	124
862.437	-1044
862.524	-677
862.611	-45
862.698	284
862.785	196
862.871	503
862.958	639
863.045	-753
863.132	-328
863.219	-560
863.306	-165
863.392	151
863.479	-465
863.566	267
863.652	-907
863.739	70
863.826	191
863.912	479
863.999	-281
864.086	285
864.172	783
864.259	531
864.345	1148
864.432	1302
864.518	577
864.604	683
864.691	-61
864.777	1003
864.863	1493
864.950	3430
865.036	4245
865.122	7108
865.209	7598
865.295	6760
865.381	6891
865.467	7235
865.553	8292
865.639	9984
865.726	16230
865.812	28691
865.898	47917
865.984	68485
866.070	120078
866.156	97131
866.242	31119
866.328	12910
866.414	8106
866.499	6998
866.585	6687
866.671	6005
866.757	6448
866.843	4732
866.928	4688
867.014	4548
867.100	4578
867.186	4800
867.271	4323
867.357	4472
867.442	3366
867.528	4660
867.614	4827
867.699	4350
867.785	4741
867.870	3950
867.956	4185
868.041	4361
868.127	3994
868.212	3391
868.297	4511
868.383	3652
868.468	4093
868.553	4596
868.639	3446
868.724	3632
868.809	4189
868.894	3561
868.979	2980
869.065	3407
869.150	3377
869.235	3403
869.320	3610
869.405	3380
869.490	4859
869.575	2897
869.660	1953
869.745	4058
869.830	3635
869.915	2059
870.000	2948
870.085	3353
870.169	5274
870.254	3873
870.339	2986
870.424	2410
870.509	3536
870.593	4440
870.678	3847
870.763	3338
870.847	2728
870.932	3585
871.016	2778
871.101	2014
871.186	3861
871.270	3310
871.355	1838
871.439	3880
871.523	4023
871.608	1822
871.692	2834
871.777	4065
871.861	3528
871.945	2869
872.030	2843
872.114	2852
872.198	1917
872.282	1727
872.367	1561
872.451	1941
872.535	2953
872.619	2965
872.703	2200
872.787	2999
872.871	2442
872.955	1667
873.039	1278
873.123	2645
873.207	2618
873.291	916
873.375	2641
873.459	2705
873.543	2696
873.627	2289
873.711	2244
873.794	2650
873.878	2150
873.962	595
874.045	1944
874.129	1653
874.137	1678
874.213	1932
874.245	1869
874.296	1767
874.352	1366
874.380	1172
874.460	2332
874.464	2377
874.547	1462
874.568	1689
874.631	2399
874.676	2627
874.714	2795
874.784	2713
874.798	2698
874.881	2594
874.892	2415
874.965	1237
874.999	1822
875.048	2593
875.107	2398
875.131	2311
875.215	697
875.215	698
875.298	1088
875.323	1306
875.381	1740
875.430	2668
875.465	3356
875.538	1721
875.548	1478
875.631	502
875.646	514
875.714	716
875.753	1403
875.798	2186
875.861	2246
875.881	2242
875.964	1549
875.968	1543
876.047	1474
876.076	1576
876.130	1878
876.183	2254
876.213	2382
876.291	2217
876.296	2213
876.379	1399
876.398	1391
876.462	1207
876.506	1044
876.545	1008
876.613	1458
876.628	1555
876.711	1805
876.721	1862
876.794	2271
876.828	2067
876.877	1653
876.935	487
876.960	76
877.043	1628
877.043	1630
877.125	2134
877.150	2078
877.208	1889
877.258	1893
877.291	1839
877.365	1434
877.374	1404
877.456	1223
877.472	1158
877.539	1012
877.579	1541
877.622	2029
877.687	1837
877.704	1781
877.787	1921
877.794	1880
877.869	1486
877.901	1556
877.952	1434
878.008	1072
878.034	1002
878.115	1223
878.117	1233
878.199	1485
878.222	1581
878.282	1773
878.329	2180
878.364	2367
878.437	1937
878.447	1877
878.529	1071
878.544	1100
878.611	1104
878.651	937
878.694	1233
878.758	2263
878.776	2392
878.858	2173
878.865	2107
878.941	1221
878.972	1183
879.023	1250
879.078	1109
879.105	1249
879.185	2318
879.187	2330
879.269	1864
879.292	1906
879.351	1997
879.399	1600
879.433	1318
879.506	1444
879.516	1495
879.598	1072
879.613	1131
879.680	1123
879.720	1288
879.762	1660
879.827	1722
879.844	1664
879.926	1969
879.933	1988
880.007	2567
880.040	2467
880.089	2155
880.147	3253
880.171	4015
880.253	6443
880.254	6450
880.335	7307
880.360	8110
880.417	12138
880.467	17728
880.499	21109
880.574	21761
880.580	21017
880.662	8320
880.680	6205
880.744	2552
880.787	1651
880.825	1878
880.893	1911
880.907	1840
880.989	1375
881.000	1400
881.070	2474
881.106	2736
881.152	2379
881.213	1671
881.233	1670
881.315	1753
881.319	1784
881.396	1851
881.426	1662
881.478	1839
881.532	2638
881.559	2839
881.639	2125
881.641	2101
881.722	1625
881.745	1469
881.803	1791
881.852	1940
881.885	1812
881.958	1809
881.966	1847
882.047	2067
882.064	1931
882.129	1167
882.171	1215
882.210	1215
882.277	832
882.291	845
882.372	1857
882.383	1803
882.454	2165
882.489	2724
882.535	2590
882.596	2336
882.616	2364
882.697	1955
882.702	1935
882.778	1907
882.808	1894
882.859	1375
882.914	1000
882.940	1224
883.020	1812
883.021	1818
883.102	1952
883.127	2119
883.183	3092
883.233	3283
883.264	2568
883.339	1168
883.345	1139
883.426	623
883.445	603
883.507	766
883.551	944
883.587	1620
883.657	2753
883.668	2715
883.749	2192
883.763	2069
883.830	1507
883.869	1305
883.910	1332
883.975	1171
883.991	1300
884.072	2404
884.081	2503
884.152	2661
884.187	2788
884.233	3437
884.292	3592
884.314	3016
884.394	1035
884.398	960
884.475	1102
884.504	1040
884.555	1150
884.610	1218
884.636	1513
884.716	2783
884.716	2794
884.797	3229
884.821	3250
884.877	2995
884.927	2790
884.958	2470
885.033	1572
885.038	1566
885.118	1903
885.139	1878
885.199	1586
885.244	1518
885.279	1983
885.350	2756
885.359	2808
885.439	3171
885.456	3165
885.520	2534
885.561	2319
885.600	2029
885.667	1488
885.680	1586
885.760	2216
885.773	2268
885.840	1376
885.878	1043
885.920	1510
885.984	2051
886.000	2051
886.080	1899
886.089	1904
886.160	2504
886.195	2658
886.240	2374
886.300	2141
886.320	2087
886.400	1719
886.406	1682
886.480	1210
886.511	1123
886.560	1633
886.616	1902
886.640	1756
886.720	1680
886.722	1667
886.800	2135
886.827	2322
886.879	2432
886.932	2459
886.959	2849
887.038	3798
887.039	3787
887.119	1906
887.143	1346
887.198	1993
887.248	2667
887.278	2538
887.354	1878
887.358	1893
887.437	2167
887.459	2273
887.517	2530
887.564	2594
887.596	2256
887.669	1513
887.676	1464
887.755	965
887.774	760
887.835	1541
887.880	2361
887.914	2214
887.985	1629
887.994	1758
888.073	2944
888.090	3178
888.153	3497
888.195	3667
888.232	3128
888.300	2142
888.311	2065
888.391	1438
888.405	1327
888.470	1729
888.510	1937
888.549	1668
888.615	1338
888.628	1579
888.708	2842
888.720	3026
888.787	2277
888.825	1898
888.866	1960
888.930	1967
888.945	1909
889.024	1617
889.035	1571
889.103	2647
889.140	3214
889.182	2738
889.245	1999
889.261	2235
889.340	3339
889.349	3456
889.419	2215
889.454	1581
889.498	1916
889.559	2389
889.577	2471
889.656	2789
889.664	2815
889.735	2667
889.768	2588
889.814	2452
889.873	2252
889.978	2868
890.083	2473
890.187	3339
890.292	3412
890.397	1546
890.501	1891
890.606	2132
890.710	2249
890.815	3702
890.919	2219
891.024	2997
891.128	2287
891.233	3194
891.337	2543
891.442	3160
891.546	1695
891.650	1824
891.755	1400
891.859	3632
891.963	3261
892.068	2768
892.172	1755
892.276	2037
892.380	1633
892.484	3255
892.589	3769
892.693	3673
892.797	581
892.901	1900
893.005	1342
893.109	3031
893.213	2974
893.317	2014
893.421	1138
893.525	1881
893.629	1527
893.733	2549
893.837	1672
893.941	2291
894.045	907
894.148	809
894.252	1344
894.356	3076
894.460	3044
894.564	2106
894.667	1720
894.771	1568
894.875	1101
894.978	1632
895.082	1935
895.186	2767
895.289	2430
895.393	1236
895.496	2115
895.600	1050
895.703	724
895.807	1649
895.910	1272
896.014	2097
896.117	448
896.221	2432
896.324	2435
896.427	1965
896.531	1452
896.634	1451
896.737	2232
896.840	2542
896.944	2097
897.047	3262
897.150	1758
897.253	1420
897.356	1156
897.460	1114
897.563	641
897.666	3023
897.769	2089
897.872	1470
897.975	1803
898.078	1630
898.181	1845
898.284	1163
898.387	2482
898.490	2198
898.593	781
898.695	1391
898.798	819
898.901	1196
899.004	1748
899.107	2004
899.209	1301
899.312	2768
899.415	729
899.518	1031
899.620	1135
899.723	1158
899.826	942
899.928	1809
900.031	1896
900.133	2989
900.236	757
900.338	1055
900.441	1692
900.543	1708
900.646	2545
900.748	2559
900.851	2357
900.953	1447
901.055	1464
901.158	1199
901.260	598
901.362	1903
901.465	774
901.567	1330
901.669	1988
901.771	2102
901.873	1322
901.976	1515
902.078	1198
902.180	1064
902.282	1099
902.384	1747
902.486	2677
902.588	2531
902.690	914
902.792	1799
902.894	1799
902.996	2419
903.098	1516
903.200	2034
903.302	1426
903.404	1786
903.505	182
903.607	1777
903.709	2706
903.811	2710
903.913	870
904.014	1732
904.116	-17
904.218	773
904.319	1465
904.421	3642
904.523	1847
904.624	1617
904.726	858
904.827	1824
904.929	1200
905.030	1160
905.132	2867
905.233	2457
905.335	1140
905.436	1657
905.537	448
905.639	1192
905.740	851
905.841	1809
905.943	1937
906.044	740
906.145	1178
906.247	668
906.348	1170
906.449	1573
906.550	1630
906.651	1487
906.752	401
906.854	1058
906.955	633
907.056	1387
907.157	2334
907.258	2130
907.359	692
907.460	1483
907.561	979
907.662	1008
907.762	860
907.863	1810
907.964	1211
908.065	1797
908.166	902
908.267	1669
908.367	1390
908.468	245
908.569	907
908.670	1591
908.770	1381
908.871	1619
908.971	1631
909.072	1552
909.173	1017
909.273	1484
909.374	1477
909.474	1401
909.575	1212
909.675	795
909.776	2126
909.876	2014
909.977	270
910.077	1361
910.177	1234
910.278	1897
910.378	1039
910.478	1490
910.579	1368
910.679	2161
910.779	1367
910.879	1919
910.980	977
911.080	2418
911.180	945
911.280	1053
911.380	599
911.480	1529
911.580	1076
911.680	1526
911.780	1537
911.880	1410
911.980	248
912.080	1192
912.180	1328
912.280	1769
912.380	585
912.480	727
912.580	385
912.679	1334
912.779	1684
912.879	1680
912.979	354
913.078	903
913.178	407
913.278	999
913.377	555
913.477	938
913.577	422
913.676	2700
913.776	2400
913.875	1349
913.975	1369
914.074	802
914.174	1241
914.273	893
914.373	1427
914.472	1373
914.572	-28
914.671	329
914.770	879
914.870	973
914.969	134
915.068	1395
915.167	1183
915.267	925
915.366	680
915.465	1369
915.564	895
915.663	1243
915.763	790
915.862	2337
915.961	1375
916.060	1225
916.159	714
916.258	1072
916.357	897
916.456	2284
916.555	1248
916.654	974
916.752	1196
916.851	2072
916.950	819
917.049	759
917.148	374
917.247	992
917.345	559
917.444	1605
917.543	474
917.642	1384
917.740	1265
917.839	2785
917.937	3290
918.036	1758
918.135	909
918.233	953
918.332	804
918.430	1863
918.529	1237
918.627	1228
918.726	1641
918.824	2191
918.923	697
919.021	1494
919.119	950
919.218	1491
919.316	801
919.414	1159
919.512	1899
919.611	1613
919.709	1185
919.807	2757
919.905	1829
920.003	2559
920.102	1743
920.200	1559
920.298	2399
920.396	2297
920.494	2103
920.592	2268
920.690	1885
920.788	1986
920.886	2309
920.984	2872
921.082	1568
921.180	2735
921.277	2220
921.375	3800
921.473	4752
921.571	4099
921.669	3869
921.766	4052
921.864	4009
921.962	4098
922.060	3477
922.157	4596
922.255	3371
922.352	3708
922.450	4813
922.548	4632
922.645	5925
922.743	7775
922.840	10923
922.938	13065
923.035	10648
923.133	11081
923.230	13293
923.327	15982
923.425	13743
923.522	13618
923.619	13700
923.717	11521
923.814	10680
923.911	11166
924.008	11859
924.106	11041
924.203	10806
924.300	11481
924.397	10284
924.494	11251
924.591	10550
924.688	11227
924.786	10880
924.883	11638
924.979	9778
925.077	11580
925.173	10056
925.270	10220
925.367	10685
925.464	11686
925.561	11301
925.658	12709
925.755	9943
925.852	12224
925.948	10049
926.045	10740
926.142	11565
926.239	10923
926.335	8275
926.432	11342
926.529	10576
926.625	12855
926.722	9310
926.818	9787
926.915	10858
927.011	10658
927.108	8900
927.204	10300
927.301	8009
927.397	11178
927.494	10894
927.590	7372
927.687	8160
927.783	11004
927.879	10456
927.976	8905
928.072	8015
928.168	9905
928.264	9712
928.361	8682
928.457	10362
928.553	8615
928.649	8736
928.745	9170
928.841	7687
928.937	9285
929.033	8460
929.129	8898
929.225	9574
929.321	8510
929.417	7022
929.513	9704
929.609	7913
929.705	7995
929.801	9401
929.897	7458
929.993	7779
930.089	9103
930.184	6974
930.280	8581
930.376	9944
930.471	7791
930.567	6182
930.663	8865
930.758	6575
930.854	8224
930.950	6909
931.045	6875
931.141	6653
931.236	9945
931.332	7102
931.427	6602
931.523	8369
931.618	8408
931.714	4976
931.809	6787
931.905	8340
932.000	5495
932.095	4981
932.191	9440
932.286	8805
932.381	8108
932.476	5740
932.572	7717
932.667	6580
932.762	6569
932.857	7445
932.952	9112
933.047	6401
933.142	5510
933.237	6816
933.332	7844
933.427	8564
933.522	7005
933.617	5613
933.712	6516
933.807	8583
933.902	8644
933.997	8439
934.092	5375
934.187	6279
934.282	7098
934.376	6393
934.471	7755
934.566	6371
934.661	6026
934.755	6929
934.850	7697
934.945	6127
935.039	4688
935.134	4467
935.228	6197
935.323	8665
935.417	5483
935.512	3969
935.606	5659
935.701	6250
935.795	7392
935.890	7023
935.984	4789
936.079	3868
936.173	6564
936.267	4316
936.362	4899
936.456	6245
936.550	9342
936.644	5678
936.738	4737
936.833	4419
936.927	3940
937.021	4858
937.115	5825
937.209	5561
937.303	6090
937.397	4040
937.491	4558
937.585	6045
937.679	6244
937.773	4124
937.867	3509
937.961	4171
938.055	7513
938.149	5753
938.243	4667
938.337	3348
938.430	4943
938.524	6750
938.618	5032
938.712	4112
938.805	4736
938.899	6040
938.993	7690
939.086	3972
939.180	3914
939.274	5096
939.367	6196
939.461	5812
939.554	4283
939.648	2768
939.741	4402
939.835	5947
939.928	7404
940.022	5194
940.115	4827
940.208	6223
940.302	6922
940.395	7504
940.488	4174
940.582	4940
940.675	2804
940.768	3236
940.861	6222
940.954	6449
941.048	4304
941.141	3073
941.234	3584
941.327	4425
941.420	6152
941.513	5349
941.606	4579
941.699	4599
941.792	5924
941.885	4681
941.978	5230
942.071	4235
942.164	3586
942.257	2978
942.349	4370
942.442	4958
942.535	2695
942.628	3907
942.721	4450
942.813	3099
942.906	4972
942.999	3606
943.091	3318
943.184	4270
943.277	4003
943.369	2888
943.462	2151
943.554	4208
943.647	4214
943.739	5088
943.832	5675
943.924	1927
944.017	2793
944.109	2362
944.201	3569
944.294	3499
944.386	4427
944.478	3123
944.571	3611
944.663	2792
944.755	3684
944.847	4809
944.940	3757
945.032	1507
945.124	2233
945.216	3955
945.308	4473
945.400	3091
945.492	3191
945.584	4200
945.676	4638
945.768	3828
945.860	4453
945.952	4340
946.044	4717
946.136	3000
946.228	3928
946.320	3113
946.412	4209
946.503	4673
946.595	4908
946.687	1720
946.779	2433
946.870	2803
946.962	1923
947.054	2826
947.145	4208
947.237	2243
947.329	3628
947.420	3569
947.512	2668
947.603	1604
947.695	3321
947.786	1572
947.878	2923
947.969	3525
948.061	3679
948.152	2254
948.243	2708
948.335	1427
948.426	3069
948.517	3314
948.609	3937
948.700	3290
948.791	2488
948.882	1388
948.973	2235
949.065	2840
949.156	2943
949.247	1191
949.338	3790
949.429	702
949.520	2021
949.611	2549
949.702	3696
949.793	3063
949.884	3451
949.975	2939
950.066	1209
950.157	1724
950.247	2667
950.338	1893
950.429	1963
950.520	2283
950.611	2074
950.701	2364
950.792	4898
950.883	3570
950.973	2609
951.064	3629
951.155	2693
951.245	3265
951.336	3228
951.427	2338
951.517	4712
951.608	3194
951.698	2008
951.788	2099
951.879	1816
951.969	2392
952.060	2552
952.150	2516
952.240	3704
952.331	1235
952.421	3777
952.511	1707
952.602	873
952.692	680
952.782	1389
952.872	1595
952.962	3359
953.052	2240
953.143	2553
953.233	2703
953.323	3001
953.413	2184
953.503	3451
953.593	2151
953.683	2120
953.773	746
953.863	1598
953.953	1027
954.042	2405
954.132	2145
954.222	2954
954.312	1186
954.402	1963
954.492	1492
954.581	2244
954.671	1298
954.761	1986
954.850	3653
954.940	1085
955.030	844
955.119	942
955.209	847
955.298	2379
955.388	2450
955.477	3924
955.567	1001
955.656	1796
955.746	1594
955.835	1941
955.925	1120
956.014	2343
956.103	2002
956.193	3497
956.282	2850
956.371	2540
956.461	1533
956.550	732
956.639	1954
956.728	1622
956.817	2058
956.906	2029
956.995	2551
957.085	1197
957.174	1957
957.263	1793
957.352	709
957.441	2457
957.530	1851
957.619	1128
957.708	1445
957.796	1678
957.885	1383
957.974	1767
958.063	1728
958.152	293
958.241	1232
958.329	1724
958.418	1467
958.507	1210
958.596	1897
958.684	1427
958.773	2181
958.861	1069
958.950	1424
959.039	1577
959.127	949
959.216	1826
959.304	1633
959.393	2138
959.481	2005
959.570	1937
959.658	1113
959.746	1027
959.835	1734
959.923	802
960.011	609
960.100	1722
960.188	1890
960.276	1860
960.365	1159
960.453	670
960.541	274
960.629	1478
960.717	522
960.805	366
960.893	1128
960.981	748
961.069	2641
961.158	2538
961.245	3045
961.333	1791
961.421	1028
961.509	2276
961.597	1438
961.685	952
961.773	1440
961.861	2037
961.949	2193
962.036	768
962.124	1833
962.212	1355
962.299	386
962.387	1068
962.475	1003
962.562	623
962.650	1641
962.738	952
962.825	759
962.913	992
963.000	932
963.088	1744
963.175	726
963.263	902
963.350	1159
963.438	957
963.525	408
963.612	1880
963.700	835
963.787	1969
963.874	658
963.962	990
964.049	1237
964.136	672
964.223	65
964.310	695
964.398	755
964.485	593
964.572	1250
964.659	1713
964.746	539
964.833	1561
964.920	651
965.007	1523
965.094	1349
965.181	156
965.268	2290
965.355	1177
965.441	-53
965.528	987
965.615	1761
965.702	1371
965.789	511
965.875	1337
965.962	1285
966.049	302
966.136	1674
966.222	2034
966.309	2288
966.395	1732
966.482	2056
966.569	1484
966.655	1389
966.742	983
966.828	745
966.915	1050
967.001	1109
967.087	-483
967.174	470
967.260	1504
967.347	288
967.433	1359
967.519	649
967.605	1232
967.692	549
967.778	920
967.864	845
967.950	1977
968.036	-42
968.123	1041
968.209	297
968.295	-116
968.381	2323
968.467	788
968.553	-134
968.639	1951
968.725	278
968.811	1897
968.897	2149
968.983	1662
969.069	219
969.154	1077
969.240	1188
969.326	-259
969.412	74
969.497	670
969.583	-233
969.669	2207
969.755	1184
969.840	1116
969.926	2425
970.012	2596
970.097	4343
970.183	3530
970.268	2249
970.354	1581
970.439	237
970.525	2410
970.610	-315
970.696	2045
970.781	689
970.866	-200
970.952	931
971.037	818
971.122	343
971.208	1582
971.293	178
971.378	178
971.463	739
971.549	1753
971.634	415
971.719	1281
971.804	731
971.889	1350
971.974	374
972.059	621
972.144	1096
972.229	14
972.314	266
972.399	1249
972.484	-215
972.569	1090
972.654	378
972.739	1337
972.824	93
972.908	515
972.993	-258
973.078	579
973.163	507
973.247	1877
973.332	-280
973.417	2201
973.501	-222
973.586	684
973.671	369
973.755	321
973.840	926
973.924	1316
974.009	1809
974.093	2134
974.178	2024
974.262	1493
974.346	104
974.431	1380
974.515	728
974.600	-88
974.684	632
974.768	589
974.852	1660
974.937	548
975.021	1497
975.105	651
975.189	-324
975.273	1580
975.358	-708
975.442	-458
975.526	855
975.610	753
975.694	-727
975.778	1345
975.862	363
975.946	-1354
976.030	1749
976.114	46
976.198	625
976.281	308
976.365	494
976.449	1232
976.533	735
976.617	-277
976.700	87
976.784	690
976.868	17
976.951	205
977.035	-891
977.119	1511
977.202	810
977.286	1456
977.369	1540
977.453	2565
977.536	2696
977.620	2056
977.703	2443
977.787	1619
977.870	891
977.953	1765
978.037	-494
978.120	1283
978.203	171
978.287	1325
978.370	1372
978.453	673
978.536	778
978.620	2001
978.703	813
978.786	-612
978.869	548
978.952	504
979.035	1428
979.118	501
979.201	-650
979.284	2077
979.367	-47
979.450	1718
979.533	-657
979.616	367
979.699	338
979.782	1182
979.865	530
979.948	1388
980.030	17
980.113	763
980.196	386
980.279	1350
980.361	238
980.444	593
980.526	1877
980.609	3718
980.692	3096
980.774	3051
980.857	733
980.939	2211
981.022	763
981.104	1901
981.187	913
981.269	1770
981.352	759
981.434	518
981.516	1233
981.599	2353
981.681	1168
981.763	916
981.846	626
981.928	1037
982.010	1237
982.092	1071
982.174	1566
982.256	1723
982.339	1282
982.421	2246
982.503	1590
982.585	434
982.667	868
982.749	1397
982.831	1263
982.913	886
982.995	1167
983.077	2115
983.158	2877
983.240	361
983.322	2742
983.404	3648
983.486	3181
983.568	3363
983.649	2832
983.731	2609
983.813	1776
983.894	1687
983.976	2114
984.058	1750
984.139	2466
984.221	972
984.302	2958
984.384	1226
984.465	643
984.547	1585
984.628	1578
984.710	2656
984.791	1573
984.872	1572
984.954	1426
985.035	2636
985.116	750
985.198	1817
985.279	3247
985.360	1193
985.441	1099
985.522	2242
985.604	1304
985.685	277
985.766	1832
985.847	2942
985.928	1414
986.009	2482
986.090	1937
986.171	3208
986.252	1002
986.333	2541
986.414	905
986.495	2083
986.576	1535
986.656	3106
986.737	2767
986.818	3459
986.899	1785
986.980	1875
987.060	2934
987.141	2279
987.222	2599
987.302	2615
987.383	3796
987.464	3414
987.544	3669
987.625	2388
987.705	3156
987.786	3608
987.866	3140
987.947	3502
988.027	3495
988.108	2878
988.188	1826
988.268	2799
988.349	2293
988.429	2501
988.509	2647
988.589	2736
988.670	1218
988.750	4118
988.830	2354
988.910	3736
988.990	1985
989.070	2155
989.151	2588
989.231	1815
989.311	2745
989.391	2232
989.471	1887
989.551	2507
989.631	1387
989.711	3666
989.791	1820
989.870	2050
989.950	2497
990.030	2412
990.110	1548
990.190	1269
990.269	1653
990.349	1055
990.429	2298
990.509	2399
990.588	571
990.668	1728
990.747	1602
990.827	1667
990.907	1927
990.986	2508
991.066	2203
991.145	376
991.225	2511
991.304	1766
991.383	1440
991.463	1703
991.542	1342
991.622	713
991.701	958
991.780	1274
991.859	733
991.939	1892
992.018	1198
992.097	2111
992.176	962
992.256	332
992.335	1107
992.414	1890
992.493	438
992.572	554
992.651	2456
992.730	1452
992.809	1017
992.888	713
992.967	602
993.046	879
993.125	29
993.203	1024
993.282	493
993.361	1665
993.440	1100
993.519	1022
993.597	1241
993.676	1076
993.755	2255
993.834	1380
993.912	-299
993.991	1220
994.069	-129
994.148	780
994.226	87
994.305	997
994.384	1085
994.462	1676
994.540	-712
994.619	337
994.697	673
994.776	1666
994.854	1607
994.932	414
995.011	141
995.089	664
995.167	-403
995.245	1125
995.324	525
995.402	58
995.480	-356
995.558	469
995.636	-658
995.714	59
995.792	864
995.870	-751
995.948	-572
996.026	842
996.104	-1010
996.182	1151
996.260	-130
996.338	418
996.416	-422
996.494	740
996.572	609
996.649	147
996.727	-662
996.805	1425
996.883	-426
996.960	534
997.038	712
997.116	671
997.193	-332
997.271	202
997.348	-527
997.426	83
997.504	278
997.581	1113
997.658	-34
997.736	-1516
997.813	-1852
997.891	1439
997.968	-693
998.046	1018
998.123	-1292
998.200	852
998.277	-556
998.355	511
998.432	-2335
998.509	-122
998.586	626
998.663	814
998.741	-378
998.818	155
998.895	-953
998.972	454
999.049	571
999.126	511
999.203	-649
999.280	-356
999.357	-132
999.434	192
999.511	-696
999.587	459
999.664	-1818
999.741	-82
999.818	-880
999.895	-879
999.971	-973
1000.048	-237
1000.125	-344
1000.202	-26
1000.278	-1000
1000.355	741
1000.431	-773
1000.508	-435
1000.584	-96
1000.661	510
1000.738	-553
1000.814	100
1000.890	-296
1000.967	-1089
1001.043	-758
1001.120	-1195
1001.196	-1021
1001.272	-1337
1001.349	-1145
1001.425	156
1001.501	-188
1001.577	-933
1001.654	-324
1001.730	-531
1001.806	-1118
1001.882	-1413
1001.958	-10
1002.034	-275
1002.110	-774
1002.186	-901
1002.262	-2004
1002.338	-1085
1002.414	-373
1002.490	898
1002.566	-1337
1002.642	-1586
1002.718	-489
1002.794	313
1002.870	-1769
1002.945	-699
1003.021	-769
1003.097	-1149
1003.173	-1014
1003.248	-468
1003.324	-693
1003.400	-1099
1003.475	-888
1003.551	-577
1003.626	-1114
1003.702	-1961
1003.777	-1034
1003.853	-885
1003.928	-1394
1004.004	-1421
1004.079	-709
1004.155	-214
1004.230	-2069
1004.305	-291
1004.381	-1074
1004.456	-1106
1004.531	-1800
1004.607	-1056
1004.682	-863
1004.757	-752
1004.832	-1452
1004.907	-1355
1004.982	-817
1005.057	-849
1005.133	-637
1005.208	-1646
1005.283	-2078
1005.358	-833
1005.433	-1710
1005.508	-351
1005.583	-1116
1005.657	-739
1005.732	-323
1005.807	-1980
1005.882	-1167
1005.957	-1428
1006.032	-1157
1006.106	-1143
1006.181	-876
1006.256	-432
1006.331	-1968
1006.405	-484
1006.480	-1595
1006.554	-1522
1006.629	-562
1006.704	-967
1006.778	-1653
1006.853	-503
1006.927	-1366
1007.002	-1520
1007.076	-1821
1007.150	-1671
1007.225	-1072
1007.299	-989
1007.373	-1657
1007.448	-816
1007.522	-1063
1007.596	-1279
1007.671	-1968
1007.745	-628
1007.819	-2059
1007.893	-1085
1007.967	-960
1008.041	-1252
1008.115	-866
1008.190	-1274
1008.264	-1765
1008.338	-2036
1008.412	-1192
1008.486	-769
1008.560	-840
1008.633	-1477
1008.707	-957
1008.781	-883
1008.855	-1375
1008.929	-1208
1009.003	-1111
1009.076	-2136
1009.150	-1391
1009.224	-912
1009.298	-1207
1009.371	-1911
1009.445	-1429
1009.519	-1081
1009.592	-2177
1009.666	-785
1009.739	-1356
1009.813	-1798
1009.886	-160
1009.960	-2090
1010.033	-1125
1010.107	-1060
1010.180	-2047
1010.253	-593
1010.327	-2053
1010.400	-1331
1010.473	-2023
1010.547	-235
1010.620	-2035
1010.693	-1169
1010.766	-902
1010.840	-1173
1010.913	-2384
1010.986	-1666
1011.059	-2034
1011.132	-1196
1011.205	-1347
1011.278	-860
1011.351	-1802
1011.424	-1435
1011.497	-2012
1011.570	-1270
1011.643	-1264
1011.716	-1528
1011.789	-2140
1011.862	-792
1011.934	-1252
1012.007	-2086
1012.080	-1465
1012.153	-1306
1012.225	-903
1012.298	-1388
1012.371	-1764
1012.443	-882
1012.516	-2952
1012.588	-1532
1012.661	-1422
1012.733	-1944
1012.806	-1434
1012.879	-1930
1012.951	-1375
1013.023	-1542
1013.096	-2139
1013.168	-2048
1013.241	-1458
1013.313	-1768
1013.385	-2557
1013.458	-1282
1013.530	-1697
1013.602	-2768
1013.674	-1352
1013.746	-1904
1013.819	-2352
1013.891	-815
1013.963	-2005
1014.035	-963
1014.107	-693
1014.179	-814
1014.251	-1967
1014.323	-1718
1014.395	-1605
1014.467	-1152
1014.539	-1362
1014.611	-1090
1014.683	-2318
1014.754	-1619
1014.826	-2249
1014.898	-901
1014.970	-1848
1015.042	-1496
1015.113	-1110
1015.185	-1443
1015.257	-2993
1015.328	-1575
1015.400	-1529
1015.471	-673
1015.543	-2190
1015.615	-1241
1015.686	-2661
1015.757	-593
1015.829	-2651
1015.901	-1555
1015.972	-1840
1016.043	-1275
1016.115	-2327
1016.186	-1559
1016.257	-1851
1016.328	-451
1016.400	-1722
1016.471	-2011
1016.542	-1452
1016.613	-1667
1016.685	-1468
1016.756	-141
1016.827	-1686
1016.898	-1965
1016.969	-1583
1017.040	-1504
1017.111	-2734
1017.182	-2432
1017.253	-1711
1017.324	-1441
1017.395	-2075
1017.466	-838
1017.537	-2464
1017.608	-1038
1017.678	-1889
1017.749	-1965
1017.820	-1993
1017.891	-1822
1017.961	-2184
1018.032	-1400
1018.103	-2238
1018.173	-1293
1018.244	-1986
1018.315	-1815
1018.385	-2024
1018.456	-1179
1018.526	-2813
1018.597	-1256
1018.667	-1888
1018.738	-2283
1018.808	-1252
1018.878	-2101
1018.949	-1702
1019.019	-877
1019.089	-2606
1019.160	-1297
1019.230	-2812
1019.300	-1585
1019.371	-2544
1019.441	-1279
1019.511	-1848
1019.581	-1319
1019.651	-1853
1019.721	-1535
1019.791	-2395
1019.861	-1569
1019.931	-1984
1020.001	-2529
1020.071	-1891
1020.141	-996
1020.211	-1926
1020.281	-1300
1020.351	-1717
1020.421	-971
1020.491	-1954
1020.560	-1571
1020.630	-2278
1020.700	-2289
1020.770	-1900
1020.839	-1679
1020.909	-1874
1020.979	-1245
1021.048	-2534
1021.118	-1815
1021.187	-1719
1021.257	-1745
1021.326	-2205
1021.396	-1988
1021.465	-1558
1021.535	-1958
1021.604	-2565
1021.674	-880
1021.743	-1940
1021.812	-1279
1021.882	-2982
1021.951	-1707
1022.020	-1877
1022.089	-1366
1022.159	-1536
1022.228	-1499
1022.297	-2364
1022.366	-1573
1022.435	-2226
1022.504	-1199
1022.573	-2954
1022.642	-1319
1022.711	-2791
1022.781	-837
1022.849	-2001
1022.918	-1267
1022.987	-1786
1023.056	-1461
1023.125	-2142
1023.194	-1014
1023.263	-2443
1023.331	-1732
1023.400	-2983
1023.469	-2239
1023.538	-1827
1023.606	-2300
1023.675	-2788
1023.744	-1460
1023.812	-2945
1023.881	-1957
1023.949	-2094
1024.018	-1895
1024.086	-2234
1024.155	-2055
1024.223	-2633
1024.292	-1343
1024.360	-2247
1024.429	-1790
1024.497	-2564
1024.565	-2046
1024.634	-2244
1024.702	-1804
1024.770	-1599
1024.838	-1840
1024.907	-1926
1024.975	-2002
1025.043	-2034
1025.111	-2119
1025.179	-2026
1025.247	-1697
1025.315	-2520
1025.383	-1167
1025.451	-1847
1025.519	-1788
1025.587	-1740
1025.655	-2013
1025.723	-2085
1025.791	-2193
1025.859	-2905
1025.927	-1165
1025.995	-1818
1026.062	-1721
1026.130	-1969
1026.198	-1782
1026.266	-2372
1026.333	-966
1026.401	-1713
1026.469	-2141
1026.536	-2473
1026.604	-1661
1026.671	-2633
1026.739	-2223
1026.806	-1982
1026.874	-1833
1026.941	-3089
1027.009	-2100
1027.076	-2874
1027.144	-488
1027.211	-2292
1027.278	-2415
1027.345	-1861
1027.413	-1444
1027.480	-3212
1027.547	-2374
1027.614	-2455
1027.682	-1936
1027.749	-2234
1027.816	-1733
1027.883	-2714
1027.950	-1847
1028.017	-2094
1028.084	-1662
1028.151	-3035
1028.218	-1794
1028.285	-3112
1028.352	-1878
1028.419	-2519
1028.486	-2712
1028.553	-2030
1028.619	-2267
1028.686	-2505
1028.753	-1647
1028.820	-2332
1028.886	-1640
1028.953	-2352
1029.020	-1663
1029.086	-2002
1029.153	-2412
1029.220	-2739
1029.286	-1910
1029.353	-3105
1029.419	-2043
1029.486	-1414
1029.552	-2192
1029.619	-2799
1029.685	-1696
1029.751	-2849
1029.818	-1567
1029.884	-3768
1029.951	-460
1030.017	-2577
1030.083	-1848
1030.149	-1938
1030.216	-2327
1030.282	-2778
1030.348	-2693
1030.414	-2526
1030.480	-1919
1030.546	-2047
1030.612	-1934
1030.678	-3663
1030.744	-1378
1030.810	-2196
1030.876	-2138
1030.942	-2301
1031.008	-937
1031.074	-2721
1031.140	-1958
1031.206	-2222
1031.272	-1958
1031.337	-2831
1031.403	-1889
1031.469	-2897
1031.534	-2018
1031.600	-1961
1031.666	-2100
1031.731	-2541
1031.797	-2477
1031.863	-2094
1031.928	-1691
1031.994	-2823
1032.059	-1662
1032.125	-1443
1032.190	-2297
1032.256	-3031
1032.321	-2659
1032.386	-3052
1032.452	-2095
1032.517	-2986
1032.582	-1807
1032.647	-2682
1032.713	-2851
1032.778	-2304
1032.843	-2303
1032.908	-1842
1032.974	-2275
1033.039	-3521
1033.104	-1209
1033.169	-2732
1033.234	-1462
1033.299	-2077
1033.364	-1278
1033.429	-2671
1033.494	-2078
1033.559	-3045
1033.624	-2414
1033.688	-2208
1033.753	-1786
1033.818	-2258
1033.883	-1800
1033.948	-1364
1034.013	-1041
1034.077	-1454
1034.142	-301
1034.207	-106
1034.271	2251
1034.336	1696
1034.400	395
1034.465	-543
1034.530	-1903
1034.594	-2672
1034.658	-1397
1034.723	-3209
1034.787	-2034
1034.852	-2536
1034.916	-2067
1034.981	-2524
1035.045	-1863
1035.109	-3019
1035.173	-1895
1035.238	-3341
1035.302	-2728
1035.366	-3107
1035.430	-1587
1035.495	-2609
1035.559	-2117
1035.623	-2698
1035.687	-1923
1035.751	-2802
1035.815	-2427
1035.879	-3219
1035.943	-1721
1036.007	-2762
1036.071	-2264
1036.135	-2423
1036.198	-1664
1036.262	-3042
1036.326	-2504
1036.390	-1529
1036.454	-2287
1036.517	-1903
1036.581	-2481
1036.645	-2169
1036.709	-2039
1036.772	-2735
1036.836	-2698
1036.900	-2596
1036.963	-2550
1037.026	-3286
1037.090	-3048
1037.154	-2360
1037.217	-2655
1037.280	-2569
1037.344	-2759
1037.407	-2802
1037.471	-1805
1037.534	-2325
1037.597	-2298
1037.661	-2607
1037.724	-2329
1037.787	-3474
1037.850	-2167
1037.913	-2690
1037.977	-1520
1038.040	-2421
1038.103	-2490
1038.166	-3045
1038.229	-2161
1038.292	-2876
1038.355	-2323
1038.418	-2689
1038.481	-2214
1038.544	-2635
1038.607	-1843
1038.670	-2920
1038.732	-1979
1038.795	-3272
1038.858	-1784
1038.921	-3267
1038.984	-2100
1039.046	-2231
1039.109	-1986
1039.172	-2833
1039.234	-2246
1039.297	-2890
1039.360	-2112
1039.422	-3315
1039.485	-1644
1039.547	-3482
1039.610	-2376
1039.672	-2585
1039.734	-1984
1039.797	-3079
1039.859	-1724
1039.922	-2743
1039.984	-2114
1040.046	-3185
1040.109	-1992
1040.171	-2970
1040.233	-2784
1040.295	-2845
1040.358	-2890
1040.420	-2808
1040.482	-2665
1040.544	-3068
1040.606	-2695
1040.668	-3541
1040.730	-1895
1040.792	-2866
1040.854	-3160
1040.916	-3133
1040.978	-2743
1041.040	-2322
1041.102	-2448
1041.164	-3728
1041.225	-2645
1041.287	-3248
1041.349	-2371
1041.411	-3274
1041.472	-2815
1041.534	-2823
1041.596	-2755
1041.657	-2994
1041.719	-2622
1041.781	-2631
1041.842	-2754
1041.904	-2681
1041.965	-2973
1042.027	-3203
1042.088	-2587
1042.150	-2938
1042.211	-2357
1042.272	-2643
1042.334	-2253
1042.395	-3267
1042.456	-2645
1042.518	-3048
1042.579	-2513
1042.640	-3091
1042.701	-2725
1042.763	-3508
1042.824	-2627
1042.885	-3273
1042.946	-2447
1043.007	-3150
1043.068	-2085
1043.129	-2983
1043.190	-2832
1043.251	-2076
1043.312	-1356
1043.373	-2136
1043.434	-1962
1043.495	-2286
1043.556	-2358
1043.616	-2793
1043.677	-2025
1043.738	-2313
1043.799	-3366
1043.859	-2702
1043.920	-1758
1043.981	-2893
1044.041	-2443
1044.102	-2956
1044.162	-2308
1044.223	-2993
1044.284	-1723
1044.344	-3082
1044.405	-2196
1044.465	-3281
1044.525	-2182
1044.586	-2822
1044.646	-2575
1044.707	-1911
1044.767	-2462
1044.827	-3219
1044.887	-1866
1044.948	-3018
1045.008	-2113
1045.068	-3048
1045.128	-1945
1045.188	-3048
1045.249	-2319
1045.309	-2848
1045.369	-1019
1045.429	-2685
1045.489	-2915
1045.549	-3021
1045.609	-1861
1045.669	-2613
1045.729	-1879
1045.789	-2797
1045.848	-1862
1045.908	-1955
1045.968	-1974
1046.028	-2802
1046.088	-2228
1046.147	-2797
1046.207	-2095
1046.267	-2541
1046.326	-1528
1046.386	-1949
1046.446	-2147
1046.505	-1940
1046.565	-1699
1046.624	-2016
1046.684	-1447
1046.743	-921
1046.803	-1313
1046.862	-1057
1046.922	0
