'Start Wavelength	183.907
'End Wavelength	1046.922
'Gate Delay	5.000
'Gate Width (ms)	1.050
'Laser Output Level	0.000
'X Position	0.000
'Y Position	0.000
'Z Position	0.000
'Grid Point Number	1.000
'Shot Number	100.000
183.907	250.000
183.977	31.000
184.047	375
184.116	414
184.186	672
184.256	-51
184.325	-200
184.395	-321
184.465	1180
184.534	42
184.604	76
184.674	125
184.743	196
184.813	-72
184.883	589
184.952	352
185.022	495
185.092	294
185.161	-569
185.231	274
185.301	-80
185.370	-108
185.440	9
185.509	-252
185.579	273
185.649	556
185.718	193
185.788	810
185.857	642
185.927	-385
185.996	-323
186.066	272
186.136	-125
186.205	-207
186.275	-256
186.344	2
186.414	332
186.483	-12
186.553	1309
186.622	779
186.692	1235
186.761	137
186.831	482
186.900	-33
186.970	427
187.039	362
187.109	1019
187.178	481
187.248	169
187.317	113
187.387	738
187.456	494
187.526	1249
187.595	880
187.664	358
187.734	238
187.803	26
187.873	211
187.942	613
188.012	-24
188.081	737
188.150	-381
188.220	1031
188.289	840
188.358	621
188.428	-48
188.497	58
188.567	-190
188.636	522
188.705	206
188.775	633
188.844	-200
188.913	1167
188.983	23
189.052	348
189.121	1124
189.191	1024
189.260	77
189.329	764
189.399	225
189.468	933
189.537	-110
189.606	580
189.676	606
189.745	283
189.814	297
189.883	624
189.953	679
190.022	1260
190.091	519
190.161	1070
190.230	550
190.299	1021
190.368	198
190.437	-291
190.507	6
190.576	722
190.645	65
190.714	359
190.783	217
190.853	586
190.922	759
190.991	1206
191.060	-64
191.129	231
191.198	-319
191.268	199
191.337	-79
191.406	1406
191.475	240
191.544	377
191.613	201
191.682	-443
191.752	634
191.821	166
191.890	220
191.959	19
192.028	427
192.097	772
192.166	450
192.235	809
192.304	799
192.373	429
192.442	-298
192.511	-143
192.580	836
192.650	450
192.719	-309
192.788	195
192.857	468
192.926	-183
192.995	-41
193.064	406
193.133	663
193.202	-55
193.271	191
193.340	1387
193.409	677
193.478	675
193.547	407
193.615	1046
193.684	815
193.753	340
193.822	17
193.891	-129
193.960	-289
194.029	80
194.098	625
194.167	-512
194.236	804
194.305	575
194.374	224
194.443	836
194.512	582
194.580	798
194.649	582
194.718	352
194.787	1051
194.856	400
194.925	456
194.994	514
195.062	58
195.131	623
195.200	20
195.269	753
195.338	421
195.407	510
195.475	-143
195.544	777
195.613	-868
195.682	913
195.751	88
195.819	416
195.888	472
195.957	1080
196.026	29
196.094	620
196.163	-188
196.232	622
196.301	97
196.369	370
196.438	-172
196.507	711
196.576	-198
196.644	919
196.713	122
196.782	611
196.850	190
196.919	172
196.988	-320
197.056	386
197.125	18
197.194	182
197.262	567
197.331	614
197.400	199
197.468	34
197.537	39
197.606	452
197.674	720
197.743	943
197.812	299
197.880	732
197.949	222
198.017	978
198.086	132
198.155	77
198.223	311
198.292	881
198.360	-263
198.429	162
198.497	-67
198.566	368
198.635	1192
198.703	396
198.772	509
198.840	-84
198.909	869
198.977	687
199.046	-523
199.114	253
199.183	118
199.251	860
199.320	-419
199.388	420
199.457	-197
199.525	-305
199.594	428
199.662	517
199.731	971
199.799	1457
199.867	378
199.936	441
200.004	400
200.073	295
200.141	478
200.210	189
200.278	477
200.346	514
200.415	971
200.483	570
200.552	413
200.620	234
200.688	1047
200.757	707
200.825	-650
200.893	-64
200.962	339
201.030	332
201.098	530
201.167	1094
201.235	438
201.303	635
201.372	879
201.440	650
201.508	1263
201.577	533
201.645	439
201.713	-241
201.781	84
201.850	992
201.918	110
201.986	399
202.055	1299
202.123	-87
202.191	323
202.259	-62
202.327	498
202.396	-411
202.464	328
202.532	784
202.600	1320
202.669	1841
202.737	930
202.805	453
202.873	811
202.941	610
203.009	188
203.078	268
203.146	855
203.214	-76
203.282	-655
203.350	1211
203.418	-717
203.487	457
203.555	-251
203.623	985
203.691	448
203.759	123
203.827	349
203.895	842
203.963	-158
204.031	248
204.099	805
204.168	583
204.236	414
204.304	1069
204.372	238
204.440	428
204.508	207
204.576	623
204.644	689
204.712	610
204.780	-63
204.848	808
204.916	145
204.984	922
205.052	178
205.120	172
205.188	-469
205.256	-182
205.324	-36
205.392	292
205.460	125
205.528	87
205.596	295
205.664	451
205.732	362
205.799	742
205.867	915
205.935	32
206.003	236
206.071	413
206.139	-23
206.207	629
206.275	196
206.343	355
206.411	-157
206.478	235
206.546	898
206.614	-205
206.682	495
206.750	40
206.818	-474
206.885	1101
206.953	-177
207.021	735
207.089	-13
207.157	392
207.225	497
207.292	189
207.360	-40
207.428	258
207.496	-342
207.563	-292
207.631	765
207.699	117
207.767	165
207.834	462
207.902	108
207.970	357
208.038	-113
208.105	848
208.173	-438
208.241	90
208.309	805
208.376	110
208.444	-9
208.512	131
208.579	-690
208.647	725
208.715	692
208.782	170
208.850	682
208.918	369
208.985	379
209.053	1024
209.120	-291
209.188	-867
209.256	-243
209.323	71
209.391	127
209.459	1820
209.526	771
209.594	186
209.661	245
209.729	421
209.796	359
209.864	558
209.932	-1159
209.999	1302
210.067	860
210.134	-20
210.202	-215
210.269	80
210.337	613
210.404	357
210.472	175
210.539	374
210.607	-186
210.674	444
210.742	37
210.809	352
210.877	2
210.944	1131
211.012	-1054
211.079	1731
211.146	457
211.214	110
211.281	563
211.349	1435
211.416	290
211.484	903
211.551	104
211.618	313
211.686	1129
211.753	-622
211.821	329
211.888	1256
211.955	461
212.023	507
212.090	239
212.157	291
212.225	607
212.292	1172
212.359	1112
212.427	2752
212.494	1238
212.561	1349
212.629	-418
212.696	728
212.763	760
212.831	-124
212.898	1594
212.965	-242
213.032	-231
213.100	395
213.167	-14
213.234	1458
213.301	602
213.369	1139
213.436	-115
213.503	36
213.570	575
213.638	506
213.705	-60
213.772	-259
213.839	-649
213.906	677
213.973	528
214.041	141
214.108	120
214.175	1152
214.242	49
214.309	208
214.376	-106
214.444	898
214.511	145
214.578	369
214.645	484
214.712	871
214.779	1147
214.846	213
214.913	-255
214.980	588
215.048	876
215.115	2055
215.182	608
215.249	1216
215.316	351
215.383	1103
215.450	-245
215.517	608
215.584	-139
215.651	-248
215.718	612
215.785	22
215.852	-472
215.919	1457
215.986	593
216.053	585
216.120	-574
216.187	1130
216.254	344
216.321	449
216.388	256
216.455	233
216.522	301
216.589	442
216.656	12
216.722	650
216.789	324
216.856	1343
216.923	-225
216.990	433
217.057	-330
217.124	495
217.191	-450
217.258	1113
217.324	364
217.391	909
217.458	497
217.525	977
217.592	229
217.659	-659
217.725	1271
217.792	-157
217.859	1210
217.926	95
217.993	620
218.059	1134
218.126	393
218.193	13
218.260	-434
218.327	-431
218.393	-373
218.460	165
218.527	-875
218.594	570
218.660	-105
218.727	1353
218.794	-471
218.860	839
218.927	18
218.994	227
219.061	184
219.127	308
219.194	30
219.261	844
219.327	-199
219.394	1058
219.461	369
219.527	1156
219.594	734
219.661	-49
219.727	-132
219.794	1180
219.860	-120
219.927	1031
219.994	1788
220.060	3109
220.127	2190
220.193	2004
220.260	617
220.326	1092
220.393	233
220.460	1172
220.526	1187
220.593	286
220.659	1881
220.726	738
220.792	2009
220.859	1472
220.925	1533
220.992	3125
221.058	2710
221.125	3184
221.191	2102
221.258	-134
221.324	819
221.391	805
221.457	-188
221.524	299
221.590	545
221.657	2222
221.723	1184
221.789	980
221.856	1439
221.922	969
221.989	665
222.055	573
222.121	197
222.188	1563
222.254	1025
222.321	651
222.387	1053
222.453	1266
222.520	-232
222.586	455
222.652	693
222.719	122
222.785	679
222.851	177
222.918	-344
222.984	396
223.050	-314
223.116	-634
223.183	1199
223.249	43
223.315	-123
223.382	617
223.448	245
223.514	154
223.580	280
223.647	390
223.713	-244
223.779	184
223.845	498
223.911	285
223.978	-309
224.044	1038
224.110	-927
224.176	720
224.242	416
224.309	-158
224.375	-184
224.441	961
224.507	215
224.573	-646
224.639	833
224.705	-425
224.772	-525
224.838	-270
224.904	188
224.970	289
225.036	-291
225.102	-887
225.168	460
225.234	54
225.300	166
225.366	101
225.432	399
225.499	936
225.565	-148
225.631	1191
225.697	38
225.763	601
225.829	660
225.895	253
225.961	411
226.027	1134
226.093	312
226.159	1816
226.225	1477
226.291	2999
226.357	4739
226.423	1610
226.489	1481
226.554	1209
226.620	573
226.686	1525
226.752	1389
226.818	2819
226.884	6147
226.950	6786
227.016	1355
227.082	2080
227.148	834
227.214	1539
227.279	821
227.345	1415
227.411	1674
227.477	2662
227.543	5191
227.609	5861
227.674	3731
227.740	1901
227.806	1097
227.872	567
227.938	344
228.003	1256
228.069	803
228.135	60
228.201	670
228.267	540
228.332	-568
228.398	-89
228.464	192
228.530	-113
228.595	478
228.661	-34
228.727	315
228.792	1075
228.858	393
228.924	-1489
228.990	770
229.055	189
229.121	-105
229.187	250
229.252	88
229.318	144
229.384	705
229.449	-225
229.515	-1966
229.581	-290
229.646	1610
229.712	121
229.777	850
229.843	795
229.909	-106
229.974	947
230.040	899
230.105	-200
230.171	540
230.236	805
230.302	1043
230.368	954
230.433	-141
230.499	344
230.564	1400
230.630	-334
230.695	1111
230.761	2083
230.826	-1271
230.892	1793
230.957	-876
231.023	833
231.088	273
231.154	333
231.219	-106
231.284	95
231.350	729
231.415	-81
231.481	-22
231.546	-248
231.612	387
231.677	-226
231.742	-1153
231.808	868
231.873	104
231.939	-1437
232.004	1330
232.069	1467
232.135	329
232.200	291
232.265	591
232.331	200
232.396	417
232.461	-500
232.527	332
232.592	-201
232.657	259
232.723	280
232.788	-224
232.853	991
232.918	237
232.984	-589
233.049	-522
233.114	-850
233.179	25
233.245	1797
233.310	-594
233.375	-326
233.440	578
233.506	-165
233.571	178
233.636	893
233.701	146
233.766	-169
233.832	-62
233.897	369
233.962	-1276
234.027	1840
234.092	683
234.157	-352
234.222	227
234.288	1568
234.353	553
234.418	1205
234.483	713
234.548	723
234.613	136
234.678	779
234.743	-320
234.808	2201
234.873	-619
234.938	1089
235.004	-46
235.069	561
235.134	-423
235.199	891
235.264	1
235.329	-601
235.394	653
235.459	576
235.524	-622
235.589	314
235.654	149
235.719	-1267
235.784	1403
235.849	-232
235.913	473
235.978	772
236.043	1081
236.108	640
236.173	-135
236.238	1205
236.303	-710
236.368	-99
236.433	627
236.498	292
236.563	1014
236.627	1237
236.692	8882
236.757	7640
236.822	2032
236.887	973
236.952	2155
237.017	61
237.081	2031
237.146	1537
237.211	3425
237.276	8039
237.341	15562
237.405	5541
237.470	2059
237.535	1169
237.600	1041
237.664	1442
237.729	-782
237.794	690
237.859	1680
237.923	1082
237.988	473
238.053	1410
238.118	404
238.182	1354
238.247	3035
238.312	-117
238.376	747
238.441	-753
238.506	1000
238.570	-752
238.635	928
238.700	732
238.764	-633
238.829	370
238.893	-150
238.958	927
239.023	368
239.087	383
239.152	269
239.216	93
239.281	234
239.346	1162
239.410	493
239.475	238
239.539	1656
239.604	241
239.668	2007
239.733	1817
239.797	4885
239.862	9702
239.926	7569
239.991	2885
240.055	2287
240.120	766
240.184	1357
240.249	150
240.313	516
240.378	1046
240.442	404
240.507	1835
240.571	588
240.635	423
240.700	1207
240.764	477
240.829	118
240.893	-346
240.957	-106
241.022	1768
241.086	1071
241.151	5
241.215	-332
241.279	769
241.344	500
241.408	490
241.472	-351
241.537	1151
241.601	138
241.665	-465
241.730	-502
241.794	1635
241.858	-62
241.922	799
241.987	1020
242.051	849
242.115	-288
242.179	1185
242.244	125
242.308	1453
242.372	-281
242.436	1200
242.501	611
242.565	181
242.629	-142
242.693	1358
242.757	11
242.822	618
242.886	662
242.950	1419
243.014	-476
243.078	1258
243.142	249
243.206	749
243.271	969
243.335	267
243.399	1043
243.463	2953
243.527	10437
243.591	2979
243.655	1114
243.719	327
243.783	1618
243.847	1725
243.911	1180
243.975	598
244.040	-172
244.104	1807
244.168	634
244.232	520
244.296	686
244.360	1208
244.424	-512
244.488	1674
244.552	824
244.615	-1639
244.679	821
244.743	-56
244.807	-398
244.871	1352
244.935	944
244.999	-956
245.063	73
245.127	1404
245.191	861
245.255	1207
245.319	889
245.383	-372
245.446	1781
245.510	-503
245.574	684
245.638	534
245.702	-295
245.766	2528
245.829	2006
245.893	-66
245.957	-372
246.021	661
246.085	177
246.149	1208
246.212	2421
246.276	2457
246.340	604
246.404	1872
246.467	1033
246.531	764
246.595	1997
246.659	1446
246.722	-503
246.786	1305
246.850	1712
246.913	1182
246.977	-62
247.041	1483
247.104	618
247.168	828
247.232	1508
247.295	4335
247.359	2246
247.423	1289
247.486	799
247.550	2000
247.614	416
247.677	1170
247.741	786
247.804	595
247.868	1976
247.932	1052
247.995	4437
248.059	811
248.122	-375
248.186	2152
248.249	1722
248.313	6817
248.376	7143
248.440	4111
248.503	726
248.567	1794
248.630	781
248.694	2347
248.757	3070
248.821	7657
248.884	4976
248.948	2508
249.011	5449
249.075	7775
249.138	7030
249.202	2573
249.265	1508
249.328	2126
249.392	444
249.455	2149
249.519	1567
249.582	1519
249.645	2451
249.709	1646
249.772	1225
249.835	1491
249.899	769
249.962	1761
250.025	322
250.089	1957
250.152	3858
250.215	1842
250.279	1031
250.342	1862
250.405	1530
250.468	769
250.532	1372
250.595	3314
250.658	8193
250.721	18436
250.785	5529
250.848	4901
250.911	965
250.974	2409
251.038	1776
251.101	4789
251.164	2138
251.227	2958
251.290	2277
251.354	3682
251.417	13783
251.480	15676
251.543	8075
251.606	26780
251.669	20880
251.732	7106
251.795	7058
251.859	7010
251.922	16352
251.985	11024
252.048	4864
252.111	2476
252.174	573
252.237	4204
252.300	8705
252.363	8074
252.426	22979
252.489	8030
252.552	3577
252.615	2528
252.678	3570
252.741	6886
252.804	7749
252.867	23925
252.930	11501
252.993	6755
253.056	3840
253.119	2565
253.182	1484
253.245	2640
253.308	2248
253.371	1304
253.434	1830
253.497	1714
253.559	4411
253.622	1964
253.685	3115
253.748	2895
253.811	1917
253.874	2821
253.937	929
254.000	1161
254.062	2924
254.125	4809
254.188	4577
254.251	4147
254.314	517
254.376	2312
254.439	3907
254.502	2418
254.565	1885
254.628	5034
254.690	2077
254.753	1204
254.816	874
254.878	1592
254.941	2763
255.004	3706
255.067	1717
255.129	924
255.192	955
255.255	2
255.317	1150
255.380	1078
255.443	1053
255.505	940
255.568	408
255.631	375
255.693	1600
255.756	1059
255.819	2368
255.881	2117
255.944	1211
256.006	899
256.069	415
256.132	575
256.194	912
256.257	1077
256.319	1017
256.382	1146
256.444	2833
256.507	1445
256.569	799
256.632	1061
256.694	594
256.757	4237
256.819	15019
256.882	5062
256.944	2144
257.007	1978
257.069	636
257.132	777
257.194	2087
257.257	825
257.319	380
257.381	1113
257.444	3830
257.506	15522
257.569	17787
257.631	6598
257.693	3460
257.756	1880
257.818	572
257.880	722
257.943	1799
258.005	722
258.067	741
258.130	1774
258.192	432
258.254	1866
258.317	735
258.379	1621
258.441	2242
258.503	3413
258.566	1417
258.628	3409
258.690	1391
258.753	2172
258.815	2183
258.877	1094
258.939	890
259.001	2052
259.064	516
259.126	969
259.188	866
259.250	2556
259.312	1331
259.375	2884
259.437	1641
259.499	1421
259.561	1134
259.623	1223
259.685	-27
259.747	1109
259.809	1808
259.872	3882
259.934	5362
259.996	7913
260.058	3410
260.120	1169
260.182	1446
260.244	865
260.306	848
260.368	2517
260.430	816
260.492	2741
260.554	5312
260.616	2422
260.678	3178
260.740	4352
260.802	801
260.864	2030
260.926	128
260.988	2428
261.050	1504
261.112	3779
261.174	8355
261.236	3847
261.298	2073
261.359	2863
261.421	3066
261.483	1155
261.545	2197
261.607	-67
261.669	1699
261.731	2145
261.793	3583
261.854	1427
261.916	2913
261.978	1338
262.040	2037
262.102	2494
262.164	755
262.225	1640
262.287	1542
262.349	1807
262.411	1962
262.472	2525
262.534	581
262.596	1583
262.658	1642
262.719	1088
262.781	1673
262.843	1826
262.904	1782
262.966	2579
263.028	2030
263.090	4164
263.151	12366
263.213	6592
263.275	3696
263.336	2375
263.398	2384
263.459	629
263.521	1963
263.583	3391
263.644	2806
263.706	1416
263.767	1004
263.829	1779
263.891	920
263.952	1137
264.014	-61
264.075	2283
264.137	6370
264.198	2988
264.260	260
264.321	1436
264.383	2072
264.444	8982
264.506	2559
264.567	1364
264.629	3524
264.690	7689
264.752	3028
264.813	1509
264.875	704
264.936	2049
264.998	1307
265.059	2113
265.120	1651
265.182	1561
265.243	5036
265.305	7781
265.366	2464
265.427	1269
265.489	1503
265.550	1105
265.611	1073
265.673	1150
265.734	1420
265.795	1152
265.857	413
265.918	810
265.979	2566
266.040	11054
266.102	9794
266.163	4911
266.224	2905
266.286	2289
266.347	1378
266.408	1709
266.469	1906
266.530	1868
266.592	1435
266.653	1768
266.714	2049
266.775	1507
266.836	952
266.898	979
266.959	2468
267.020	1789
267.081	2277
267.142	2015
267.203	1533
267.264	1654
267.326	1750
267.387	1557
267.448	850
267.509	1793
267.570	1419
267.631	1301
267.692	1225
267.753	1726
267.814	229
267.875	1820
267.936	3076
267.997	2614
268.058	2177
268.119	670
268.180	728
268.241	472
268.302	977
268.363	1181
268.424	1024
268.485	1765
268.546	598
268.607	1167
268.668	-129
268.729	624
268.790	1410
268.851	1461
268.912	2478
268.972	2851
269.033	846
269.094	-169
269.155	1006
269.216	765
269.277	140
269.338	1573
269.398	421
269.459	618
269.520	1256
269.581	637
269.642	1005
269.702	1427
269.763	826
269.824	1072
269.885	597
269.945	1667
270.006	1600
270.067	482
270.128	283
270.188	230
270.249	420
270.310	761
270.370	901
270.431	701
270.492	371
270.553	367
270.613	1345
270.674	3763
270.734	730
270.795	1524
270.856	1475
270.916	1220
270.977	567
271.038	1745
271.098	1237
271.159	1513
271.219	1418
271.280	1117
271.340	424
271.401	887
271.462	1204
271.522	1960
271.583	1248
271.643	1098
271.704	467
271.764	2233
271.825	2094
271.885	7422
271.946	9886
272.006	4142
272.066	4197
272.127	9365
272.187	7432
272.248	4218
272.308	1929
272.369	6316
272.429	3021
272.489	2994
272.550	2877
272.610	3882
272.671	2113
272.731	2381
272.791	2295
272.852	2274
272.912	2119
272.972	2566
273.033	2161
273.093	2851
273.153	3540
273.214	3103
273.274	3397
273.334	7276
273.394	10829
273.455	5955
273.515	5542
273.575	8815
273.635	5592
273.696	7136
273.756	9453
273.816	5951
273.876	5163
273.936	4575
273.997	5769
274.057	2960
274.117	2507
274.177	4111
274.237	9416
274.297	9795
274.358	4745
274.418	5444
274.478	5036
274.538	2612
274.598	1174
274.658	3994
274.718	4030
274.778	2178
274.838	1828
274.898	2364
274.958	4419
275.018	7900
275.078	5162
275.138	2579
275.198	1123
275.258	1762
275.318	1414
275.378	2399
275.438	2648
275.498	2052
275.558	3024
275.618	6390
275.678	5562
275.738	4336
275.798	3631
275.858	3001
275.918	1676
275.978	2262
276.038	2254
276.098	2172
276.157	1720
276.217	5508
276.277	2905
276.337	2042
276.397	1774
276.457	1888
276.517	2017
276.576	1966
276.636	1895
276.696	2152
276.756	2494
276.815	3078
276.875	3219
276.935	2044
276.995	2008
277.055	2068
277.114	2235
277.174	2555
277.234	4382
277.293	3403
277.353	1435
277.413	1628
277.472	1374
277.532	3118
277.592	3535
277.651	11642
277.711	22418
277.771	8387
277.830	22321
277.890	20954
277.950	14965
278.009	40111
278.069	19750
278.128	17425
278.188	25395
278.248	12928
278.307	25768
278.367	18503
278.426	6481
278.486	3693
278.545	4194
278.605	3720
278.664	2792
278.724	3646
278.783	4211
278.843	10301
278.902	5041
278.962	3558
279.021	4410
279.081	7000
279.140	7051
279.199	5830
279.259	4734
279.318	7226
279.378	9288
279.437	13218
279.496	30882
279.556	99558
279.615	87641
279.675	29546
279.734	15333
279.793	15739
279.853	19397
279.912	10615
279.971	8243
280.031	7424
280.090	9537
280.149	16393
280.208	16977
280.268	68835
280.327	76825
280.386	23645
280.445	12835
280.505	9090
280.564	6556
280.623	5861
280.682	4694
280.742	7332
280.801	3978
280.860	3716
280.919	3453
280.978	3882
281.037	3125
281.097	2660
281.156	4849
281.215	3428
281.274	3154
281.333	7171
281.392	6012
281.451	3508
281.510	2321
281.569	2786
281.628	2620
281.688	3100
281.747	3068
281.806	2117
281.865	2301
281.924	1758
281.983	2160
282.042	2222
282.101	1815
282.160	2790
282.219	2657
282.278	2116
282.337	3643
282.396	3695
282.454	2529
282.513	3137
282.572	5458
282.631	5136
282.690	2428
282.749	2868
282.808	2980
282.867	2822
282.926	2878
282.985	3625
283.043	2666
283.102	3065
283.161	2489
283.220	4852
283.279	7957
283.338	3787
283.396	2873
283.455	4102
283.514	3401
283.573	4965
283.631	3893
283.690	5466
283.749	3607
283.808	5154
283.866	5003
283.925	4801
283.984	4765
284.043	6160
284.101	5890
284.160	5176
284.219	6722
284.277	7175
284.336	6774
284.395	11905
284.453	12166
284.512	10138
284.570	11418
284.629	13438
284.688	15585
284.746	19009
284.805	21592
284.863	28194
284.922	34761
284.981	42529
285.039	53862
285.098	70551
285.156	77667
285.215	57738
285.273	48699
285.332	74635
285.390	76169
285.449	60393
285.507	46786
285.566	36957
285.624	29356
285.683	23503
285.741	18723
285.799	16502
285.858	14605
285.916	12530
285.975	10921
286.033	9929
286.091	9148
286.150	8281
286.208	6858
286.267	7315
286.325	6706
286.383	7144
286.442	6296
286.500	5486
286.558	4698
286.616	4064
286.675	5327
286.733	5230
286.791	3631
286.850	4998
286.908	3947
286.966	5163
287.024	3746
287.083	3358
287.141	2806
287.199	4611
287.257	3811
287.315	4050
287.374	3768
287.432	4414
287.490	3681
287.548	3531
287.606	2169
287.664	2884
287.723	3287
287.781	3486
287.839	3684
287.897	4020
287.955	3565
288.013	4478
288.071	6261
288.129	20573
288.187	67953
288.245	31952
288.303	9410
288.361	6165
288.419	4025
288.477	4521
288.535	3087
288.593	3234
288.651	3007
288.709	2401
288.767	2971
288.825	2201
288.883	2821
288.941	3085
288.999	2064
289.057	2093
289.115	2036
289.173	1913
289.231	1843
289.289	1328
289.346	1271
289.404	2902
289.462	2815
289.520	2641
289.578	2073
289.636	2116
289.694	1741
289.751	1661
289.809	1724
289.867	2549
289.925	2282
289.983	2676
290.040	2293
290.098	2076
290.156	1580
290.214	2402
290.271	2355
290.329	2356
290.387	2607
290.444	2265
290.502	1152
290.560	2600
290.617	2066
290.675	1463
290.733	1487
290.790	1806
290.848	1143
290.906	1805
290.963	1652
291.021	1916
291.078	1880
291.136	1824
291.194	5147
291.251	8914
291.309	3986
291.366	2248
291.424	1988
291.481	1895
291.539	2771
291.596	3886
291.654	2019
291.711	2288
291.769	1788
291.826	2953
291.884	2557
291.941	1395
291.999	1767
292.056	2218
292.114	1876
292.171	2204
292.228	2678
292.286	2949
292.343	1503
292.401	2298
292.458	1929
292.515	2446
292.573	3072
292.630	2387
292.687	1980
292.745	1803
292.802	2099
292.859	6824
292.917	8254
292.974	5061
293.031	2890
293.089	2002
293.146	1679
293.203	1653
293.260	2146
293.318	2295
293.375	3653
293.432	2583
293.489	2240
293.546	2441
293.604	3085
293.661	5360
293.718	12408
293.775	8035
293.832	6162
293.889	7238
293.947	5408
294.004	2941
294.061	3652
294.118	4422
294.175	8985
294.232	17372
294.289	8778
294.346	4436
294.403	3460
294.460	2447
294.517	2376
294.574	2406
294.631	2708
294.688	3201
294.745	3837
294.802	13188
294.859	18398
294.916	7858
294.973	3265
295.030	2890
295.087	2290
295.144	2384
295.201	3109
295.258	1743
295.315	2312
295.372	3966
295.429	8838
295.486	4756
295.542	3206
295.599	8169
295.656	16186
295.713	9377
295.770	9700
295.827	4768
295.883	2745
295.940	3015
295.997	2917
296.054	2806
296.111	2245
296.167	3109
296.224	1595
296.281	1914
296.338	1806
296.394	2589
296.451	1875
296.508	4753
296.564	7948
296.621	6563
296.678	8745
296.734	13686
296.791	6882
296.848	4201
296.904	3270
296.961	5453
297.018	9363
297.074	8218
297.131	3564
297.187	3671
297.244	3023
297.301	8349
297.357	16052
297.414	7536
297.470	3683
297.527	2907
297.583	2079
297.640	2828
297.696	1995
297.753	1945
297.809	1643
297.866	966
297.922	1978
297.979	2052
298.035	717
298.092	2276
298.148	5270
298.204	6631
298.261	3254
298.317	5410
298.374	12297
298.430	8190
298.486	2991
298.543	2861
298.599	2201
298.656	2767
298.712	3534
298.768	7057
298.824	5275
298.881	3045
298.937	2818
298.993	1706
299.050	2187
299.106	3383
299.162	2041
299.218	2717
299.275	2097
299.331	3074
299.387	3888
299.443	11288
299.500	21934
299.556	16626
299.612	6564
299.668	5932
299.724	13477
299.780	18934
299.837	7149
299.893	6046
299.949	14399
300.005	22844
300.061	16342
300.117	26825
300.173	13895
300.229	6321
300.285	4722
300.341	6199
300.397	3833
300.453	3224
300.510	3332
300.566	4561
300.622	6211
300.678	21379
300.734	30954
300.790	17418
300.845	13790
300.901	14648
300.957	22695
301.013	13328
301.069	5769
301.125	4491
301.181	2979
301.237	3865
301.293	2300
301.349	2446
301.405	1773
301.461	2099
301.516	2225
301.572	2206
301.628	2360
301.684	2910
301.740	3313
301.796	5508
301.851	4535
301.907	5521
301.963	5987
302.019	8685
302.074	23705
302.130	26682
302.186	12569
302.242	5776
302.297	3269
302.353	3300
302.409	6301
302.464	5692
302.520	4841
302.576	9093
302.631	10982
302.687	6947
302.743	3341
302.798	2557
302.854	2069
302.910	2551
302.965	2651
303.021	3790
303.076	3313
303.132	3384
303.187	4897
303.243	3686
303.299	1838
303.354	2077
303.410	2180
303.465	2169
303.521	1781
303.576	2195
303.632	2113
303.687	3655
303.743	8607
303.798	7902
303.853	4648
303.909	2190
303.964	2320
304.020	2661
304.075	3688
304.130	3744
304.186	4752
304.241	6477
304.297	4852
304.352	3769
304.358	3596
304.407	2191
304.449	2688
304.463	2857
304.518	1810
304.539	2034
304.573	2375
304.629	2164
304.630	2190
304.684	3489
304.720	5525
304.739	6525
304.794	10984
304.811	9574
304.850	6151
304.902	3472
304.905	3307
304.960	2231
304.992	2587
305.015	2831
305.071	2344
305.083	2506
305.126	3094
305.173	1992
305.181	1813
305.236	2287
305.264	1938
305.292	1559
305.347	2584
305.354	2575
305.402	2589
305.445	2474
305.457	2435
305.512	3229
305.535	3425
305.567	3656
305.622	1960
305.626	2029
305.678	3810
305.716	6904
305.733	7932
305.788	10482
305.807	8948
305.843	6385
305.897	8859
305.898	8884
305.953	9320
305.988	6957
306.008	5743
306.063	3184
306.078	2962
306.118	2521
306.168	2376
306.173	2367
306.228	2295
306.259	2194
306.283	2042
306.338	2054
306.349	2076
306.393	2265
306.440	2491
306.448	2527
306.503	2782
306.530	2636
306.558	2777
306.613	4526
306.620	4926
306.668	7487
306.711	8335
306.723	8238
306.778	7518
306.801	5917
306.833	4136
306.888	3246
306.892	3178
306.943	2697
306.982	2801
306.997	2795
307.052	2493
307.072	2571
307.107	2856
307.162	3095
307.163	3103
307.217	4011
307.253	4515
307.272	4602
307.327	5023
307.343	4592
307.381	3909
307.434	3946
307.436	4003
307.491	5738
307.524	8211
307.546	8904
307.600	8321
307.614	7453
307.655	5261
307.704	3984
307.710	3936
307.765	4371
307.795	4866
307.819	5327
307.874	8083
307.885	8090
307.929	7214
307.975	6632
307.984	6763
308.038	7219
308.065	8251
308.093	13669
308.148	27692
308.156	31440
308.202	51577
308.246	65905
308.257	64537
308.312	33546
308.336	21890
308.366	15709
308.421	10420
308.426	9954
308.475	7479
308.517	6731
308.530	6521
308.585	6110
308.607	6090
308.639	6356
308.694	6426
308.697	6503
308.748	9443
308.787	11985
308.803	12023
308.857	10784
308.877	9989
308.912	10045
308.967	10926
308.967	10956
309.021	16632
309.058	21711
309.076	25379
309.130	38077
309.148	42249
309.185	63422
309.238	99281
309.239	99670
309.293	119009
309.328	118010
309.348	105596
309.402	60969
309.418	49044
309.457	37638
309.508	27644
309.511	27620
309.566	31035
309.598	34923
309.620	43861
309.674	71560
309.688	78957
309.729	77567
309.778	65557
309.783	63907
309.837	41416
309.868	29330
309.892	25537
309.946	19999
309.959	19242
310.001	18608
310.049	18000
310.055	17499
310.109	12445
310.139	9408
310.163	8019
310.218	6071
310.229	5810
310.272	5740
310.319	5421
310.326	5301
310.381	4624
310.409	4362
310.435	4218
310.489	3858
310.499	3817
310.543	4032
310.589	4261
310.598	4192
310.652	3830
310.679	3643
310.706	3520
310.760	3332
310.769	3277
310.814	3401
310.859	3586
310.868	3560
310.923	3367
310.948	3328
310.977	3400
311.031	3544
311.038	3585
311.085	3514
311.128	3124
311.139	3125
311.193	3343
311.218	3411
311.247	3439
311.301	3587
311.308	3597
311.356	3321
311.398	3023
311.410	2972
311.464	2809
311.488	2713
311.518	2799
311.572	3035
311.578	3046
311.626	3036
311.668	3147
311.680	3249
311.734	3623
311.758	3809
311.788	3663
311.842	3394
311.847	3362
311.896	4263
311.937	5094
311.950	4913
312.004	4112
312.027	3739
312.058	3467
312.112	3017
312.117	2975
312.165	2963
312.207	2963
312.297	3451
312.386	3540
312.476	3395
312.566	4378
312.656	3030
312.745	2703
312.835	3533
312.925	3296
313.015	3039
313.104	3467
313.194	3300
313.284	3500
313.374	3464
313.463	4386
313.553	4576
313.643	3311
313.732	4100
313.822	4304
313.912	4712
314.001	6279
314.091	5020
314.180	5871
314.270	5659
314.360	5722
314.449	4364
314.539	4711
314.628	4878
314.718	4970
314.808	5561
314.897	5606
314.987	6208
315.076	7182
315.166	5936
315.255	6451
315.345	5651
315.434	4734
315.524	5088
315.613	5481
315.703	7134
315.792	20044
315.881	70687
315.971	21721
316.060	8226
316.150	7809
316.239	7394
316.328	5270
316.418	5249
316.507	5338
316.597	6088
316.686	6312
316.775	6606
316.865	7904
316.954	5252
317.043	5407
317.133	4458
317.222	3521
317.311	4121
317.400	2466
317.490	5267
317.579	5366
317.668	6344
317.757	11140
317.847	32610
317.936	107979
318.025	30068
318.114	26398
318.203	11501
318.293	6706
318.382	9950
318.471	9890
318.560	11958
318.649	20655
318.738	6850
318.828	4836
318.917	3694
319.006	4863
319.095	8362
319.184	21909
319.273	10738
319.362	5894
319.451	3932
319.540	3485
319.629	4264
319.718	6221
319.807	4566
319.896	9341
319.985	28434
320.074	9576
320.163	4632
320.252	4702
320.341	5310
320.430	5123
320.519	5010
320.608	4755
320.697	5698
320.786	6672
320.875	7403
320.964	7999
321.053	8426
321.142	10869
321.230	10389
321.319	12452
321.408	16851
321.497	14083
321.586	10892
321.675	10673
321.764	10513
321.852	9009
321.941	10033
322.030	9166
322.119	11199
322.207	15234
322.296	16000
322.385	15039
322.474	18348
322.562	22835
322.651	14701
322.740	11884
322.829	11372
322.917	10387
323.006	8114
323.095	7700
323.183	6396
323.272	7406
323.361	9766
323.449	21948
323.538	9500
323.626	16224
323.715	9942
323.804	6437
323.892	13232
323.981	7879
324.069	4894
324.158	9971
324.246	8546
324.335	4658
324.424	5448
324.512	4299
324.601	3852
324.689	4690
324.778	5315
324.866	6892
324.954	3464
325.043	3844
325.131	4227
325.220	6994
325.308	7586
325.397	5426
325.485	3926
325.574	3178
325.662	3618
325.750	3621
325.839	3668
325.927	3785
326.015	3639
326.104	4603
326.192	5083
326.280	2914
326.369	3003
326.457	3861
326.545	4506
326.634	3916
326.722	3588
326.810	3968
326.898	4338
326.987	3845
327.075	4461
327.163	5264
327.251	4126
327.340	4333
327.428	5924
327.516	6918
327.604	4850
327.692	4697
327.781	4028
327.869	4205
327.957	3880
328.045	4077
328.133	3890
328.221	3217
328.309	3206
328.397	3104
328.485	4246
328.574	7111
328.662	11231
328.750	7380
328.838	4384
328.926	3193
329.014	3357
329.102	3710
329.190	6263
329.278	4330
329.366	3568
329.454	3072
329.542	2017
329.630	2429
329.718	4004
329.806	3323
329.893	3399
329.981	3215
330.069	3855
330.157	4845
330.245	8429
330.333	4918
330.421	3271
330.509	4139
330.597	6963
330.684	5104
330.772	3749
330.860	4752
330.948	6179
331.036	3288
331.123	3406
331.211	3573
331.299	3470
331.387	5459
331.475	7333
331.562	3863
331.650	3034
331.738	3994
331.825	3668
331.913	2621
332.001	3484
332.089	3580
332.176	4608
332.264	7795
332.352	6026
332.439	4216
332.527	3779
332.614	3693
332.702	4784
332.790	4277
332.877	6045
332.965	14019
333.052	9584
333.140	11378
333.228	29010
333.315	8505
333.403	5474
333.490	7773
333.578	13137
333.665	41173
333.753	17027
333.840	5113
333.928	6516
334.015	8600
334.103	13583
334.190	31393
334.278	16920
334.365	18430
334.452	17976
334.540	11053
334.627	10728
334.715	14762
334.802	22204
334.889	50559
334.977	61147
335.064	28749
335.151	14187
335.239	10953
335.326	10204
335.413	21975
335.501	24332
335.588	8863
335.675	10268
335.762	12748
335.850	16953
335.937	23759
336.024	41368
336.111	82209
336.199	62236
336.286	26729
336.373	14647
336.460	9291
336.547	8266
336.635	7868
336.722	6215
336.809	5587
336.896	6145
336.983	11305
337.070	22950
337.157	31718
337.245	19901
337.332	13424
337.419	5207
337.506	4857
337.593	5289
337.680	9902
337.767	20450
337.854	8025
337.941	8056
338.028	7172
338.115	3939
338.202	6005
338.289	7304
338.376	17035
338.463	7957
338.550	13565
338.637	13536
338.724	4971
338.811	6509
338.898	4396
338.984	3895
339.071	3031
339.158	4482
339.245	5146
339.332	5053
339.419	5532
339.506	5129
339.593	2897
339.679	3133
339.766	3332
339.853	4566
339.940	5006
340.027	3216
340.113	3143
340.200	3880
340.287	3292
340.374	3114
340.460	4265
340.547	3235
340.634	4546
340.720	8412
340.807	4390
340.894	3362
340.980	3104
341.067	3362
341.154	4597
341.240	4230
341.327	4630
341.414	3583
341.500	3348
341.587	3783
341.674	3833
341.760	5131
341.847	4345
341.933	3870
342.020	2235
342.106	2814
342.193	3078
342.279	4049
342.366	3121
342.452	4575
342.539	3012
342.625	4713
342.712	7009
342.798	4164
342.885	3266
342.971	2684
343.058	3301
343.144	2754
343.230	2932
343.317	3278
343.403	2688
343.490	3375
343.576	2884
343.662	2837
343.749	3206
343.835	3355
343.921	4654
344.008	18577
344.094	37892
344.180	9212
344.267	4595
344.353	9913
344.439	9745
344.525	4890
344.612	5114
344.698	4008
344.784	2763
344.870	3701
344.957	2687
345.043	3778
345.129	2424
345.215	4059
345.301	3490
345.387	2915
345.474	3100
345.560	2439
345.646	3117
345.732	3699
345.818	2281
345.904	2695
345.990	3871
346.076	3624
346.162	3718
346.249	3731
346.335	3257
346.421	3641
346.507	6295
346.593	15219
346.679	4545
346.765	4959
346.851	6933
346.937	4857
347.023	4447
347.108	4116
347.194	3052
347.280	3753
347.366	5689
347.452	14675
347.538	26502
347.624	15457
347.710	10626
347.796	4300
347.882	4786
347.967	3931
348.053	4561
348.139	4124
348.225	2985
348.311	2663
348.397	3716
348.482	3520
348.568	3968
348.654	5442
348.740	17948
348.825	17482
348.911	7950
348.997	11319
349.083	18001
349.168	4800
349.254	3413
349.340	3253
349.425	3071
349.511	3730
349.597	3629
349.682	4156
349.768	10487
349.854	5453
349.939	3647
350.025	3536
350.110	3700
350.196	3620
350.282	2998
350.367	4463
350.453	4431
350.538	3824
350.624	3578
350.709	3888
350.795	3398
350.880	2563
350.966	3917
351.051	3656
351.137	3418
351.222	3106
351.308	5099
351.393	7521
351.479	4062
351.564	2695
351.649	3971
351.735	2916
351.820	2805
351.906	2747
351.991	2897
352.076	5797
352.162	8286
352.247	3991
352.332	3983
352.418	3204
352.503	4617
352.588	11165
352.673	8262
352.759	4255
352.844	3001
352.929	3188
353.014	2427
353.100	4133
353.185	4635
353.270	4287
353.355	4116
353.441	3544
353.526	3350
353.611	4286
353.696	4388
353.781	4182
353.866	2989
353.952	3554
354.037	4267
354.122	6414
354.207	5344
354.292	4030
354.377	3762
354.462	3316
354.547	2944
354.632	3862
354.717	4448
354.802	4850
354.887	3476
354.972	3054
355.057	3033
355.142	3394
355.227	3483
355.312	4229
355.397	4601
355.482	7300
355.567	5266
355.652	5826
355.737	4893
355.822	11590
355.907	8881
355.991	4497
356.076	2708
356.161	4287
356.246	3720
356.331	3688
356.416	4390
356.501	21432
356.585	20098
356.670	4038
356.755	5708
356.840	5974
356.924	15119
357.009	44774
357.094	16507
357.179	5074
357.263	3817
357.348	4535
357.433	5391
357.517	3861
357.602	3541
357.687	3192
357.771	4529
357.856	6110
357.941	5484
358.025	13416
358.110	48027
358.195	21822
358.279	5635
358.364	5352
358.448	8168
358.533	18408
358.617	12584
358.702	13598
358.787	6281
358.871	4998
358.956	5213
359.040	4145
359.125	3693
359.209	3626
359.294	5239
359.378	7990
359.462	6144
359.547	4567
359.631	3978
359.716	3181
359.800	3666
359.885	5277
359.969	2981
360.053	4304
360.138	3837
360.222	3421
360.306	5176
360.391	4367
360.475	4708
360.559	7466
360.644	7433
360.728	5864
360.812	13779
360.896	30320
360.981	12531
361.065	7143
361.149	4902
361.233	4181
361.318	3680
361.402	4222
361.486	5310
361.570	4379
361.654	5541
361.739	6261
361.823	21206
361.907	32448
361.991	8206
362.075	8312
362.159	11250
362.243	19592
362.327	45849
362.411	70980
362.495	27726
362.580	13258
362.664	11571
362.748	12779
362.832	20085
362.916	39666
363.000	118424
363.084	174576
363.168	85329
363.252	24350
363.336	13893
363.420	12355
363.503	28007
363.587	28319
363.671	9823
363.755	7859
363.839	9881
363.923	8822
364.007	13094
364.091	16310
364.175	28451
364.258	77826
364.342	140162
364.426	240787
364.510	127891
364.594	39205
364.677	21699
364.761	33145
364.845	23897
364.929	8857
365.013	8247
365.096	7640
365.180	6599
365.264	13300
365.347	38315
365.431	15898
365.515	6014
365.598	4464
365.682	6750
365.766	5101
365.849	7671
365.933	5297
366.017	6735
366.100	4486
366.184	3934
366.267	5242
366.351	4641
366.435	4083
366.518	4118
366.602	4520
366.685	4746
366.769	4910
366.852	5968
366.936	6275
367.019	4728
367.103	4513
367.186	8529
367.270	5333
367.353	4730
367.436	6553
367.520	5126
367.603	6089
367.687	5125
367.770	6363
367.853	6480
367.937	11197
368.020	13295
368.104	5787
368.187	5687
368.270	6317
368.353	4598
368.437	6697
368.520	10949
368.603	7412
368.687	9648
368.770	15099
368.853	6386
368.936	6247
369.020	6902
369.103	3497
369.186	3301
369.269	3742
369.352	4233
369.436	4865
369.519	5184
369.602	2959
369.685	5305
369.768	3206
369.851	3842
369.934	3411
370.018	3958
370.101	4900
370.184	6533
370.267	5254
370.350	4984
370.433	7300
370.516	20983
370.599	45822
370.682	18758
370.765	11397
370.848	12681
370.931	19427
371.014	10410
371.097	4752
371.180	5248
371.263	5100
371.346	3992
371.429	6084
371.511	5070
371.594	5506
371.677	7809
371.760	9820
371.843	7584
371.926	21470
372.009	41186
372.091	20042
372.174	13654
372.257	24909
372.340	12867
372.423	11632
372.505	13320
372.588	6810
372.671	9551
372.754	19751
372.836	13149
372.919	14465
373.002	22123
373.085	9274
373.167	9614
373.250	11164
373.332	20364
373.415	29170
373.498	53707
373.580	26618
373.663	66634
373.746	68137
373.828	13778
373.911	8866
373.993	8162
374.076	22313
374.159	18033
374.241	8930
374.324	16615
374.406	12859
374.489	18211
374.571	43817
374.654	17927
374.736	12024
374.819	29090
374.901	40401
374.983	40531
375.066	12243
375.148	8682
375.231	20718
375.313	31925
375.395	14096
375.478	6904
375.560	6820
375.643	6750
375.725	12526
375.807	36509
375.890	28371
375.972	11067
376.054	8600
376.136	10560
376.219	7136
376.301	12393
376.383	28366
376.465	12528
376.548	7457
376.630	9621
376.712	23284
376.794	11925
376.877	4677
376.959	3103
377.041	4483
377.123	5772
377.205	6708
377.287	4312
377.369	5299
377.452	4610
377.534	4572
377.616	3669
377.698	4041
377.780	3771
377.862	3745
377.944	5113
378.026	3343
378.108	4897
378.190	4040
378.272	5560
378.354	4408
378.436	3807
378.518	4098
378.600	8828
378.682	7300
378.764	10649
378.846	9240
378.928	5271
379.010	5119
379.091	4973
379.173	4209
379.255	3098
379.337	3748
379.419	6852
379.501	14917
379.583	8857
379.664	4902
379.746	5204
379.828	11904
379.910	14136
379.991	13859
380.073	4523
380.155	4595
380.237	4029
380.318	4558
380.400	3810
380.482	6589
380.564	6733
380.645	6352
380.727	5599
380.809	6422
380.890	5433
380.972	3812
381.053	5743
381.135	6831
381.217	6437
381.298	13619
381.380	8635
381.461	8400
381.543	23795
381.624	28909
381.706	8656
381.787	7375
381.869	9219
381.951	15765
382.032	44196
382.113	30113
382.195	9881
382.276	11416
382.358	14487
382.439	26580
382.521	32900
382.602	48821
382.684	31797
382.765	53347
382.846	120921
382.928	257838
383.009	150317
383.090	113232
383.172	309842
383.253	394569
383.334	143012
383.416	72192
383.497	50536
383.578	50086
383.659	97560
383.741	271477
383.822	496181
383.903	278854
383.984	88370
384.066	62920
384.147	37846
384.228	20565
384.309	17404
384.390	16788
384.471	14059
384.553	13343
384.634	12160
384.715	13259
384.796	11142
384.877	11575
384.958	17848
385.039	16848
385.120	11226
385.201	9968
385.282	10139
385.363	13194
385.444	14006
385.525	15163
385.606	23729
385.687	20694
385.768	11843
385.849	10981
385.930	25142
386.011	37271
386.092	14688
386.173	10664
386.254	9134
386.335	9129
386.416	7976
386.496	12006
386.577	14809
386.658	10341
386.739	7915
386.820	10572
386.901	9423
386.981	10630
387.062	11473
387.143	12548
387.224	18254
387.304	19762
387.385	15179
387.466	12326
387.547	15422
387.627	13828
387.708	16496
387.789	26666
387.869	28723
387.950	16028
388.031	10307
388.111	8645
388.192	12620
388.273	16176
388.353	11416
388.434	7691
388.514	8601
388.595	23175
388.676	24788
388.756	13125
388.837	12537
388.917	8991
388.998	5144
389.078	6785
389.159	5909
389.239	5178
389.320	7120
389.400	5071
389.480	9220
389.561	14876
389.641	10375
389.722	6258
389.802	6543
389.883	9000
389.963	17454
390.043	11811
390.124	6327
390.204	7705
390.284	12581
390.365	9833
390.445	15023
390.525	25498
390.605	20220
390.686	8493
390.766	8083
390.846	7868
390.927	5626
391.007	5130
391.087	7121
391.167	6390
391.247	5242
391.328	8282
391.408	8930
391.488	7920
391.568	5453
391.648	7085
391.728	9134
391.808	9814
391.888	8955
391.969	12993
392.049	15806
392.129	13570
392.209	14064
392.289	22697
392.369	17931
392.449	18638
392.529	17323
392.609	18730
392.689	21993
392.769	32003
392.849	35601
392.929	43032
393.009	64880
393.089	83167
393.169	146442
393.248	329726
393.328	630697
393.408	625841
393.488	327898
393.568	140811
393.648	73698
393.728	47259
393.807	32474
393.887	26933
393.967	21907
394.047	17915
394.127	16549
394.206	17122
394.286	33576
394.366	121083
394.446	123863
394.525	29734
394.605	13073
394.685	12981
394.764	19253
394.844	34240
394.924	32646
395.003	13748
395.083	9318
395.163	8717
395.242	8504
395.322	8438
395.402	7157
395.481	10511
395.561	16551
395.640	44103
395.720	67442
395.799	47895
395.879	26380
395.958	16487
396.038	40913
396.117	152190
396.197	161999
396.276	49380
396.356	26860
396.435	29326
396.515	34953
396.594	52733
396.673	109363
396.753	297687
396.832	571040
396.912	438853
396.991	160174
397.070	65864
397.150	37290
397.229	31725
397.308	53177
397.388	91426
397.467	43617
397.546	16338
397.625	10675
397.705	12035
397.784	9910
397.863	8724
397.942	8264
398.022	7267
398.101	13578
398.180	25773
398.259	13963
398.338	8519
398.417	5225
398.497	6212
398.576	5921
398.655	4816
398.734	4993
398.813	5622
398.892	11291
398.971	26555
399.050	12661
399.129	4528
399.208	4572
399.287	5233
399.366	3421
399.445	4072
399.524	4596
399.603	2475
399.682	4441
399.761	9345
399.840	27718
399.919	20537
399.998	4358
400.077	2699
400.156	2850
400.235	5357
400.313	3286
400.392	2567
400.471	6799
400.550	8185
400.629	2855
400.708	4156
400.786	3411
400.865	6375
400.944	5775
401.023	5390
401.102	2199
401.180	3030
401.259	3171
401.338	3202
401.416	3333
401.495	1925
401.574	3313
401.652	2612
401.731	3203
401.810	2167
401.888	1965
401.967	2227
402.046	2819
402.124	3351
402.203	2100
402.281	3541
402.360	3412
402.438	6705
402.517	4276
402.596	3942
402.674	2687
402.753	2171
402.831	2968
402.910	3697
402.988	6213
403.066	18399
403.145	11399
403.223	8394
403.302	14553
403.380	12095
403.459	11684
403.537	5714
403.615	3921
403.694	2584
403.772	4304
403.850	3764
403.929	3327
404.007	2178
404.085	4159
404.164	3981
404.242	3319
404.320	6156
404.398	13362
404.477	13349
404.555	29668
404.633	26710
404.711	11522
404.789	6711
404.868	3764
404.946	1769
405.024	2240
405.102	1756
405.180	1600
405.258	1447
405.336	2674
405.415	1562
405.493	2838
405.571	4195
405.649	1745
405.727	1644
405.805	4091
405.883	4198
405.961	4673
406.039	3489
406.117	1473
406.195	2284
406.273	5550
406.351	21360
406.429	13629
406.507	3441
406.585	2242
406.663	2133
406.740	2191
406.818	918
406.896	1557
406.974	3553
407.052	1970
407.130	12150
407.208	17089
407.285	4825
407.363	1203
407.441	1488
407.519	1686
407.596	2733
407.674	6591
407.752	24432
407.830	20311
407.907	5455
407.985	1941
408.063	2223
408.141	1511
408.218	3147
408.296	1652
408.373	2162
408.451	2500
408.529	2980
408.606	2560
408.684	3126
408.762	2810
408.839	3037
408.917	3834
408.994	3999
409.072	3761
409.149	5455
409.227	11613
409.304	15790
409.382	17041
409.459	18304
409.537	26280
409.614	22014
409.692	16389
409.769	17400
409.846	26384
409.924	31486
410.001	21659
410.079	14691
410.156	10591
410.233	8410
410.311	6444
410.388	5366
410.465	5828
410.543	4707
410.620	5270
410.697	4957
410.775	5230
410.852	3919
410.929	6124
411.006	5755
411.083	4978
411.161	5039
411.238	6068
411.315	4425
411.392	4061
411.469	4340
411.547	3262
411.624	2285
411.701	2189
411.778	2491
411.855	2967
411.932	2453
412.009	1651
412.086	2525
412.163	2978
412.240	2229
412.317	3080
412.394	2745
412.471	2273
412.548	1377
412.625	2187
412.702	2487
412.779	2361
412.856	2261
412.933	1991
413.010	2131
413.087	2794
413.164	4278
413.241	6813
413.318	2038
413.395	2913
413.471	2207
413.548	1662
413.625	1700
413.702	1088
413.779	1898
413.855	1479
413.932	650
414.009	817
414.086	2315
414.162	2066
414.239	1897
414.316	5192
414.393	9172
414.469	2958
414.546	1448
414.623	1822
414.699	1558
414.776	1281
414.853	939
414.929	2266
415.006	1940
415.082	2159
415.159	1470
415.236	940
415.312	2119
415.389	2511
415.465	2492
415.542	2131
415.618	1368
415.695	1681
415.771	812
415.848	892
415.924	1592
416.000	1467
416.077	2562
416.153	1215
416.230	272
416.306	1472
416.383	1234
416.459	1837
416.535	1259
416.612	1328
416.688	1359
416.764	1258
416.841	1862
416.917	2090
416.993	2100
417.069	2143
417.146	1640
417.222	1298
417.298	1721
417.374	947
417.451	2163
417.527	1286
417.603	1101
417.679	1103
417.755	1768
417.831	1411
417.908	1299
417.984	1390
418.060	1233
418.136	2353
418.212	1467
418.288	1538
418.364	1640
418.440	1047
418.516	2034
418.592	2157
418.668	2636
418.744	2855
418.820	2926
418.896	1364
418.972	1614
419.048	1289
419.124	2917
419.200	1089
419.276	1294
419.352	1450
419.428	2128
419.504	1058
419.579	1514
419.655	1906
419.731	2538
419.807	3442
419.883	3499
419.959	3563
420.034	2921
420.110	3288
420.186	7340
420.262	6571
420.337	3509
420.413	3183
420.489	3489
420.565	4398
420.640	3045
420.716	4175
420.792	2527
420.867	4999
420.943	4199
421.019	5801
421.094	5117
421.170	5544
421.245	5816
421.321	6554
421.397	7836
421.472	10934
421.548	20193
421.623	16089
421.699	10767
421.774	12457
421.850	12469
421.925	16428
422.001	19387
422.076	23599
422.152	28752
422.227	39941
422.302	54926
422.378	82844
422.453	134923
422.529	218636
422.604	259688
422.679	210698
422.755	250836
422.830	225687
422.905	142783
422.981	90953
423.056	63468
423.131	46036
423.207	35445
423.282	26081
423.357	22923
423.432	18350
423.508	16366
423.583	14539
423.658	13412
423.733	11616
423.808	10982
423.883	10922
423.959	11885
424.034	13282
424.109	12700
424.184	8386
424.259	7478
424.334	5453
424.409	4996
424.484	5283
424.559	5003
424.634	3731
424.709	4379
424.784	4293
424.859	2700
424.934	3357
425.009	5935
425.084	7767
425.159	3895
425.234	3738
425.309	2152
425.384	2902
425.459	2549
425.534	2842
425.609	2163
425.683	2640
425.758	2422
425.833	3115
425.908	2822
425.983	3545
426.058	7002
426.132	3849
426.207	2452
426.282	3939
426.357	2756
426.431	2046
426.506	1707
426.581	2532
426.655	2696
426.730	2105
426.805	830
426.879	2409
426.954	1785
427.029	1819
427.103	7301
427.178	16938
427.253	7169
427.327	2565
427.402	2732
427.476	3052
427.551	2198
427.625	2113
427.700	2381
427.774	401
427.849	2027
427.923	1995
427.998	2917
428.072	3204
428.147	8164
428.221	37850
428.296	108562
428.370	59214
428.444	8892
428.519	4637
428.593	5992
428.667	6317
428.742	8410
428.816	15661
428.890	67046
428.965	100508
429.039	26096
429.113	7787
429.188	3919
429.262	2341
429.336	3087
429.410	4169
429.485	3642
429.559	4834
429.633	4718
429.707	4235
429.781	13531
429.855	68569
429.930	92512
430.004	30426
430.078	28688
430.152	51359
430.226	143982
430.300	138137
430.374	29637
430.448	9261
430.522	10739
430.596	23310
430.670	27145
430.744	87965
430.818	95773
430.892	17591
430.966	3400
431.040	1964
431.114	937
431.188	1481
431.262	1431
431.336	923
431.410	3403
431.484	5115
431.557	3885
431.631	1759
431.705	5333
431.779	28495
431.853	103206
431.927	67237
432.000	8898
432.074	2971
432.148	1858
432.222	1117
432.295	1038
432.369	1282
432.443	401
432.516	7442
432.590	16753
432.664	5619
432.737	928
432.811	183
432.885	397
432.958	1114
433.032	-558
433.106	132
433.179	508
433.253	90
433.326	-88
433.400	436
433.473	599
433.547	-38
433.620	1287
433.694	169
433.767	1763
433.841	177
433.914	513
433.988	356
434.061	370
434.134	902
434.208	-549
434.281	-20
434.355	188
434.428	12
434.501	-218
434.575	254
434.648	-15
434.721	-341
434.795	510
434.868	280
434.941	-54
435.014	700
435.088	1713
435.161	2922
435.234	4307
435.307	3312
435.381	4579
435.454	7430
435.527	12298
435.600	13425
435.673	10317
435.746	7435
435.819	5275
435.892	3990
435.966	2170
436.039	1217
436.112	1348
436.185	878
436.258	219
436.331	401
436.404	332
436.477	679
436.550	213
436.623	622
436.696	147
436.769	398
436.842	447
436.915	385
436.987	739
437.060	1043
437.133	220
437.206	-2
437.279	313
437.352	15
437.425	-526
437.498	1065
437.570	1183
437.643	346
437.716	-38
437.789	-112
437.861	154
437.934	45
438.007	468
438.080	-564
438.152	180
438.225	1740
438.298	9512
438.370	26969
438.443	9389
438.516	1618
438.588	119
438.661	-20
438.734	119
438.806	171
438.879	244
438.951	495
439.024	320
439.096	152
439.169	-342
439.241	-622
439.314	-113
439.386	769
439.459	850
439.531	873
439.604	-56
439.676	594
439.749	-637
439.821	346
439.893	990
439.966	423
440.038	-233
440.110	354
440.183	-164
440.255	13
440.327	1409
440.400	3650
440.472	13560
440.544	8300
440.617	1555
440.689	1614
440.761	445
440.833	1022
440.905	477
440.978	177
441.050	48
441.122	1242
441.194	-135
441.266	446
441.338	-118
441.411	1460
441.483	3746
441.555	5444
441.627	1371
441.699	1544
441.771	1357
441.843	1242
441.915	663
441.987	642
442.059	1711
442.131	1957
442.203	2833
442.275	3372
442.347	6623
442.419	16909
442.491	83145
442.563	169480
442.635	66882
442.706	15375
442.778	7362
442.850	3320
442.922	3412
442.994	3637
443.066	3800
443.137	4376
443.209	6471
443.281	11454
443.353	25737
443.425	93561
443.496	256811
443.568	263137
443.640	108517
443.711	22852
443.783	8503
443.855	6297
443.926	4406
443.998	3194
444.070	3485
444.141	2509
444.213	2073
444.285	2062
444.356	2482
444.428	2090
444.499	1501
444.571	1483
444.642	1828
444.714	2322
444.785	2862
444.857	3594
444.928	5145
445.000	4300
445.071	6819
445.143	7762
445.214	10326
445.285	19731
445.357	53852
445.428	173842
445.500	301010
445.571	240915
445.642	158592
445.714	53049
445.785	19077
445.856	7215
445.928	5393
445.999	3459
446.070	3081
446.141	2645
446.213	2684
446.284	1741
446.355	2051
446.426	1554
446.497	687
446.569	1258
446.640	805
446.711	1691
446.782	726
446.853	802
446.924	484
446.995	-178
447.066	-407
447.138	1075
447.209	626
447.280	-463
447.351	90
447.422	-931
447.493	500
447.564	456
447.635	-154
447.706	-142
447.777	-339
447.847	-412
447.918	-580
447.989	580
448.060	504
448.131	1885
448.202	1699
448.273	84
448.344	-372
448.414	-533
448.485	-427
448.556	-202
448.627	-57
448.698	483
448.768	354
448.839	86
448.910	785
448.981	767
449.051	95
449.122	-602
449.193	-231
449.263	-162
449.334	-321
449.405	16
449.475	-558
449.546	677
449.616	1090
449.687	1229
449.758	-293
449.828	-224
449.899	-491
449.969	56
450.040	-621
450.110	-14
450.181	168
450.251	-492
450.322	-70
450.392	601
450.463	-136
450.533	-603
450.604	-729
450.674	-15
450.744	548
450.815	897
450.885	1009
450.955	751
451.026	1022
451.096	-38
451.166	-392
451.237	2611
451.307	4656
451.377	1796
451.447	-96
451.518	443
451.588	-63
451.658	-275
451.728	388
451.799	3559
451.869	3754
451.939	-55
452.009	276
452.079	131
452.149	260
452.219	1079
452.289	4655
452.360	3326
452.430	694
452.500	1167
452.570	3457
452.640	9935
452.710	27515
452.780	29713
452.850	13414
452.920	5220
452.990	2899
453.060	1941
453.129	1317
453.199	591
453.269	6121
453.339	10563
453.409	15031
453.479	17163
453.549	23631
453.619	22215
453.688	6279
453.758	725
453.828	622
453.898	74
453.968	-893
454.037	200
454.087	-103
454.107	-250
454.168	-159
454.177	-170
454.247	-19
454.249	1
454.316	-163
454.330	-36
454.386	316
454.411	649
454.456	933
454.492	1961
454.525	2863
454.574	1142
454.595	379
454.655	187
454.665	154
454.734	548
454.736	620
454.804	1574
454.817	2257
454.873	4428
454.898	4150
454.943	3505
454.979	1992
455.013	749
455.060	707
455.082	752
455.141	1841
455.152	1976
455.221	4019
455.222	4114
455.291	5681
455.303	5845
455.360	6384
455.384	9098
455.430	13244
455.465	10051
455.499	7087
455.546	5267
455.569	4174
455.627	2716
455.638	2521
455.707	181
455.708	209
455.777	468
455.789	478
455.846	460
455.869	640
455.916	895
455.950	772
455.985	598
456.031	821
456.054	896
456.112	679
456.124	647
456.193	1471
456.193	1447
456.262	1657
456.274	1752
456.332	1895
456.355	1847
456.401	1530
456.436	1387
456.470	1284
456.516	1176
456.540	1116
456.597	1004
456.609	950
456.678	1553
456.678	1529
456.747	1473
456.759	1490
456.817	1983
456.840	2147
456.886	2048
456.920	1772
456.955	1687
457.001	2090
457.024	2236
457.082	3071
457.093	3168
457.162	3177
457.163	3207
457.232	2791
457.243	2783
457.301	2712
457.324	2693
457.370	2760
457.405	3092
457.439	3564
457.485	4187
457.508	4399
457.566	5127
457.577	5638
457.646	8685
457.647	8778
457.715	23288
457.727	26453
457.784	46761
457.808	60606
457.853	73986
457.889	82439
457.922	77422
457.969	49681
457.991	51826
458.050	70022
458.060	73613
458.129	126199
458.130	127736
458.198	109384
458.211	96592
458.267	49448
458.292	32301
458.336	22934
458.372	23078
458.405	35653
458.453	57283
458.474	73396
458.533	130456
458.543	133577
458.611	188068
458.614	188899
458.680	102130
458.694	77420
458.749	33593
458.775	22516
458.818	13539
458.855	10620
458.887	9104
458.936	7336
458.955	6702
459.016	6072
459.024	6107
459.093	6813
459.097	6819
459.162	5442
459.177	5171
459.230	5039
459.257	5498
459.299	5751
459.338	5216
459.368	5067
459.418	5534
459.437	5469
459.499	4903
459.505	4898
459.574	4953
459.579	4966
459.643	4321
459.659	4251
459.711	4920
459.740	4937
459.780	4351
459.820	4582
459.849	5025
459.900	5810
459.917	5758
459.981	4812
459.986	4797
460.054	4744
460.061	4822
460.123	4724
460.141	4583
460.191	5219
460.222	5474
460.260	5132
460.302	5027
460.328	5084
460.382	5601
460.397	5715
460.462	5533
460.465	5704
460.534	10079
460.543	10738
460.602	25965
460.623	31616
460.671	47935
460.703	61774
460.739	52776
460.783	37420
460.808	30780
460.864	8653
460.876	7187
460.944	5736
460.945	5714
461.013	5324
461.024	5273
461.081	5049
461.104	5097
461.150	5111
461.184	5118
461.218	5277
461.264	5178
461.286	5071
461.345	5021
461.355	5000
461.423	4935
461.425	4927
461.491	5270
461.505	5503
461.559	7379
461.585	8146
461.628	11495
461.665	14651
461.696	15086
461.745	16125
461.764	14318
461.825	6797
461.832	6697
461.901	6308
461.905	6301
461.969	5264
461.985	5027
462.037	5584
462.065	6016
462.105	6303
462.145	6382
462.173	7495
462.225	9717
462.241	10286
462.305	12570
462.310	12293
462.378	7958
462.385	7414
462.446	6634
462.465	6585
462.514	6778
462.545	6641
462.582	6533
462.625	6489
462.650	6235
462.705	5826
462.718	5957
462.785	6562
462.786	6575
462.854	7037
462.865	7149
462.922	8572
462.945	9071
462.990	7567
463.025	6343
463.058	6218
463.104	6144
463.126	6104
463.184	6033
463.194	6154
463.262	6451
463.264	6482
463.330	6348
463.344	6218
463.398	6867
463.424	7173
463.466	6628
463.504	6307
463.533	6744
463.583	7096
463.601	7032
463.663	7044
463.669	7073
463.737	7231
463.743	7252
463.805	10612
463.823	11570
463.873	15231
463.903	17511
463.940	17044
463.982	16589
464.008	14080
464.062	8305
464.076	8010
464.142	6238
464.144	6247
464.211	6844
464.221	6916
464.279	6745
464.301	6543
464.347	6914
464.381	7424
464.414	7687
464.461	7995
464.482	8137
464.540	8419
464.550	8249
464.617	6750
464.620	6689
464.685	7429
464.699	7637
464.753	7915
464.779	7921
464.820	8311
464.859	8721
464.888	8495
464.938	8056
464.956	8507
465.018	10113
465.023	9980
465.091	8003
465.098	7775
465.158	8106
465.177	8246
465.226	7815
465.257	7459
465.293	8105
465.336	8795
465.361	8846
465.416	8982
465.428	9468
465.495	12034
465.496	12090
465.563	17153
465.575	18052
465.631	21144
465.654	22447
465.698	15287
465.734	9049
465.765	8721
465.813	8230
465.833	8203
465.893	8324
465.900	8344
465.968	8317
465.972	8289
466.035	7679
466.052	7539
466.102	8152
466.131	8449
466.170	7930
466.210	7329
466.237	7737
466.290	8570
466.304	8424
466.369	7557
466.372	7597
466.439	8370
466.449	8457
466.506	9621
466.528	10054
466.573	12037
466.607	13480
466.641	17318
466.687	22616
466.708	24534
466.766	29701
466.775	27737
466.842	12469
466.845	11720
466.909	10286
466.925	9925
466.977	9865
467.004	9822
467.044	10429
467.083	10995
467.111	10993
467.163	10917
467.178	10983
467.242	11128
467.245	11151
467.312	11135
467.321	11109
467.379	11299
467.400	11332
467.446	12181
467.480	12749
467.559	12605
467.638	10360
467.717	11067
467.796	12199
467.875	13016
467.955	13403
468.034	17839
468.113	32132
468.192	46470
468.271	25628
468.350	32442
468.429	43944
468.508	46219
468.588	29112
468.667	18331
468.746	14805
468.825	14484
468.904	12047
468.983	13554
469.062	15449
469.141	17908
469.220	11935
469.299	11432
469.378	10167
469.456	13568
469.535	12118
469.614	11696
469.693	11672
469.772	14408
469.851	17000
469.930	14487
470.009	12007
470.088	14570
470.166	21382
470.245	34623
470.324	43644
470.403	29237
470.482	17154
470.560	14476
470.639	13490
470.718	12557
470.797	11661
470.875	12557
470.954	13967
471.033	14337
471.111	9995
471.190	9853
471.269	10180
471.347	10579
471.426	9348
471.505	11526
471.583	10440
471.662	10693
471.740	10699
471.819	10394
471.898	10363
471.976	10932
472.055	9728
472.133	11435
472.212	13131
472.290	13820
472.369	9795
472.447	10801
472.526	9629
472.604	11047
472.683	11314
472.761	11070
472.839	10376
472.918	10190
472.996	11459
473.075	12540
473.153	11261
473.231	11090
473.310	11751
473.388	12139
473.466	10793
473.545	12894
473.623	12506
473.701	12351
473.780	11436
473.858	10606
473.936	11725
474.014	11416
474.093	11786
474.171	15268
474.249	17297
474.327	13068
474.405	10187
474.484	10823
474.562	9439
474.640	10864
474.718	10205
474.796	10442
474.874	10933
474.952	9393
475.030	10209
475.108	9900
475.187	10205
475.265	12259
475.343	12237
475.421	13326
475.499	9552
475.577	11134
475.655	11786
475.733	18264
475.811	26832
475.889	24551
475.966	18149
476.044	10884
476.122	11301
476.200	13120
476.278	9939
476.356	9623
476.434	10780
476.512	12111
476.590	12461
476.667	12122
476.745	9415
476.823	11667
476.901	10722
476.979	11518
477.056	10731
477.134	10853
477.212	10569
477.290	11011
477.367	10088
477.445	10792
477.523	9694
477.601	9699
477.678	10759
477.756	11968
477.834	11570
477.911	10229
477.989	9759
478.066	10928
478.144	10760
478.222	12266
478.299	13204
478.377	12820
478.454	11400
478.532	10402
478.609	9526
478.687	10911
478.764	10080
478.842	10607
478.919	9387
478.997	10296
479.074	9521
479.152	11523
479.229	11735
479.307	10309
479.384	9405
479.461	10072
479.539	10337
479.616	11444
479.694	10457
479.771	11040
479.848	10255
479.926	11175
480.003	13816
480.080	10670
480.157	9146
480.235	10776
480.312	10354
480.389	11817
480.467	14480
480.544	16553
480.621	12818
480.698	13178
480.775	13248
480.853	12696
480.930	11269
481.007	11896
481.084	12536
481.161	16185
481.238	11968
481.315	11197
481.392	10483
481.470	10917
481.547	11641
481.624	10580
481.701	10860
481.778	12797
481.855	12533
481.932	15986
482.009	21158
482.086	17723
482.163	15708
482.240	19673
482.317	20931
482.393	17942
482.470	14663
482.547	15788
482.624	13073
482.701	13594
482.778	12160
482.855	12988
482.932	12308
483.009	13623
483.085	15028
483.162	18627
483.239	19012
483.316	17859
483.393	17601
483.469	15516
483.546	14647
483.623	14148
483.699	12889
483.776	12568
483.853	12530
483.930	14291
484.006	23918
484.083	38006
484.160	19422
484.236	20873
484.313	17769
484.389	17309
484.466	19048
484.543	21029
484.619	26750
484.696	32255
484.772	22372
484.849	19473
484.925	15839
485.002	16065
485.078	15244
485.155	15002
485.231	13960
485.308	13333
485.384	14001
485.461	16915
485.537	22950
485.614	26586
485.690	13822
485.766	13102
485.843	13201
485.919	13671
485.995	15021
486.072	13929
486.148	12529
486.224	13280
486.301	12987
486.377	14145
486.453	13977
486.530	14353
486.606	16520
486.682	17697
486.758	20343
486.835	24073
486.911	19091
486.987	29169
487.063	25473
487.139	26383
487.215	25081
487.292	24321
487.368	26889
487.444	31104
487.520	42091
487.596	63231
487.672	155371
487.748	481266
487.824	702562
487.900	214923
487.976	59556
488.052	35292
488.128	26683
488.204	21830
488.280	19251
488.356	20454
488.432	30060
488.508	39841
488.584	16956
488.660	15106
488.736	13912
488.812	13512
488.888	15000
488.964	15396
489.039	20544
489.115	26305
489.191	20174
489.267	13612
489.343	12687
489.418	12637
489.494	12411
489.570	10994
489.646	13134
489.722	13196
489.797	13534
489.873	18690
489.949	30419
490.024	25703
490.100	12354
490.176	13220
490.251	12862
490.327	14642
490.403	12313
490.478	13172
490.554	10850
490.629	12224
490.705	11258
490.781	13719
490.856	11832
490.932	12820
491.007	12238
491.083	11561
491.158	12249
491.234	15073
491.309	24695
491.385	22833
491.460	10560
491.536	13368
491.611	10405
491.686	11721
491.762	12116
491.837	16203
491.913	21945
491.988	27748
492.063	28703
492.139	18982
492.214	13586
492.289	11789
492.365	11230
492.440	11637
492.515	11820
492.590	11440
492.666	9869
492.741	14289
492.816	16827
492.891	11673
492.967	11028
493.042	11340
493.117	10855
493.192	12199
493.267	15342
493.342	35797
493.418	46150
493.493	15590
493.568	10888
493.643	11524
493.718	11004
493.793	14877
493.868	13458
493.943	11360
494.018	11308
494.093	10811
494.168	11373
494.243	9720
494.318	10636
494.393	11157
494.468	10339
494.543	10986
494.618	10621
494.693	11539
494.768	11104
494.842	11889
494.917	10882
494.992	11846
495.067	10867
495.142	11448
495.217	10445
495.292	11278
495.366	10950
495.441	12199
495.516	14330
495.591	16228
495.665	26155
495.740	46347
495.815	23805
495.890	13588
495.964	11881
496.039	15572
496.114	14417
496.188	17588
496.263	15720
496.338	14008
496.412	13674
496.487	15262
496.561	13491
496.636	14618
496.710	13790
496.785	14550
496.860	15479
496.934	13549
497.009	13324
497.083	13862
497.158	13826
497.232	15728
497.307	17648
497.381	18387
497.455	18183
497.530	19777
497.604	14082
497.679	15887
497.753	19557
497.827	21359
497.902	17646
497.976	23465
498.050	54636
498.125	186350
498.199	166023
498.273	23528
498.348	18020
498.422	18425
498.496	19779
498.570	21183
498.645	13766
498.719	12927
498.793	14939
498.867	22010
498.941	28390
499.016	82163
499.090	195889
499.164	64051
499.238	15449
499.312	16252
499.386	16732
499.460	18951
499.534	19317
499.609	24016
499.683	23095
499.757	19164
499.831	39172
499.905	133520
499.979	109788
500.053	22318
500.127	19205
500.201	14359
500.275	15087
500.349	15778
500.422	15854
500.496	20854
500.570	31653
500.644	82290
500.718	136037
500.792	30555
500.866	12630
500.940	15553
501.013	12975
501.087	12926
501.161	15465
501.235	20060
501.309	45994
501.382	117583
501.456	91104
501.530	25111
501.603	39162
501.677	18628
501.751	9899
501.825	13815
501.898	19963
501.972	48773
502.046	28851
502.119	12449
502.193	24315
502.266	51028
502.340	25239
502.413	25328
502.487	42976
502.561	25374
502.634	13282
502.708	11736
502.781	9492
502.855	11321
502.928	9124
503.002	10446
503.075	8990
503.149	10071
503.222	10303
503.295	11852
503.369	12518
503.442	16935
503.516	40957
503.589	88400
503.662	56688
503.736	30158
503.809	54014
503.882	49973
503.956	80054
504.029	120677
504.102	273190
504.175	384025
504.249	135648
504.322	49850
504.395	28246
504.468	19991
504.542	16400
504.615	12050
504.688	12055
504.761	9639
504.834	11605
504.907	10498
504.980	11407
505.053	10636
505.127	7425
505.200	12166
505.273	12487
505.346	8825
505.419	6820
505.492	9789
505.565	8386
505.638	8847
505.711	6999
505.784	7283
505.857	6901
505.930	9910
506.003	6585
506.076	9889
506.149	8628
506.221	8922
506.294	10576
506.367	20869
506.440	61509
506.513	31591
506.586	10062
506.659	7213
506.731	7595
506.804	7671
506.877	7971
506.950	8690
507.022	7756
507.095	8842
507.168	9097
507.241	7983
507.313	6106
507.386	6815
507.459	7964
507.531	6811
507.604	5790
507.677	8274
507.749	4818
507.822	8137
507.894	8797
507.967	10837
508.040	7383
508.112	8149
508.185	7593
508.257	6648
508.330	9674
508.402	7819
508.475	8044
508.547	8503
508.620	7887
508.692	10927
508.765	7889
508.837	7507
508.909	6848
508.982	7244
509.054	8101
509.127	6919
509.199	6639
509.271	7070
509.344	6241
509.416	7149
509.488	7053
509.560	6703
509.633	5784
509.705	7682
509.777	7358
509.849	9469
509.922	7037
509.994	7716
510.066	7758
510.138	6189
510.210	10376
510.283	8815
510.355	8292
510.427	8112
510.499	8073
510.571	9013
510.643	6986
510.715	10191
510.787	6583
510.859	10275
510.931	8326
511.003	9592
511.076	9211
511.148	7424
511.219	7189
511.291	10835
511.363	11831
511.435	8715
511.507	6285
511.579	8274
511.651	8253
511.723	7032
511.795	7160
511.867	7925
511.939	8127
512.010	14378
512.082	10772
512.154	6341
512.226	6864
512.298	10034
512.369	10124
512.441	9799
512.513	8237
512.585	7303
512.656	9006
512.728	9018
512.800	7011
512.871	8214
512.943	7887
513.015	6550
513.086	7454
513.158	7983
513.230	6648
513.301	9417
513.373	9268
513.444	7704
513.516	7731
513.588	7626
513.659	7327
513.731	8824
513.802	6660
513.874	12568
513.945	12265
514.016	7677
514.088	7671
514.159	7157
514.231	9539
514.302	10433
514.374	8690
514.445	8226
514.516	17321
514.588	11223
514.659	9376
514.730	13608
514.802	11282
514.873	6781
514.944	9809
515.016	9574
515.087	8358
515.158	11312
515.229	15329
515.301	8775
515.372	9222
515.443	8353
515.514	8523
515.585	8101
515.656	8393
515.728	9518
515.799	7232
515.870	9426
515.941	10579
516.012	10311
516.083	13138
516.154	13285
516.225	15850
516.296	18865
516.367	19405
516.438	23019
516.509	30695
516.580	53894
516.651	192445
516.722	600593
516.793	213275
516.864	44113
516.935	39420
517.006	49002
517.077	66698
517.148	162119
517.219	693022
517.289	925421
517.360	185871
517.431	53349
517.502	26431
517.573	24597
517.643	21958
517.714	23128
517.785	24647
517.856	27701
517.926	34264
517.997	40003
518.068	50322
518.138	70699
518.209	128456
518.280	467392
518.350	1329697
518.421	517942
518.492	94553
518.562	61043
518.633	66005
518.703	88303
518.774	194262
518.845	498831
518.915	436152
518.986	120429
519.056	51888
519.127	40092
519.197	40265
519.268	73915
519.338	48810
519.408	18931
519.479	16166
519.549	12498
519.620	14241
519.690	12067
519.760	11923
519.831	11316
519.901	10182
519.971	10788
520.042	10639
520.112	10916
520.182	11101
520.253	11986
520.323	9523
520.393	9578
520.463	12419
520.534	8025
520.604	15361
520.674	12282
520.744	10664
520.814	13485
520.885	14374
520.955	26750
521.025	78977
521.095	29762
521.165	10840
521.235	9373
521.305	8015
521.375	9303
521.445	9437
521.515	9877
521.585	10807
521.655	7840
521.725	9001
521.795	10495
521.865	6675
521.935	12689
522.005	9781
522.075	9042
522.145	9677
522.215	9203
522.285	12457
522.355	15008
522.424	23198
522.494	18306
522.564	10384
522.634	13496
522.704	25514
522.774	11948
522.843	8993
522.913	9241
522.983	8480
523.053	8008
523.122	10156
523.192	9127
523.262	16168
523.331	14212
523.401	9975
523.471	9298
523.540	8192
523.610	7399
523.680	9138
523.749	9134
523.819	11665
523.888	10589
523.958	9373
524.027	10251
524.097	9348
524.166	9658
524.236	8410
524.305	11430
524.375	7951
524.444	8085
524.514	10804
524.583	9853
524.653	10681
524.722	12583
524.791	8374
524.861	11560
524.930	8602
524.999	10184
525.069	11804
525.138	11884
525.207	12524
525.277	12916
525.346	12236
525.415	15139
525.484	14997
525.554	18540
525.623	21147
525.692	25301
525.761	29339
525.830	35698
525.900	46589
525.969	75749
526.038	147828
526.107	322968
526.176	860742
526.245	626269
526.314	186897
526.383	439429
526.452	563409
526.522	800656
526.591	668484
526.660	115922
526.729	66970
526.797	75504
526.867	118376
526.935	368201
527.004	1147271
527.073	660630
527.142	93466
527.211	39476
527.280	28689
527.349	22531
527.418	15104
527.487	15536
527.555	13218
527.624	12651
527.693	11009
527.762	12277
527.831	9587
527.899	12079
527.968	10222
528.037	9091
528.106	9863
528.174	12553
528.243	12324
528.312	13602
528.380	12566
528.449	10347
528.518	10065
528.586	7432
528.655	9949
528.723	9885
528.792	8221
528.861	10001
528.929	7704
528.998	11449
529.066	10975
529.135	13455
529.203	11997
529.272	14311
529.340	17054
529.409	17468
529.477	15063
529.545	15076
529.614	19322
529.682	18511
529.751	19881
529.819	22723
529.887	21481
529.956	20263
530.024	19157
530.092	17426
530.161	18476
530.229	19490
530.297	19027
530.365	20206
530.434	20323
530.502	20078
530.570	18678
530.638	16741
530.707	17790
530.775	17904
530.843	16631
530.911	18775
530.979	18354
531.047	20838
531.115	19414
531.183	18934
531.252	17831
531.320	17219
531.388	17498
531.456	19786
531.524	17478
531.592	21547
531.660	23129
531.728	19737
531.796	19209
531.864	20690
531.932	19327
532.000	20171
532.067	21000
532.135	22548
532.203	23698
532.271	24574
532.339	26894
532.407	30259
532.475	25440
532.542	23803
532.610	23581
532.678	24492
532.746	40517
532.814	62945
532.881	31276
532.949	24871
533.017	22699
533.084	22565
533.152	20905
533.220	21181
533.287	20614
533.355	22371
533.423	22078
533.490	22082
533.558	22918
533.625	21917
533.693	21285
533.761	22062
533.828	21096
533.896	21777
533.963	24376
534.031	26665
534.098	30178
534.166	29416
534.233	25728
534.300	29474
534.368	28600
534.435	28068
534.503	29452
534.570	31801
534.637	34420
534.705	40342
534.772	47791
534.840	92426
534.907	385733
534.974	428456
535.041	60077
535.109	32205
535.176	26667
535.243	25342
535.310	24221
535.378	23858
535.445	22992
535.512	24089
535.579	23817
535.646	21692
535.714	23147
535.781	25182
535.848	25276
535.915	25750
535.982	23722
536.049	25067
536.116	23882
536.183	22560
536.250	21510
536.317	20960
536.384	22477
536.451	24347
536.518	24695
536.585	22530
536.652	26413
536.719	25443
536.786	21718
536.853	22561
536.920	25322
536.987	24838
537.053	24855
537.120	42124
537.187	37580
537.254	24831
537.321	22834
537.388	25649
537.454	21904
537.521	22943
537.588	22278
537.654	23656
537.721	24367
537.788	25218
537.855	23827
537.921	23639
537.988	22681
538.055	23595
538.121	19426
538.188	21272
538.254	20708
538.321	23060
538.388	22487
538.454	24798
538.521	24600
538.587	24272
538.654	22994
538.720	22238
538.787	22902
538.853	24147
538.920	22969
538.986	21741
539.053	19607
539.119	21076
539.185	20764
539.252	23400
539.318	23043
539.385	26060
539.451	23915
539.517	24100
539.583	23869
539.650	27635
539.716	35567
539.782	23150
539.849	20095
539.915	21506
539.981	20368
540.047	21557
540.114	20560
540.180	24656
540.246	21512
540.312	24777
540.378	25111
540.444	26307
540.510	27138
540.576	37609
540.643	24127
540.709	20427
540.775	21991
540.841	21622
540.907	21981
540.973	24851
541.039	22113
541.105	23654
541.171	23033
541.237	24021
541.303	22158
541.369	25685
541.435	24694
541.500	23590
541.566	20590
541.632	20858
541.698	20161
541.764	23113
541.830	20757
541.896	21059
541.961	21965
542.027	21000
542.093	23934
542.159	23489
542.224	20984
542.290	24125
542.356	23478
542.421	23960
542.487	21381
542.553	20797
542.618	21734
542.684	20902
542.750	21964
542.815	23720
542.881	24239
542.947	34896
543.012	29821
543.078	21688
543.143	21161
543.209	22095
543.274	21823
543.340	22186
543.405	25564
543.471	27811
543.536	23329
543.602	22654
543.667	21878
543.732	23145
543.798	20877
543.863	22808
543.928	21866
543.994	22119
544.059	23124
544.124	24083
544.190	23139
544.255	24436
544.320	24365
544.386	23460
544.451	24869
544.516	25097
544.581	24553
544.646	33088
544.712	35029
544.777	26811
544.842	25733
544.907	25866
544.972	24913
545.037	28066
545.102	27957
545.168	28030
545.233	28593
545.298	30408
545.363	28607
545.428	30522
545.493	34256
545.558	38919
545.623	31796
545.688	30236
545.753	31536
545.818	32107
545.883	33783
545.947	34706
546.012	35677
546.077	36889
546.142	38262
546.207	39814
546.272	41607
546.337	42117
546.401	42668
546.466	46229
546.531	46713
546.596	50779
546.661	52735
546.725	55723
546.790	57911
546.855	62629
546.919	68696
546.984	77280
547.049	82488
547.113	95206
547.178	103097
547.243	118831
547.307	135439
547.372	151538
547.436	150708
547.501	158644
547.565	168898
547.630	153327
547.695	148580
547.759	151133
547.823	153574
547.888	153690
547.952	158740
548.017	164519
548.081	169824
548.146	169042
548.210	173416
548.274	184012
548.339	179627
548.403	163203
548.468	154109
548.532	152828
548.596	158551
548.660	160207
548.725	173999
548.789	189045
548.853	180839
548.917	176055
548.982	170168
549.046	155525
549.110	139190
549.174	143069
549.238	167283
549.303	183624
549.367	187417
549.431	176791
549.495	166172
549.559	169260
549.623	194759
549.687	210422
549.751	207585
549.815	249775
549.879	250519
549.943	240821
550.007	251516
550.071	248682
550.135	224315
550.199	213352
550.263	208640
550.327	197790
550.391	206233
550.455	226866
550.519	238391
550.582	252083
550.646	287654
550.710	289266
550.774	282992
550.838	287734
550.901	295568
550.965	312841
551.029	324860
551.093	346314
551.156	380307
551.220	429204
551.284	468503
551.347	365128
551.411	323187
551.475	310603
551.538	309900
551.602	288676
551.666	272642
551.729	258941
551.793	252571
551.856	251688
551.920	245793
551.983	244806
552.047	242402
552.110	244611
552.174	247465
552.237	252968
552.301	233226
552.364	224443
552.428	218592
552.491	229226
552.554	231724
552.618	232310
552.681	237193
552.745	233101
552.808	262329
552.871	289404
552.934	256112
552.998	235107
553.061	226837
553.124	218719
553.187	218615
553.251	223536
553.314	224462
553.377	226549
553.440	244036
553.503	266176
553.567	276791
553.630	247938
553.693	243853
553.756	243882
553.819	238692
553.882	233166
553.945	233657
554.008	234170
554.071	235135
554.134	237841
554.197	224927
554.260	221879
554.323	223425
554.386	227146
554.449	236571
554.512	235837
554.575	222972
554.638	223307
554.701	221739
554.764	219948
554.827	210760
554.889	204886
554.952	192366
555.015	190328
555.078	191887
555.141	195349
555.203	190742
555.266	191479
555.329	190731
555.391	181366
555.454	179269
555.517	171390
555.580	166153
555.642	161314
555.705	158458
555.768	157895
555.830	151554
555.893	144856
555.955	141266
556.018	139806
556.080	138106
556.143	143904
556.206	139317
556.268	137013
556.330	134950
556.393	130200
556.455	126741
556.518	126707
556.580	121574
556.643	115834
556.705	113680
556.767	112644
556.830	110844
556.892	109185
556.955	106147
557.017	103923
557.079	101924
557.142	99772
557.204	98852
557.266	100570
557.328	92657
557.391	87736
557.453	84356
557.515	86250
557.577	86487
557.639	86465
557.701	86114
557.764	85545
557.826	86874
557.888	90371
557.950	91814
558.012	101311
558.074	129693
558.136	267400
558.198	556054
558.260	200129
558.322	92905
558.384	91919
558.446	94811
558.508	101343
558.570	110287
558.632	129352
558.694	165743
558.756	271830
558.818	711934
558.880	1321409
558.942	572817
559.003	589345
559.065	273352
559.127	115378
559.189	110079
559.251	125495
559.312	178067
559.374	402201
559.436	1032712
559.498	502902
559.559	130647
559.621	111090
559.683	130173
559.744	210503
559.806	601514
559.868	775408
559.929	185178
559.991	125851
560.052	207040
560.114	537205
560.176	328820
560.237	327458
560.299	470743
560.360	107601
560.422	50745
560.483	46053
560.545	41510
560.606	41103
560.667	39025
560.729	38042
560.790	35689
560.852	35007
560.913	34808
560.974	33778
561.036	33131
561.097	34290
561.158	31896
561.220	32803
561.281	31155
561.342	30583
561.403	31184
561.465	30825
561.526	34127
561.587	35432
561.648	28562
561.709	28555
561.771	28421
561.832	27396
561.893	26883
561.954	27722
562.015	26894
562.076	26906
562.137	25818
562.198	26540
562.259	25820
562.320	27179
562.381	26222
562.442	26716
562.503	25702
562.564	25358
562.625	23485
562.686	24189
562.747	24191
562.808	24844
562.869	24382
562.930	25008
562.991	23699
563.051	23504
563.112	22905
563.173	22994
563.234	22172
563.294	23625
563.355	22580
563.416	22375
563.477	21024
563.537	22400
563.598	21978
563.659	22099
563.720	21588
563.780	21718
563.841	20603
563.901	22030
563.962	21603
564.023	21723
564.083	21027
564.144	20885
564.204	20803
564.265	21415
564.325	22055
564.386	25976
564.446	24221
564.507	20079
564.567	18908
564.628	19908
564.688	18932
564.749	20141
564.809	20611
564.869	21056
564.930	18967
564.990	20093
565.050	18678
565.111	19590
565.171	17936
565.231	19478
565.292	20003
565.352	17888
565.412	19063
565.472	19456
565.532	17908
565.593	20336
565.653	18400
565.713	18801
565.773	19336
565.833	19854
565.893	21156
565.953	18687
566.013	17831
566.074	18443
566.134	19553
566.194	22084
566.254	21526
566.314	20058
566.374	17888
566.434	17599
566.494	17989
566.554	18154
566.614	18097
566.673	19054
566.733	18955
566.793	18507
566.853	18994
566.913	19101
566.973	18678
567.033	19811
567.092	18350
567.152	19018
567.212	18823
567.272	19511
567.331	20349
567.391	20183
567.451	20918
567.511	22019
567.570	21257
567.630	20361
567.690	19266
567.749	18495
567.809	18049
567.868	18064
567.928	17952
567.988	19061
568.047	18749
568.107	19844
568.166	20226
568.226	20652
568.285	22049
568.345	21595
568.404	20405
568.464	19948
568.523	18476
568.582	21663
568.642	19421
568.701	19522
568.761	20623
568.820	23162
568.879	21810
568.939	23177
568.998	21665
569.057	18876
569.116	18542
569.176	18538
569.235	19105
569.294	18710
569.353	17437
569.413	18848
569.472	17605
569.531	17945
569.590	17269
569.649	17441
569.708	16357
569.767	17785
569.827	17385
569.886	17590
569.945	15947
570.004	17990
570.063	16616
570.122	17905
570.181	18642
570.240	18922
570.299	19395
570.358	18944
570.417	18025
570.475	18787
570.534	18645
570.593	18614
570.652	19679
570.711	18801
570.770	18631
570.829	18640
570.887	18231
570.946	18864
571.005	18286
571.064	19764
571.122	21652
571.181	20251
571.240	18006
571.299	18281
571.357	18382
571.416	17696
571.475	17712
571.533	18870
571.592	19790
571.650	20316
571.709	19259
571.768	21980
571.826	21845
571.885	20797
571.943	18458
572.002	18400
572.060	17629
572.119	17549
572.177	17102
572.236	18059
572.294	18358
572.352	19077
572.411	18398
572.469	18515
572.528	16936
572.586	18205
572.644	16505
572.703	18358
572.761	16063
572.819	16604
572.877	15366
572.936	15812
572.994	14997
573.052	16192
573.110	15861
573.169	17282
573.227	16444
573.285	16509
573.343	15880
573.401	16321
573.459	16646
573.517	17206
573.576	17309
573.634	17675
573.692	16119
573.750	17847
573.808	15907
573.866	16023
573.924	16476
573.982	16084
574.040	15052
574.098	16599
574.155	14786
574.213	15285
574.271	15725
574.329	18326
574.387	15239
574.445	14345
574.503	13790
574.560	14418
574.618	14002
574.676	14611
574.734	14675
574.792	14536
574.849	13302
574.907	12531
574.965	11709
575.022	12124
575.080	11744
575.138	13042
575.195	11713
575.253	11519
575.311	12219
575.368	11921
575.426	11760
575.483	12973
575.541	12782
575.598	13276
575.656	12228
575.713	12724
575.771	13152
575.828	14025
575.886	12479
575.943	12291
576.001	11391
576.058	11634
576.115	11533
576.173	12836
576.230	13109
576.287	13866
576.345	12119
576.402	13747
576.459	13313
576.517	11757
576.574	12253
576.631	13110
576.688	11029
576.746	12420
576.803	11845
576.860	10476
576.917	11725
576.974	12054
577.031	10698
577.089	12563
577.146	10489
577.203	11275
577.260	12244
577.317	11209
577.374	11474
577.431	11857
577.488	9955
577.545	10955
577.602	11245
577.659	11940
577.716	11773
577.773	11632
577.830	10448
577.886	11115
577.943	10624
578.000	10619
578.057	10287
578.114	11429
578.171	11661
578.227	12341
578.284	10708
578.341	11142
578.398	11373
578.454	11639
578.511	11607
578.568	12840
578.625	10837
578.681	11961
578.738	9596
578.794	10977
578.851	10044
578.908	11365
578.964	11594
579.021	11905
579.077	10970
579.134	10942
579.190	11222
579.247	11321
579.303	10648
579.360	10701
579.416	10080
579.473	11186
579.529	10213
579.586	11723
579.642	10460
579.698	11289
579.755	10751
579.811	11223
579.867	11038
579.924	11472
579.980	10248
580.036	13236
580.093	13137
580.149	14597
580.205	14859
580.261	12897
580.317	12249
580.374	13186
580.430	13695
580.486	12885
580.542	11786
580.598	12761
580.619	12535
580.654	12159
580.692	11925
580.710	11832
580.765	11607
580.767	11614
580.823	12657
580.838	12783
580.879	13176
580.911	12981
580.935	12864
580.984	12858
580.991	12876
581.047	13358
581.057	13055
581.103	11768
581.130	12280
581.159	12846
581.203	12967
581.215	13011
581.270	12761
581.276	12715
581.326	12352
581.349	12268
581.382	12233
581.422	12469
581.438	12554
581.494	12272
581.494	12256
581.550	11860
581.567	11896
581.606	11952
581.640	11693
581.661	11564
581.713	13058
581.717	13188
581.773	12973
581.786	12809
581.829	12253
581.859	12331
581.885	12428
581.932	12446
581.940	12452
581.996	13308
582.004	13228
582.052	12956
582.077	12585
582.107	12100
582.150	12728
582.163	12920
582.219	12668
582.223	12694
582.274	13140
582.296	12842
582.330	12339
582.368	12847
582.386	13136
582.441	12857
582.441	12862
582.497	12314
582.514	12438
582.552	12767
582.587	13067
582.608	13194
582.659	13370
582.663	13406
582.719	13523
582.732	13421
582.774	13004
582.805	13019
582.830	13092
582.877	13424
582.885	13474
582.941	14407
582.950	14500
582.996	14947
583.023	15469
583.052	16085
583.095	15473
583.107	15306
583.162	16025
583.168	15974
583.218	15364
583.240	14741
583.273	13861
583.313	13305
583.328	13164
583.384	13497
583.385	13474
583.439	12434
583.458	12571
583.494	13022
583.531	12349
583.549	12013
583.603	12418
583.605	12424
583.660	11858
583.676	12158
583.715	13003
583.748	12394
583.770	11942
583.820	12228
583.825	12254
583.881	11973
583.893	11986
583.936	12209
583.965	12144
583.991	11930
584.038	12273
584.046	12360
584.101	11982
584.110	12052
584.156	12349
584.183	12579
584.211	12840
584.255	13151
584.266	13207
584.321	12325
584.328	12373
584.376	13060
584.400	13365
584.431	13529
584.472	13507
584.486	13498
584.541	13208
584.545	13282
584.596	14813
584.617	14847
584.651	14561
584.689	14897
584.706	15124
584.761	15025
584.762	15039
584.816	15978
584.834	16151
584.871	16361
584.906	16922
584.926	17273
584.978	17612
584.980	17617
585.035	19427
585.051	19800
585.090	21186
585.123	22841
585.145	23795
585.195	25360
585.200	25605
585.254	29699
585.267	30925
585.309	34490
585.340	37311
585.364	39920
585.412	46105
585.419	47099
585.473	59523
585.484	63206
585.528	83126
585.556	104152
585.583	140174
585.628	228722
585.637	258257
585.692	530487
585.700	572971
585.747	724976
585.772	608840
585.801	379591
585.845	142122
585.856	109369
585.910	54697
585.917	49642
585.965	37008
585.989	32998
586.019	29682
586.061	25792
586.074	24979
586.128	23409
586.133	23311
586.183	22396
586.205	21965
586.237	21568
586.277	20859
586.292	20477
586.346	20654
586.349	20610
586.401	20487
586.421	20686
586.455	20584
586.493	20880
586.509	21281
586.564	22712
586.565	22807
586.618	27266
586.637	27912
586.672	28755
586.709	29989
586.727	30517
586.781	33160
586.781	33140
586.835	25076
586.853	23820
586.889	22095
586.925	19970
586.944	19289
586.996	19501
586.998	19508
587.052	19244
587.068	19361
587.106	19501
587.140	19148
587.161	18929
587.212	19718
587.215	19740
587.269	19052
587.284	19230
587.323	19806
587.356	19829
587.377	19930
587.427	20892
587.431	20937
587.485	20683
587.499	20842
587.539	21143
587.571	21445
587.593	21979
587.643	23809
587.648	23891
587.702	23741
587.715	23876
587.755	24344
587.786	24124
587.810	23778
587.858	24125
587.864	24168
587.917	24357
587.930	24431
587.971	25173
588.001	25687
588.025	25715
588.073	25832
588.079	25900
588.133	26447
588.145	26697
588.187	26938
588.217	26979
588.241	27756
588.288	30190
588.295	30445
588.348	32085
588.360	32492
588.402	34028
588.431	34875
588.456	35377
588.503	37321
588.510	37854
588.564	42930
588.575	44118
588.617	47882
588.646	50816
588.671	54397
588.718	63073
588.725	65258
588.778	87461
588.789	93383
588.832	144801
588.861	187222
588.886	258767
588.932	417768
588.939	431773
588.993	504049
589.004	500048
589.047	300084
589.075	177623
589.100	131017
589.147	71988
589.154	69438
589.207	57896
589.218	56126
589.261	55434
589.290	56023
589.314	58349
589.361	65013
589.368	67689
589.421	94067
589.433	101414
589.475	177741
589.504	240747
589.528	308230
589.576	440978
589.582	429361
589.635	241701
589.647	203661
589.689	108573
589.718	56469
589.742	49120
589.790	37902
589.795	37374
589.849	33719
589.861	33240
589.902	32543
589.932	31452
589.955	30209
590.004	28014
590.009	27845
590.062	26481
590.075	26197
590.115	26174
590.146	26204
590.168	25826
590.218	24979
590.222	24980
590.275	25723
590.289	25900
590.328	26494
590.360	26846
590.381	26695
590.431	26361
590.435	26308
590.488	26006
590.503	25933
590.541	26544
590.574	27012
590.594	26773
590.645	26623
590.647	26648
590.700	27746
590.716	28171
590.753	28652
590.787	29011
590.806	29178
590.859	30234
590.859	30213
590.912	30019
590.930	30135
590.965	30603
591.001	30966
591.018	30635
591.071	29681
591.072	29697
591.124	29548
591.143	29707
591.177	29821
591.214	29914
591.230	30101
591.283	30810
591.285	30853
591.336	29982
591.356	29799
591.389	29922
591.427	29880
591.442	29617
591.495	29004
591.498	28970
591.547	29432
591.569	29867
591.600	30363
591.640	30774
591.653	30776
591.706	31007
591.711	31061
591.759	31550
591.782	31889
591.811	32647
591.853	33782
591.864	33717
591.917	33426
591.924	33406
591.969	32990
591.995	32850
592.022	33263
592.066	34091
592.075	34303
592.127	35798
592.137	36097
592.180	36132
592.208	36233
592.233	36262
592.279	36354
592.285	36461
592.338	37738
592.350	38050
592.390	37517
592.421	37191
592.443	37429
592.491	38087
592.495	38060
592.548	38230
592.562	38311
592.600	37338
592.633	36611
592.653	36888
592.704	37539
592.705	37763
592.775	38395
592.846	39647
592.916	39964
592.987	39875
593.058	39931
593.128	41861
593.199	41948
593.270	41421
593.341	41811
593.411	44681
593.482	45511
593.553	46204
593.623	46009
593.694	48945
593.764	49567
593.835	48716
593.906	48617
593.976	50851
594.047	51286
594.117	55593
594.188	56383
594.258	54735
594.329	55282
594.399	56201
594.470	58513
594.540	61808
594.611	61760
594.681	61695
594.751	59555
594.822	63606
594.892	66546
594.963	68147
595.033	69568
595.103	71353
595.174	72286
595.244	75860
595.314	77405
595.384	77577
595.455	80082
595.525	81942
595.595	84540
595.665	85102
595.736	83024
595.806	85129
595.876	86431
595.946	86998
596.016	90302
596.087	93196
596.157	93631
596.227	94128
596.297	99519
596.367	107272
596.437	111001
596.507	113200
596.577	112948
596.647	114633
596.717	120637
596.787	122708
596.857	121406
596.927	122547
596.997	123122
597.067	125239
597.137	128039
597.207	128238
597.277	127902
597.347	123121
597.417	118463
597.487	120164
597.557	121771
597.626	125589
597.696	127563
597.766	124888
597.836	121169
597.906	112849
597.975	110289
598.045	113117
598.115	116854
598.185	126260
598.254	142001
598.324	152476
598.394	155813
598.464	152340
598.533	147698
598.603	139265
598.672	134826
598.742	138846
598.812	138957
598.881	142268
598.951	139945
599.020	143522
599.090	147632
599.159	151404
599.229	144495
599.299	141559
599.368	146884
599.437	145158
599.507	132701
599.576	128898
599.646	127267
599.715	125887
599.785	125198
599.854	122158
599.924	118835
599.993	119567
600.062	122706
600.132	123928
600.201	132922
600.270	154474
600.340	160822
600.409	157008
600.478	155921
600.547	161241
600.617	146328
600.686	119077
600.755	107637
600.824	103003
600.894	100680
600.963	101669
601.032	100984
601.101	96978
601.170	93815
601.239	90036
601.308	91614
601.378	91731
601.447	92712
601.516	92709
601.585	93752
601.654	94747
601.723	96309
601.792	99772
601.861	103812
601.930	105804
601.999	107863
602.068	106611
602.137	109018
602.206	109962
602.275	112010
602.343	112771
602.412	112125
602.481	114638
602.550	115483
602.619	119316
602.688	119580
602.756	120932
602.825	121516
602.894	126028
602.963	126674
603.032	128325
603.100	129099
603.169	129171
603.238	130494
603.307	130312
603.375	131629
603.444	133487
603.513	136143
603.581	137899
603.650	138204
603.719	134469
603.787	137779
603.856	140693
603.924	143749
603.993	147998
604.061	152390
604.130	161887
604.198	163006
604.267	166299
604.335	167348
604.404	170750
604.472	173684
604.541	174963
604.609	176991
604.678	177249
604.746	179065
604.815	186453
604.883	188038
604.951	185799
605.020	188759
605.088	190578
605.156	194191
605.225	196768
605.293	197330
605.361	196385
605.429	199256
605.498	204549
605.566	207001
605.634	219938
605.702	223388
605.771	231417
605.839	231699
605.907	226450
605.975	220297
606.043	213183
606.111	215165
606.180	215795
606.248	212406
606.316	210478
606.384	210065
606.452	207792
606.520	211528
606.588	219036
606.656	220698
606.724	214597
606.792	201644
606.860	181638
606.928	166528
606.996	161683
607.064	158756
607.132	162234
607.200	171917
607.267	178056
607.335	182797
607.403	186596
607.471	179032
607.539	174882
607.607	174711
607.674	155896
607.742	154877
607.810	154311
607.878	153840
607.946	156450
608.013	164838
608.081	168071
608.149	168202
608.216	175487
608.284	179014
608.352	180644
608.419	177549
608.487	174819
608.555	172474
608.622	177246
608.690	188490
608.757	207938
608.825	210655
608.893	205849
608.960	193232
609.028	185823
609.095	185469
609.163	184620
609.230	164273
609.298	151992
609.365	159874
609.432	174103
609.500	187483
609.567	214471
609.635	243304
609.702	255751
609.769	242343
609.837	189542
609.904	167196
609.971	172471
610.039	192406
610.106	246769
610.173	446481
610.241	930408
610.308	546359
610.375	222189
610.442	183682
610.509	174094
610.577	172190
610.644	176226
610.711	179246
610.778	185041
610.845	194584
610.912	203690
610.980	212649
611.047	213749
611.114	208537
611.181	202150
611.248	199590
611.315	213202
611.382	218093
611.449	227072
611.516	230842
611.583	224463
611.650	227802
611.717	231150
611.784	235574
611.851	248712
611.918	260196
611.984	303463
612.051	404441
612.118	712742
612.185	1418516
612.252	985025
612.319	380084
612.386	308342
612.452	276448
612.519	263305
612.586	254859
612.653	258195
612.719	268689
612.786	256367
612.853	236419
612.919	232568
612.986	236896
613.053	222868
613.120	209922
613.186	201456
613.253	203893
613.319	204826
613.386	205438
613.453	209605
613.519	211413
613.586	205714
613.652	211175
613.719	205604
613.785	211018
613.852	213678
613.918	209979
613.985	214069
614.051	223663
614.118	227437
614.184	219150
614.250	211968
614.317	214376
614.383	212797
614.449	215547
614.516	214779
614.582	216978
614.648	211190
614.715	211333
614.781	206272
614.847	207386
614.914	202794
614.980	199601
615.046	200554
615.112	206896
615.179	206343
615.245	209706
615.311	207667
615.377	210787
615.443	211403
615.509	217659
615.575	221526
615.642	219977
615.708	225869
615.774	236727
615.840	250147
615.906	268749
615.972	321615
616.038	456485
616.104	842345
616.170	1561614
616.236	1336298
616.302	534446
616.368	411889
616.434	301295
616.500	275634
616.565	309428
616.631	388858
616.697	318318
616.763	324099
616.829	483380
616.895	835001
616.961	786932
617.026	356875
617.092	246682
617.158	227864
617.224	218021
617.289	203758
617.355	192238
617.421	189000
617.487	189670
617.552	179862
617.618	179105
617.684	179443
617.749	181563
617.815	172975
617.880	169777
617.946	168884
618.012	172925
618.077	176925
618.143	167810
618.208	170549
618.274	180552
618.339	182667
618.405	152321
618.470	153057
618.536	151493
618.601	150506
618.667	141176
618.732	133978
618.798	131620
618.863	133049
618.928	130716
618.994	132810
619.059	131407
619.124	134255
619.190	130567
619.255	130736
619.320	130390
619.386	132103
619.451	129614
619.516	127094
619.581	126706
619.647	132010
619.712	130943
619.777	124765
619.842	127058
619.907	130959
619.972	131592
620.038	128925
620.103	127043
620.168	126279
620.233	129284
620.298	128523
620.363	131432
620.428	134512
620.493	137620
620.558	139991
620.623	141601
620.688	140425
620.753	139225
620.818	143064
620.883	142700
620.948	143762
621.013	140967
621.078	138132
621.143	138515
621.207	143273
621.272	139066
621.337	134608
621.402	134641
621.467	133487
621.532	133768
621.596	133477
621.661	128945
621.726	129748
621.791	128789
621.855	129724
621.920	126931
621.985	132617
622.049	133891
622.114	133799
622.179	134406
622.243	137089
622.308	142617
622.373	147407
622.437	143021
622.502	136862
622.566	136517
622.631	135080
622.695	138184
622.760	136637
622.824	136460
622.889	138935
622.953	136794
623.018	146562
623.082	146176
623.147	145956
623.211	141322
623.276	140127
623.340	134979
623.404	131926
623.469	130755
623.533	134198
623.597	132173
623.662	130286
623.726	121138
623.790	113877
623.854	110984
623.919	113645
623.983	114754
624.047	116607
624.111	118100
624.176	119368
624.240	119218
624.304	124901
624.368	118869
624.432	119322
624.496	122927
624.560	128040
624.625	126938
624.689	126819
624.753	133845
624.817	128216
624.881	124070
624.945	113159
625.009	108389
625.073	111863
625.137	114304
625.201	119812
625.265	118792
625.329	115051
625.393	115631
625.456	117807
625.520	119437
625.584	122334
625.648	124799
625.712	130901
625.776	134917
625.839	128140
625.903	103632
625.967	96193
626.031	103826
626.095	125276
626.158	110549
626.222	88208
626.286	82709
626.349	79622
626.413	73985
626.477	75461
626.540	76123
626.604	73897
626.668	72825
626.731	71163
626.795	71355
626.858	72029
626.922	70524
626.986	70857
627.049	69100
627.113	73216
627.176	71609
627.240	68905
627.303	67685
627.366	68876
627.430	69140
627.493	69096
627.557	65858
627.620	68242
627.684	70813
627.747	71073
627.810	63991
627.874	59034
627.937	55843
628.000	60656
628.064	55658
628.127	51532
628.190	51356
628.253	49804
628.317	46713
628.380	46416
628.443	43427
628.506	43698
628.569	42842
628.632	40397
628.696	39835
628.759	39513
628.822	38473
628.885	38189
628.948	37280
629.011	37182
629.074	35509
629.137	33511
629.200	32969
629.263	34583
629.326	32116
629.389	32951
629.452	32864
629.515	31237
629.578	31466
629.641	32838
629.704	31413
629.767	31856
629.830	30601
629.892	30843
629.955	28998
630.018	31522
630.081	28611
630.144	31425
630.207	28236
630.269	31726
630.332	28851
630.395	28485
630.458	27620
630.520	27029
630.583	28429
630.646	28030
630.708	27953
630.771	28134
630.834	30443
630.896	28881
630.959	29473
631.021	27784
631.084	27770
631.146	29408
631.209	30297
631.272	29552
631.334	30420
631.397	30635
631.459	29254
631.522	33231
631.584	33824
631.646	37887
631.709	39066
631.771	39319
631.834	37674
631.896	34342
631.958	30330
632.021	31180
632.083	27882
632.145	29123
632.208	27553
632.270	28376
632.332	27273
632.395	26551
632.457	26957
632.519	26703
632.581	27459
632.643	26136
632.706	25660
632.768	24268
632.830	27196
632.892	27671
632.954	26605
633.016	28141
633.078	27043
633.141	26807
633.203	26699
633.265	27204
633.327	26559
633.389	25980
633.451	27700
633.513	27117
633.575	27681
633.637	28138
633.698	28450
633.760	29684
633.822	31543
633.884	31844
633.946	33208
634.008	34557
634.070	36585
634.132	40503
634.193	43322
634.255	48051
634.317	48273
634.379	46499
634.441	42020
634.502	37342
634.564	34134
634.626	30853
634.687	28744
634.749	27939
634.811	27484
634.873	26778
634.934	26941
634.996	28322
635.057	26569
635.119	27267
635.181	28119
635.242	30436
635.304	26364
635.365	31346
635.427	27641
635.488	29223
635.550	27563
635.611	29280
635.673	27492
635.734	33135
635.796	33161
635.857	37707
635.918	40059
635.980	45531
636.041	48908
636.102	52179
636.164	54073
636.225	51506
636.286	42598
636.348	38398
636.409	33447
636.470	31378
636.531	29531
636.593	27663
636.654	27377
636.715	26379
636.776	24899
636.838	24499
636.899	23681
636.960	23659
637.021	22717
637.082	23086
637.143	21425
637.204	21307
637.265	20642
637.326	22480
637.387	22877
637.448	21888
637.509	22720
637.570	22782
637.631	23257
637.692	20211
637.753	19019
637.814	20910
637.875	19429
637.936	21000
637.997	19307
638.058	19812
638.119	20968
638.179	20852
638.240	19906
638.301	20452
638.362	19438
638.423	18685
638.483	18844
638.544	17288
638.605	18798
638.666	18439
638.726	19378
638.787	20482
638.848	18416
638.908	17765
638.969	18241
639.030	17443
639.090	17179
639.151	17311
639.211	17920
639.272	18695
639.332	20001
639.393	19843
639.453	21632
639.514	22443
639.574	19186
639.635	16934
639.695	17612
639.756	16799
639.816	17922
639.877	17304
639.937	18871
639.997	18905
640.058	15476
640.118	15976
640.178	17233
640.239	16583
640.299	17047
640.359	16939
640.420	19000
640.480	22962
640.540	25891
640.600	26064
640.661	22782
640.721	19677
640.781	21103
640.841	17954
640.901	19159
640.961	18676
641.021	19001
641.082	20529
641.142	17618
641.202	18034
641.262	14024
641.322	16595
641.382	14842
641.442	16597
641.502	15584
641.562	16877
641.622	16591
641.682	19214
641.742	22297
641.802	20115
641.861	17306
641.921	15380
641.981	16010
642.041	14568
642.101	14295
642.161	13134
642.221	15108
642.280	15077
642.340	15075
642.400	14250
642.460	16900
642.519	16387
642.579	15881
642.639	17001
642.698	13564
642.758	18409
642.818	16573
642.877	15711
642.937	16306
642.997	16038
643.056	16346
643.116	14874
643.175	17734
643.235	17257
643.294	17441
643.354	19332
643.414	20471
643.473	24572
643.532	30374
643.592	42210
643.651	63279
643.711	107400
643.770	206005
643.830	476726
643.889	855803
643.948	256763
644.008	59743
644.067	34760
644.126	25904
644.186	23683
644.245	20379
644.304	18017
644.363	19443
644.423	16924
644.482	16898
644.541	19005
644.600	17751
644.659	24486
644.719	32442
644.778	48561
644.837	84248
644.896	173565
644.955	379991
645.014	124202
645.073	30545
645.132	22791
645.191	20839
645.250	18266
645.309	21379
645.368	23383
645.427	31843
645.486	56854
645.545	98383
645.604	28353
645.663	17568
645.722	17599
645.781	19351
645.840	22168
645.898	27643
645.957	39654
646.016	58043
646.075	103774
646.134	197184
646.192	503271
646.251	667972
646.310	133226
646.369	41264
646.427	34434
646.486	24007
646.545	19365
646.603	17970
646.662	17022
646.721	15835
646.779	16477
646.838	15314
646.896	22254
646.955	30456
647.014	51094
647.072	99306
647.131	264696
647.189	121056
647.248	21673
647.306	15065
647.365	14973
647.423	10736
647.481	13310
647.540	10100
647.598	12052
647.657	10975
647.715	11988
647.773	10079
647.832	12205
647.890	8998
647.948	9615
648.007	10612
648.065	8253
648.123	9222
648.181	10413
648.240	9727
648.298	9944
648.356	9424
648.414	9978
648.472	8402
648.531	9979
648.589	8331
648.647	8935
648.705	8197
648.763	9221
648.821	10509
648.879	10128
648.937	10763
648.995	15116
649.053	19479
649.111	29676
649.169	48454
649.227	88716
649.285	187607
649.343	492859
649.401	231943
649.459	35401
649.516	20570
649.574	15700
649.632	19915
649.690	23211
649.748	24404
649.806	35831
649.863	71463
649.921	195091
649.979	122264
650.037	17886
650.094	8838
650.152	9297
650.210	7864
650.268	7905
650.325	7361
650.383	8567
650.440	6722
650.498	7307
650.556	6407
650.613	5923
650.671	6407
650.728	6974
650.786	7135
650.843	11693
650.901	7344
650.958	5745
651.016	5960
651.073	6034
651.131	5408
651.188	4363
651.246	4425
651.303	4079
651.360	6025
651.418	3715
651.475	5662
651.532	4415
651.590	5328
651.647	4361
651.704	5317
651.762	4924
651.819	5038
651.876	3475
651.933	4030
651.990	5285
652.048	2700
652.105	4768
652.162	4124
652.219	4000
652.276	4329
652.333	4838
652.390	3685
652.448	4369
652.505	4021
652.562	3927
652.619	3926
652.676	5558
652.733	5599
652.790	4700
652.847	3061
652.904	4837
652.961	3124
653.017	3558
653.074	4001
653.131	4026
653.188	3650
653.245	4787
653.302	2697
653.359	3238
653.415	3743
653.472	3710
653.529	3907
653.586	3956
653.642	2725
653.699	4862
653.756	2689
653.813	3688
653.869	4619
653.926	3591
653.983	3832
654.039	3830
654.096	3357
654.152	4338
654.209	2826
654.266	3815
654.322	2036
654.379	4500
654.435	4052
654.492	3132
654.548	3729
654.605	3706
654.661	4298
654.717	3221
654.774	3715
654.830	3466
654.887	3239
654.943	3581
655.000	3203
655.056	3915
655.112	3539
655.168	2610
655.225	3504
655.281	4433
655.337	3838
655.394	3348
655.450	3908
655.506	3498
655.562	2910
655.618	4846
655.675	2801
655.731	3364
655.787	2397
655.843	3856
655.899	2234
655.955	4158
656.011	3463
656.067	3223
656.123	3968
656.179	3396
656.235	5204
656.291	3166
656.347	5054
656.403	3851
656.459	3239
656.515	3246
656.571	3286
656.627	3090
656.683	3171
656.739	3642
656.795	2796
656.850	3590
656.906	3287
656.962	4520
657.018	2065
657.074	5041
657.129	6970
657.185	12295
657.241	26869
657.297	15357
657.352	3950
657.408	3015
657.464	4055
657.519	2880
657.575	1902
657.630	2633
657.686	2823
657.742	2116
657.797	2331
657.853	2473
657.908	4019
657.964	2074
658.019	3006
658.075	2637
658.130	3087
658.186	1326
658.241	2617
658.297	2298
658.352	2218
658.407	3454
658.463	1046
658.518	2509
658.573	2109
658.629	2522
658.684	1566
658.739	3266
658.795	1951
658.850	1830
658.905	1507
658.960	2408
659.016	2174
659.071	1938
659.126	2255
659.181	2567
659.236	2647
659.291	2500
659.346	1775
659.401	2266
659.457	2466
659.512	3125
659.567	2694
659.622	3077
659.677	1490
659.732	1471
659.787	2345
659.842	2304
659.897	2591
659.952	3109
660.007	2201
660.061	2328
660.116	829
660.171	1345
660.226	1562
660.281	3197
660.336	1771
660.391	2549
660.445	2029
660.500	1943
660.555	2106
660.610	2593
660.664	2766
660.719	1724
660.774	2428
660.828	2819
660.883	1213
660.938	2867
660.992	816
661.047	2208
661.101	1686
661.156	2200
661.211	1041
661.265	2045
661.320	1578
661.374	1676
661.429	1574
661.483	3056
661.538	732
661.592	2131
661.647	2034
661.701	2792
661.755	2319
661.810	3282
661.864	797
661.919	2068
661.973	2603
662.027	2671
662.081	1223
662.136	1977
662.190	2573
662.244	2465
662.299	1609
662.353	2694
662.407	1679
662.461	1653
662.515	1962
662.569	1235
662.624	1683
662.678	1706
662.732	1416
662.786	1169
662.840	1868
662.894	2524
662.948	2164
663.002	2336
663.056	1713
663.110	1743
663.164	1831
663.218	2786
663.272	1811
663.326	1754
663.380	2996
663.434	2320
663.488	1144
663.542	2357
663.595	1814
663.649	1990
663.703	2202
663.757	2090
663.811	1328
663.864	2150
663.918	2103
663.972	1542
664.026	1744
664.079	2750
664.133	2051
664.187	2646
664.240	2591
664.294	2679
664.348	2371
664.401	2329
664.455	1914
664.508	1897
664.562	2370
664.615	2953
664.669	2076
664.722	2157
664.776	1544
664.829	2360
664.883	2005
664.936	1522
664.990	1736
665.043	2112
665.097	1697
665.150	2532
665.203	1502
665.257	2431
665.310	2441
665.363	2024
665.417	3117
665.470	1804
665.523	1403
665.576	2744
665.630	2433
665.683	2138
665.736	2367
665.789	2875
665.842	1245
665.895	2695
665.949	2373
666.002	2608
666.055	2040
666.108	2880
666.161	2356
666.214	3023
666.267	2387
666.320	2818
666.373	3580
666.426	3344
666.479	2687
666.532	2630
666.585	2276
666.638	3205
666.691	2445
666.744	2945
666.796	1913
666.849	2361
666.902	3295
666.955	3044
667.008	1765
667.060	1930
667.113	1922
667.166	2455
667.219	2805
667.271	2783
667.324	2728
667.377	2917
667.430	2033
667.482	3156
667.535	2241
667.587	2483
667.640	3221
667.693	3002
667.745	2344
667.798	2930
667.850	2239
667.903	2487
667.955	2294
668.008	3274
668.060	2556
668.113	2715
668.165	2590
668.218	2765
668.270	2090
668.322	2478
668.375	1947
668.427	2341
668.479	1583
668.532	2450
668.584	2234
668.636	2824
668.689	2080
668.741	2028
668.793	2367
668.845	3017
668.898	1867
668.950	1967
669.002	3037
669.054	2241
669.106	1488
669.158	2261
669.211	2549
669.263	2575
669.315	2216
669.367	2073
669.419	2379
669.471	2772
669.523	2298
669.575	2665
669.627	1881
669.679	2145
669.731	2089
669.783	2817
669.835	1864
669.886	2800
669.938	1943
669.990	2757
670.042	1789
670.094	3000
670.146	1602
670.197	2356
670.249	3797
670.301	2758
670.353	3810
670.404	5213
670.456	5737
670.508	8578
670.560	14108
670.611	22322
670.663	37129
670.715	92176
670.766	145307
670.818	43389
670.869	7858
670.921	5528
670.972	4225
671.024	4487
671.075	3024
671.127	3671
671.178	2101
671.230	3371
671.281	3323
671.333	4135
671.384	5709
671.436	7358
671.487	11058
671.538	16282
671.590	26499
671.641	44268
671.692	80363
671.744	151555
671.795	103851
671.846	34048
671.897	14485
671.949	9196
672.000	6136
672.051	6257
672.102	4882
672.153	3553
672.204	2802
672.256	3776
672.307	3370
672.358	2923
672.409	1662
672.460	3394
672.511	1400
672.562	1971
672.613	1787
672.664	2237
672.715	2133
672.766	1734
672.817	1759
672.868	1326
672.919	1281
672.970	1907
673.021	1940
673.071	1811
673.122	1572
673.173	1592
673.224	1492
673.275	1219
673.326	1221
673.376	1804
673.427	873
673.478	1647
673.528	1330
673.579	1872
673.630	2033
673.680	3803
673.731	1687
673.782	1605
673.832	1216
673.883	1077
673.934	592
673.984	1193
674.035	1619
674.085	1300
674.136	1830
674.186	2016
674.237	1331
674.287	2312
674.338	2319
674.388	1645
674.438	1709
674.489	2812
674.539	1286
674.589	1752
674.640	2022
674.690	1543
674.740	1768
674.791	1789
674.841	1715
674.891	1276
674.942	1321
674.992	1414
675.042	1011
675.092	1537
675.142	1042
675.193	1584
675.243	1191
675.293	1455
675.343	645
675.393	1792
675.443	1229
675.493	1488
675.543	175
675.593	2027
675.643	2185
675.693	2323
675.743	1256
675.793	1161
675.843	1060
675.893	1247
675.943	1594
675.993	1428
676.043	752
676.093	1363
676.142	671
676.192	1654
676.242	922
676.292	575
676.341	588
676.391	1293
676.441	371
676.491	1167
676.540	1006
676.590	1253
676.640	1111
676.689	862
676.739	-155
676.789	810
676.838	639
676.888	1056
676.937	713
676.987	881
677.037	999
677.086	836
677.136	987
677.185	1511
677.235	319
677.284	1060
677.333	411
677.383	444
677.432	382
677.482	815
677.531	584
677.580	327
677.630	-269
677.679	1116
677.728	272
677.778	1478
677.827	522
677.876	267
677.925	781
677.975	451
678.024	1401
678.073	1308
678.122	753
678.171	847
678.220	628
678.269	2502
678.319	2457
678.368	1845
678.417	2152
678.466	1501
678.515	898
678.564	768
678.613	124
678.662	601
678.711	650
678.760	568
678.809	941
678.857	1197
678.906	558
678.955	789
679.004	637
679.053	-243
679.102	70
679.151	1079
679.199	238
679.248	752
679.297	26
679.346	95
679.394	-32
679.443	-153
679.492	1372
679.540	850
679.589	493
679.638	824
679.686	509
679.735	1883
679.784	2160
679.832	1824
679.881	748
679.929	1423
679.978	564
680.026	312
680.075	608
680.123	-423
680.172	635
680.220	1072
680.268	307
680.317	390
680.365	539
680.414	1213
680.462	318
680.510	1087
680.559	233
680.607	644
680.655	90
680.703	576
680.752	141
680.800	808
680.848	630
680.896	-75
680.945	-119
680.993	565
681.041	454
681.089	948
681.137	921
681.185	591
681.233	431
681.258	376
681.281	308
681.329	895
681.377	1050
681.380	1016
681.425	108
681.473	1453
681.502	497
681.521	-194
681.569	1575
681.617	797
681.624	853
681.665	1110
681.713	873
681.745	1171
681.761	1296
681.809	-67
681.857	1231
681.867	1039
681.904	313
681.952	227
681.989	530
682.000	594
682.048	1393
682.096	620
682.111	795
682.143	1131
682.191	717
682.233	1483
682.239	1589
682.286	1746
682.334	1431
682.354	1117
682.382	607
682.430	688
682.476	1174
682.477	1173
682.525	1349
682.572	721
682.598	770
682.620	777
682.667	830
682.715	1553
682.720	1542
682.763	1319
682.810	1591
682.841	1240
682.857	1016
682.905	1042
682.952	1167
682.963	1250
683.000	1538
683.047	852
683.085	2291
683.095	2652
683.142	1373
683.190	2385
683.206	2197
683.237	1869
683.284	1951
683.328	1335
683.332	1266
683.379	1890
683.426	849
683.449	1143
683.473	1454
683.521	1244
683.568	1820
683.571	1820
683.615	1631
683.662	1668
683.693	1534
683.709	1426
683.757	1889
683.804	2010
683.814	1945
683.851	1706
683.898	1735
683.936	1818
683.945	1850
683.992	1982
684.039	2665
684.057	2374
684.086	1789
684.133	2148
684.179	1789
684.180	1772
684.227	2610
684.274	1642
684.300	1837
684.321	1939
684.368	1860
684.415	2265
684.422	2162
684.462	1561
684.509	2037
684.543	1926
684.556	1865
684.603	2401
684.649	1897
684.665	1890
684.696	1874
684.743	1977
684.786	2842
684.790	2901
684.837	2276
684.883	3117
684.908	2628
684.930	2162
684.977	2983
685.023	2137
685.029	2231
685.070	2909
685.117	2898
685.150	2141
685.164	1844
685.210	2895
685.257	3442
685.272	3234
685.303	2755
685.350	3241
685.393	2680
685.396	2620
685.443	2692
685.490	2929
685.514	2818
685.536	2762
685.583	2485
685.629	2182
685.636	2185
685.675	2255
685.722	2608
685.757	2860
685.768	2934
685.815	2402
685.861	2594
685.878	2705
685.908	2828
685.954	2307
686.000	3313
686.000	3327
686.047	2398
686.093	2864
686.121	3064
686.139	3127
686.185	3711
686.232	2994
686.242	3138
686.278	3664
686.324	3310
686.363	3601
686.370	3635
686.416	3216
686.463	4043
686.484	3636
686.509	3279
686.555	3169
686.601	3722
686.606	3747
686.647	3794
686.693	3143
686.727	3432
686.739	3543
686.785	3564
686.831	3726
686.848	3446
686.877	3068
686.923	3075
686.969	3607
686.969	3609
687.015	3942
687.061	3739
687.090	4118
687.107	4256
687.153	3814
687.199	4001
687.211	3799
687.245	3291
687.291	3656
687.332	3659
687.336	3667
687.382	4232
687.428	3423
687.453	3683
687.474	3917
687.520	3750
687.565	4055
687.574	4059
687.611	3954
687.657	4265
687.695	3856
687.702	3828
687.748	4314
687.794	4756
687.816	4585
687.839	4275
687.885	4405
687.931	4750
687.937	4575
687.976	3575
688.022	4309
688.058	4075
688.067	4007
688.113	4206
688.158	3484
688.179	3572
688.204	3813
688.249	3823
688.295	4099
688.300	4120
688.340	4353
688.386	4694
688.421	4110
688.431	3937
688.477	5009
688.522	4478
688.542	4826
688.567	5359
688.613	5174
688.658	5739
688.663	5722
688.703	5196
688.749	4697
688.784	4776
688.794	4872
688.839	4813
688.884	4703
688.905	4743
688.930	4738
688.975	4746
689.020	4830
689.026	4810
689.065	4810
689.110	4738
689.146	4549
689.155	4501
689.201	5019
689.246	5344
689.267	5182
689.291	4999
689.336	5300
689.381	5317
689.388	5222
689.426	4780
689.471	5253
689.509	5144
689.516	5129
689.561	5393
689.606	4899
689.630	5079
689.651	5258
689.696	4945
689.741	5490
689.750	5374
689.785	5119
689.830	5637
689.871	5347
689.875	5294
689.920	5432
689.965	5458
689.992	5082
690.010	4936
690.054	5036
690.099	5523
690.112	5495
690.144	5418
690.189	5105
690.233	5232
690.233	5240
690.278	5336
690.323	4691
690.354	5241
690.367	5437
690.412	4791
690.457	4745
690.474	4807
690.501	5168
690.546	5035
690.590	5605
690.595	5609
690.635	5237
690.680	5048
690.716	4699
690.724	4747
690.769	5309
690.813	5867
690.836	5670
690.857	5671
690.902	6766
690.946	7285
690.957	7461
690.991	8561
691.035	10505
691.077	12178
691.080	12171
691.124	10646
691.168	9556
691.198	8788
691.213	8388
691.257	7244
691.301	6028
691.318	5693
691.346	5838
691.390	5659
691.434	5716
691.439	5695
691.478	5712
691.522	6408
691.559	5934
691.567	5856
691.611	6376
691.655	5924
691.680	5963
691.699	5881
691.743	5679
691.787	5998
691.800	5785
691.831	5611
691.875	5975
691.919	6128
691.921	6115
691.964	5903
692.008	5936
692.041	6009
692.052	6081
692.096	5920
692.139	6354
692.162	6318
692.183	6225
692.227	6464
692.271	6203
692.282	6187
692.315	6050
692.359	5868
692.402	5537
692.403	5551
692.447	5731
692.490	6384
692.523	6402
692.534	6366
692.578	6312
692.622	6318
692.643	6344
692.666	6383
692.709	6222
692.753	6464
692.763	6412
692.797	6263
692.840	6146
692.884	6204
692.884	6219
692.928	6164
692.971	6122
693.004	6314
693.015	6355
693.059	6274
693.102	6189
693.124	6133
693.146	6202
693.189	6605
693.233	6429
693.245	6522
693.276	6754
693.320	6415
693.363	6723
693.365	6698
693.407	6531
693.450	6592
693.485	6778
693.493	6889
693.537	7401
693.580	7725
693.605	7838
693.624	8263
693.667	9335
693.710	10505
693.725	10932
693.753	13296
693.797	17223
693.840	20807
693.845	21150
693.883	18644
693.926	15702
693.966	13422
693.970	13274
694.013	10753
694.056	9306
694.086	7758
694.099	7569
694.142	7297
694.185	6748
694.206	6568
694.229	6601
694.272	6648
694.315	6831
694.326	6752
694.358	6825
694.401	7237
694.444	7406
694.446	7398
694.487	7006
694.530	6705
694.566	6386
694.573	6370
694.616	5908
694.659	5976
694.686	5779
694.702	5938
694.745	6339
694.787	6936
694.806	7083
694.830	6911
694.873	6579
694.916	6658
694.926	6532
694.959	6609
695.002	6791
695.044	6997
695.046	6997
695.087	7289
695.130	7291
695.166	7284
695.172	7297
695.215	7304
695.258	7465
695.286	7340
695.301	7331
695.343	7567
695.386	7683
695.406	7660
695.428	7762
695.471	7964
695.514	8302
695.526	8350
695.556	9200
695.599	10519
695.641	11612
695.646	11724
695.684	11149
695.726	10254
695.766	9461
695.769	9456
695.811	8890
695.854	8695
695.886	8368
695.896	8454
695.938	8662
695.981	8943
696.005	9141
696.023	9506
696.065	10089
696.108	10986
696.125	11219
696.150	11175
696.192	11134
696.235	11027
696.245	11001
696.277	11278
696.319	11602
696.361	11822
696.365	11806
696.404	11450
696.446	11234
696.485	10827
696.488	10853
696.530	11020
696.572	10968
696.604	10979
696.614	10963
696.656	10849
696.698	10638
696.724	10446
696.740	10592
696.783	10891
696.825	11381
696.844	11557
696.867	11638
696.909	11524
696.951	11565
696.964	11531
696.992	11587
697.034	11633
697.076	11723
697.083	11701
697.118	11899
697.160	12130
697.202	12433
697.203	12406
697.244	12167
697.286	11966
697.323	11760
697.327	11808
697.369	11969
697.411	12071
697.442	12149
697.453	12132
697.494	11837
697.536	11696
697.562	11481
697.578	11638
697.620	12112
697.661	12512
697.682	12696
697.703	12811
697.744	12900
697.786	13121
697.801	13128
697.828	13105
697.869	12995
697.911	12897
697.921	12854
697.952	12848
697.994	12746
698.035	12659
698.040	12614
698.077	12611
698.118	12555
698.160	12520
698.160	12485
698.201	13304
698.243	14008
698.279	14679
698.284	14739
698.325	14887
698.367	15094
698.399	15133
698.408	15173
698.449	15241
698.491	15282
698.518	15284
698.532	15294
698.573	15197
698.614	15093
698.638	14989
698.656	15051
698.697	15119
698.738	15171
698.757	15163
698.779	15160
698.820	15053
698.862	14974
698.877	14903
698.903	15188
698.944	15577
698.985	15973
698.996	16042
699.026	15711
699.067	15197
699.116	14548
699.235	15793
699.354	15402
699.474	13841
699.593	15109
699.713	14867
699.832	13797
699.951	14643
700.070	14551
700.190	13839
700.309	13344
700.428	13333
700.547	12890
700.667	12996
700.786	12967
700.905	12242
701.024	12469
701.143	11843
701.262	12961
701.381	12784
701.500	13053
701.619	13570
701.738	12890
701.857	13170
701.976	12166
702.095	12626
702.214	13333
702.333	12076
702.452	13007
702.571	12827
702.690	12899
702.809	13241
702.928	11896
703.047	12463
703.165	11846
703.284	11097
703.403	11315
703.522	11377
703.640	10610
703.759	11331
703.878	10760
703.997	11116
704.115	10915
704.234	11806
704.353	11399
704.471	10886
704.590	9819
704.708	10739
704.827	10684
704.946	10673
705.064	10160
705.183	11673
705.301	10974
705.420	11097
705.538	10862
705.656	9575
705.775	9526
705.893	11572
706.012	12693
706.130	10838
706.249	11256
706.367	9621
706.485	10412
706.604	8875
706.722	9257
706.840	12117
706.958	12682
707.077	10356
707.195	9020
707.313	9507
707.431	8617
707.549	8593
707.668	8484
707.786	9534
707.904	9786
708.022	10102
708.140	9226
708.258	8740
708.376	9702
708.494	7797
708.612	8655
708.730	11545
708.848	9387
708.966	10057
709.084	9717
709.202	9848
709.320	9043
709.438	8668
709.556	9098
709.674	9436
709.791	8558
709.909	8588
710.027	8464
710.145	8524
710.263	8956
710.380	8584
710.498	7940
710.616	8609
710.733	7283
710.851	8149
710.969	7757
711.086	7184
711.204	7516
711.322	7720
711.439	7489
711.557	7703
711.674	8229
711.792	7214
711.909	7293
712.027	7978
712.144	7877
712.262	7292
712.379	7215
712.497	8645
712.614	8369
712.732	7993
712.849	7941
712.966	8913
713.084	9097
713.201	7562
713.318	8722
713.436	8448
713.553	8103
713.670	10022
713.787	9422
713.905	8756
714.022	8656
714.139	9992
714.256	12746
714.373	20350
714.490	40841
714.608	119780
714.725	501896
714.842	424494
714.959	34976
715.076	15311
715.193	11458
715.310	10683
715.427	7895
715.544	8801
715.661	8491
715.778	8122
715.895	7664
716.011	8144
716.128	7272
716.245	7161
716.362	7431
716.479	7184
716.596	6557
716.713	7021
716.829	6511
716.946	6209
717.063	5568
717.180	6255
717.296	6613
717.413	6598
717.530	5553
717.646	6002
717.763	5895
717.880	6176
717.996	4523
718.113	5992
718.229	5485
718.346	5650
718.462	4872
718.579	5554
718.695	6567
718.812	5828
718.928	5578
719.045	5755
719.161	5915
719.277	5837
719.394	6728
719.510	6411
719.626	7048
719.743	10121
719.859	17769
719.975	40695
720.092	178741
720.208	352622
720.324	35386
720.440	10350
720.557	7072
720.673	7620
720.789	7406
720.905	11022
721.021	5863
721.137	5468
721.253	4638
721.369	5325
721.486	4329
721.602	5871
721.718	4350
721.834	5316
721.950	4396
722.066	5101
722.181	4756
722.297	4678
722.413	4419
722.529	4654
722.645	4453
722.761	3946
722.877	4580
722.993	6284
723.108	6565
723.224	5829
723.340	4287
723.456	4497
723.571	5250
723.687	4067
723.803	4175
723.918	3349
724.034	4260
724.150	4556
724.265	4450
724.381	5696
724.497	5634
724.612	4234
724.728	3587
724.843	3641
724.959	3709
725.074	5643
725.190	4568
725.305	4280
725.421	3885
725.536	4624
725.651	4110
725.767	3568
725.882	3436
725.997	3815
726.113	4044
726.228	4005
726.343	3851
726.459	2954
726.574	3076
726.689	3264
726.804	3780
726.920	3291
727.035	3869
727.150	3819
727.265	3492
727.380	4216
727.495	3382
727.610	2965
727.725	3194
727.841	3870
727.956	4887
728.071	4261
728.186	3171
728.301	2460
728.416	3545
728.531	3952
728.645	2505
728.760	4426
728.875	3743
728.990	3439
729.105	3950
729.220	3156
729.335	3137
729.449	3910
729.564	3338
729.679	3368
729.794	3170
729.908	3522
730.023	3760
730.138	3756
730.253	4019
730.367	2679
730.482	3649
730.596	4086
730.711	3482
730.826	6376
730.940	5433
731.055	4656
731.169	4028
731.284	4252
731.398	5026
731.513	5301
731.627	5313
731.742	7928
731.856	8059
731.970	8239
732.085	10579
732.199	17562
732.313	32617
732.428	95037
732.542	296293
732.656	147269
732.771	23700
732.885	13440
732.999	11280
733.113	11796
733.227	10878
733.342	10924
733.456	9960
733.570	9841
733.684	9017
733.798	8880
733.912	9187
734.026	8710
734.140	8482
734.254	7753
734.368	8601
734.482	8983
734.596	8172
734.710	7618
734.824	8129
734.938	9045
735.052	8406
735.166	8445
735.280	7384
735.393	7692
735.507	7912
735.621	7933
735.735	7353
735.849	8089
735.962	7039
736.076	8502
736.190	7734
736.303	7769
736.417	8177
736.531	6546
736.644	7393
736.758	6473
736.872	6394
736.985	6626
737.099	6880
737.212	6618
737.326	6561
737.439	6626
737.553	6201
737.666	6999
737.780	5960
737.893	6647
738.007	6054
738.120	7058
738.233	4914
738.347	6574
738.460	6427
738.573	6618
738.687	4726
738.800	7617
738.913	6948
739.026	6861
739.140	5499
739.253	6249
739.366	5467
739.479	6028
739.592	5942
739.705	6233
739.818	5768
739.932	5889
740.045	6068
740.158	5791
740.271	5283
740.384	5559
740.497	5484
740.610	5505
740.723	4490
740.836	5493
740.949	5820
741.062	7235
741.174	4721
741.287	4649
741.400	5639
741.513	4886
741.626	5143
741.739	5020
741.851	4999
741.964	5614
742.077	5496
742.189	4941
742.302	5123
742.415	5232
742.527	4404
742.640	5764
742.753	4291
742.865	4624
742.978	4438
743.090	4255
743.203	4798
743.316	4598
743.428	4854
743.541	4922
743.653	4039
743.766	4936
743.878	4951
743.990	4060
744.103	5523
744.215	4850
744.327	4192
744.440	6068
744.552	4743
744.664	4103
744.777	3974
744.889	3915
745.001	4426
745.113	4996
745.226	4056
745.338	4885
745.450	4561
745.562	3905
745.674	3247
745.786	5083
745.898	4472
746.010	3693
746.122	4386
746.234	4605
746.347	4590
746.459	4834
746.570	3304
746.682	5000
746.794	4887
746.906	4848
747.018	4048
747.130	4368
747.242	2673
747.354	3951
747.466	3852
747.577	3133
747.689	4258
747.801	4224
747.913	2880
748.024	3320
748.136	3743
748.248	3359
748.359	3514
748.471	3377
748.583	2904
748.694	3428
748.806	4274
748.918	3597
749.029	3410
749.141	3917
749.252	4164
749.364	3201
749.475	3473
749.587	3332
749.698	2862
749.809	2888
749.921	3645
750.032	3543
750.144	3066
750.255	2911
750.366	3136
750.478	3153
750.589	3004
750.700	2502
750.811	3195
750.923	3005
751.034	2790
751.145	3985
751.256	2642
751.367	2448
751.479	2237
751.590	2460
751.701	2832
751.812	2862
751.923	3109
752.034	3689
752.145	2766
752.256	3668
752.367	3142
752.478	3526
752.589	2897
752.700	4171
752.811	2042
752.922	2156
753.032	2840
753.143	3753
753.254	2253
753.365	3864
753.476	3041
753.586	3195
753.697	2986
753.808	2211
753.919	2043
754.029	2495
754.140	2335
754.251	2770
754.361	1728
754.472	3098
754.582	2631
754.693	3008
754.804	3058
754.914	2211
755.025	2226
755.135	2030
755.246	3747
755.356	2476
755.466	3192
755.577	2718
755.687	2156
755.798	2125
755.908	2477
756.018	2047
756.129	2107
756.239	2507
756.349	2431
756.460	3114
756.570	3711
756.680	2876
756.790	2864
756.900	2660
757.011	2524
757.121	2401
757.231	2097
757.341	2677
757.451	2089
757.561	1599
757.671	2133
757.781	2471
757.891	2355
758.001	2342
758.111	2609
758.221	3290
758.331	3370
758.441	2380
758.551	2947
758.661	3459
758.771	2581
758.880	2908
758.990	2795
759.100	2946
759.210	3063
759.320	3160
759.429	2479
759.539	3718
759.649	2602
759.758	4302
759.868	4921
759.978	3887
760.087	4791
760.197	5637
760.307	4741
760.416	4250
760.526	2773
760.635	4122
760.745	4377
760.854	5782
760.964	6444
761.073	5440
761.182	5394
761.292	4376
761.401	4303
761.511	3118
761.620	2930
761.729	3568
761.839	2644
761.948	3034
762.057	2077
762.166	3222
762.276	2032
762.385	3848
762.494	2918
762.603	2943
762.712	2965
762.822	2550
762.931	2745
763.040	1704
763.149	2388
763.258	2694
763.367	3173
763.476	2442
763.585	2317
763.694	3475
763.803	2918
763.912	4197
764.021	2661
764.130	4060
764.238	3717
764.347	4219
764.456	3584
764.565	3789
764.674	3691
764.783	4496
764.891	3763
765.000	5870
765.109	5836
765.217	5497
765.326	6515
765.435	8394
765.543	9699
765.652	11746
765.761	15082
765.869	22153
765.978	34150
766.086	57747
766.195	111655
766.303	240917
766.412	386351
766.520	312973
766.629	162931
766.737	72173
766.846	40979
766.954	27645
767.062	19961
767.171	15113
767.279	12223
767.387	10284
767.496	8589
767.604	7977
767.712	6794
767.820	6235
767.928	6105
768.037	4868
768.145	5615
768.253	5513
768.361	4661
768.469	5386
768.577	4907
768.685	6080
768.793	5515
768.901	6891
769.009	7243
769.117	7629
769.225	8727
769.333	14615
769.441	24131
769.549	43389
769.657	97117
769.765	240820
769.873	312073
769.981	161961
770.088	57643
770.196	27743
770.304	19131
770.412	13925
770.519	10383
770.627	8559
770.735	7278
770.842	6620
770.950	6085
771.058	5636
771.165	6074
771.273	6313
771.380	5868
771.488	7647
771.595	7477
771.703	6989
771.810	5601
771.918	6227
772.025	6689
772.133	7910
772.240	7307
772.348	8415
772.455	8204
772.562	7493
772.670	6399
772.777	7571
772.884	7859
772.991	7061
773.099	6770
773.206	6200
773.313	6943
773.420	6733
773.528	5915
773.635	6367
773.742	6321
773.849	6936
773.956	5823
774.063	6158
774.170	5555
774.277	7007
774.384	5439
774.491	5054
774.598	5761
774.705	5287
774.812	5687
774.919	6525
775.026	5571
775.133	6068
775.239	4867
775.346	5709
775.453	5448
775.560	5084
775.667	6085
775.773	4588
775.880	5992
775.987	4713
776.093	5143
776.200	5528
776.307	3517
776.413	5242
776.520	5616
776.627	5337
776.733	3964
776.840	2882
776.946	7047
777.053	5451
777.159	5878
777.266	4505
777.372	6139
777.478	5914
777.585	5441
777.691	3617
777.798	4333
777.904	5358
778.010	4327
778.117	4863
778.223	4727
778.329	4783
778.435	3446
778.542	4877
778.648	3543
778.754	3844
778.860	4605
778.966	4233
779.072	4093
779.178	4693
779.284	2727
779.391	3362
779.497	2983
779.603	5815
779.708	2877
779.815	6775
779.920	12337
780.026	16825
780.132	5322
780.238	3618
780.344	2309
780.450	5427
780.556	3142
780.661	3773
780.767	3458
780.873	3097
780.979	3373
781.085	3619
781.190	2981
781.296	3357
781.402	3882
781.507	2983
781.613	2621
781.719	3112
781.824	3511
781.930	3905
782.035	3152
782.141	3765
782.246	2413
782.352	2893
782.457	2440
782.563	3478
782.668	2803
782.773	2876
782.879	1839
782.984	3115
783.090	2922
783.195	3800
783.300	3933
783.405	3174
783.511	2177
783.616	2713
783.721	2830
783.826	2379
783.932	2781
784.037	2691
784.142	3251
784.247	3015
784.352	2851
784.457	2337
784.562	2323
784.667	2188
784.772	2042
784.877	1618
784.982	2527
785.087	2747
785.192	2760
785.297	2175
785.402	2463
785.507	2230
785.611	2555
785.716	1311
785.821	2020
785.926	2457
786.031	2837
786.135	1945
786.240	2435
786.345	1088
786.450	2209
786.554	1905
786.659	1389
786.763	1339
786.868	3197
786.973	3126
787.077	1560
787.182	950
787.286	2218
787.391	2238
787.495	665
787.600	2333
787.704	1617
787.809	2473
787.913	1199
788.017	2409
788.122	2215
788.226	2561
788.330	1137
788.435	2334
788.539	1909
788.643	1236
788.747	1483
788.852	1749
788.956	1826
789.060	2531
789.164	1921
789.268	1838
789.372	1744
789.476	1830
789.580	903
789.684	1201
789.788	2028
789.892	1470
789.996	1706
790.100	635
790.204	1015
790.308	2393
790.412	125
790.516	715
790.620	761
790.724	2578
790.828	973
790.931	1458
791.035	2078
791.139	1331
791.242	1005
791.346	2565
791.450	1913
791.554	1391
791.657	384
791.761	2846
791.864	1382
791.968	2212
792.072	1999
792.175	1570
792.279	1158
792.382	560
792.486	1554
792.589	1142
792.693	1543
792.796	607
792.899	1883
793.003	2290
793.106	59
793.209	1258
793.313	1887
793.416	877
793.519	2248
793.623	1954
793.726	1581
793.829	795
793.932	486
794.035	494
794.138	1508
794.242	2487
794.345	752
794.448	1397
794.551	1181
794.654	5716
794.757	7943
794.860	1875
794.963	1336
795.066	420
795.169	1930
795.272	966
795.375	1979
795.477	240
795.580	1388
795.683	-609
795.786	1359
795.889	736
795.991	1159
796.094	1598
796.197	-95
796.300	3316
796.402	1068
796.505	-82
796.608	23
796.710	1520
796.813	1813
796.915	1679
797.018	1555
797.120	1007
797.223	185
797.326	2486
797.428	864
797.530	989
797.633	434
797.735	2813
797.838	767
797.940	1547
798.042	1176
798.145	879
798.247	1107
798.349	-488
798.452	1934
798.554	828
798.656	599
798.758	2494
798.860	680
798.962	645
799.065	82
799.167	47
799.269	1886
799.371	2297
799.473	2347
799.575	880
799.677	974
799.779	2175
799.881	-389
799.983	1638
800.085	1467
800.187	1390
800.289	-28
800.390	1159
800.492	1295
800.594	1791
800.696	596
800.798	968
800.899	158
801.001	1209
801.103	409
801.205	689
801.306	1237
801.408	630
801.509	612
801.611	1270
801.713	855
801.814	-149
801.916	548
802.017	477
802.119	-316
802.220	787
802.322	-935
802.423	2028
802.525	-1027
802.626	791
802.727	1880
802.829	1730
802.930	-1130
803.031	1452
803.133	648
803.234	1044
803.335	1176
803.436	-500
803.538	-109
803.639	272
803.740	908
803.841	-56
803.942	1488
804.043	1200
804.144	-91
804.245	1117
804.346	122
804.447	362
804.548	155
804.649	1477
804.750	253
804.851	27
804.952	437
805.053	1244
805.154	-214
805.255	2619
805.355	329
805.456	199
805.557	493
805.658	321
805.758	498
805.859	135
805.960	857
806.061	608
806.161	-45
806.262	-167
806.362	18
806.463	-120
806.564	1271
806.664	866
806.765	101
806.865	1110
806.966	-162
807.066	-431
807.166	875
807.267	1340
807.367	-24
807.468	899
807.568	-1242
807.668	1070
807.769	721
807.869	-21
807.969	268
808.069	845
808.170	435
808.270	-467
808.370	767
808.470	1385
808.570	9
808.670	710
808.770	127
808.870	237
808.970	658
809.070	4
809.170	-61
809.271	1553
809.370	-328
809.470	1171
809.570	-460
809.670	155
809.770	-487
809.870	169
809.970	105
810.070	1644
810.169	297
810.269	-733
810.369	475
810.469	300
810.568	-337
810.668	-541
810.768	-357
810.867	766
810.967	-427
811.066	363
811.166	57
811.265	984
811.365	-811
811.464	-262
811.564	145
811.663	835
811.763	-830
811.862	1558
811.962	41
812.061	-672
812.160	-287
812.260	526
812.359	177
812.458	-733
812.557	492
812.657	892
812.756	905
812.855	387
812.954	-582
813.053	800
813.153	417
813.252	-755
813.351	338
813.450	-40
813.549	-431
813.648	490
813.747	172
813.846	767
813.945	545
814.044	480
814.143	-349
814.242	1445
814.341	-552
814.439	978
814.538	66
814.637	853
814.736	613
814.835	1270
814.933	895
815.032	850
815.131	1195
815.229	4630
815.328	5037
815.427	4244
815.525	2965
815.624	2972
815.722	2663
815.821	3537
815.919	3383
816.018	2627
816.116	4256
816.215	3227
816.313	3603
816.412	4895
816.510	3671
816.609	6428
816.707	4786
816.805	4156
816.904	3938
817.002	4755
817.100	5157
817.198	5866
817.296	4222
817.395	5096
817.493	4644
817.591	3324
817.689	4418
817.787	3506
817.885	4472
817.983	4303
818.081	6076
818.179	9733
818.277	22130
818.375	16051
818.473	5319
818.571	3374
818.669	5331
818.767	5454
818.865	3566
818.963	3948
819.061	4679
819.158	5956
819.256	9506
819.354	17255
819.452	38826
819.549	19966
819.647	6153
819.745	3097
819.842	3365
819.940	3745
820.038	2475
820.135	3810
820.233	4363
820.330	2626
820.428	2404
820.525	4368
820.623	2473
820.720	2863
820.818	3353
820.915	4042
821.012	3569
821.110	2364
821.207	3506
821.304	2659
821.402	3115
821.499	3983
821.596	3351
821.693	2927
821.791	4057
821.888	3742
821.985	3736
822.082	2515
822.179	3117
822.276	3704
822.373	2865
822.470	2372
822.567	2957
822.664	1826
822.761	2972
822.858	2384
822.955	3284
823.052	2496
823.149	1741
823.246	3246
823.343	1795
823.440	2651
823.536	1834
823.633	2376
823.730	1363
823.827	2765
823.923	3383
824.020	3132
824.117	2964
824.213	1611
824.310	2062
824.407	2427
824.503	3215
824.600	2148
824.696	1704
824.793	2970
824.889	2951
824.986	1738
825.082	767
825.179	1585
825.275	3034
825.371	3189
825.468	1512
825.564	749
825.660	3249
825.757	3186
825.853	2627
825.949	928
826.045	1636
826.142	1870
826.238	1558
826.334	1777
826.430	2023
826.526	1016
826.622	503
826.718	2065
826.814	2010
826.910	2264
827.006	18
827.102	1343
827.198	1648
827.294	2479
827.390	1873
827.486	1911
827.582	334
827.678	1308
827.774	2475
827.869	1073
827.965	2241
828.061	414
828.157	2813
828.252	2206
828.348	807
828.444	1964
828.539	316
828.635	1529
828.731	2251
828.826	1105
828.922	1715
829.017	2118
829.113	2004
829.208	1576
829.304	1349
829.399	3552
829.495	851
829.590	1810
829.685	874
829.781	2514
829.876	1113
829.971	600
830.066	782
830.162	1364
830.257	2245
830.352	932
830.447	720
830.543	2068
830.638	987
830.733	2397
830.828	660
830.923	2070
831.018	1233
831.113	1478
831.208	-316
831.303	1174
831.398	422
831.493	1625
831.588	2210
831.683	852
831.778	705
831.873	1104
831.967	2014
832.062	1897
832.157	159
832.252	1782
832.346	700
832.441	1291
832.536	975
832.631	2418
832.725	1416
832.820	528
832.914	573
833.009	1150
833.104	87
833.198	947
833.293	953
833.387	1480
833.482	1007
833.576	528
833.670	1437
833.765	803
833.859	1533
833.954	1873
834.048	1523
834.142	893
834.237	166
834.331	1053
834.425	890
834.519	205
834.613	1682
834.708	553
834.802	712
834.896	652
834.990	170
835.084	919
835.178	748
835.272	707
835.366	626
835.460	2584
835.554	273
835.648	28
835.742	-292
835.836	-97
835.930	384
836.024	709
836.117	895
836.211	1013
836.305	218
836.399	1505
836.493	-888
836.586	1456
836.680	-170
836.774	816
836.867	1354
836.961	-105
837.055	-38
837.148	538
837.242	779
837.335	894
837.429	400
837.522	459
837.616	75
837.709	1819
837.803	-7
837.896	1085
837.989	607
838.083	546
838.176	431
838.269	678
838.363	120
838.456	-473
838.549	752
838.642	549
838.735	1214
838.829	1219
838.922	-735
839.015	838
839.108	13
839.201	657
839.294	825
839.387	959
839.480	-101
839.573	235
839.666	504
839.759	238
839.852	-403
839.945	571
840.038	-55
840.131	-144
840.223	77
840.316	818
840.409	353
840.502	491
840.594	875
840.687	-758
840.780	-6
840.873	-572
840.965	-465
841.058	777
841.150	1091
841.243	-251
841.336	1040
841.428	465
841.521	99
841.613	-319
841.706	956
841.798	80
841.890	-329
841.983	-190
842.075	1166
842.167	820
842.260	-723
842.352	1860
842.444	-386
842.537	37
842.629	862
842.721	952
842.813	-228
842.905	-740
842.997	234
843.090	-390
843.182	-142
843.274	-803
843.366	1800
843.458	2893
843.550	2485
843.642	-578
843.734	298
843.826	-382
843.918	-23
844.009	525
844.101	165
844.193	-118
844.285	202
844.377	479
844.469	599
844.560	-191
844.652	-115
844.744	249
844.835	584
844.927	301
845.019	53
845.110	549
845.202	55
845.293	404
845.385	-615
845.476	-134
845.568	815
845.659	-615
845.751	-1008
845.842	98
845.934	-898
846.025	510
846.116	-618
846.208	-422
846.299	-248
846.390	249
846.482	150
846.573	168
846.664	-987
846.755	-189
846.846	954
846.937	-575
847.029	277
847.120	-502
847.211	55
847.302	1648
847.393	-875
847.484	234
847.575	-356
847.666	-93
847.757	-1527
847.847	1138
847.938	964
848.029	3
848.120	-711
848.211	271
848.302	-1235
848.392	94
848.483	-99
848.574	-419
848.664	-769
848.755	624
848.846	201
848.936	-731
849.027	-527
849.118	511
849.208	-253
849.299	1496
849.389	3334
849.480	8604
849.570	17105
849.661	34781
849.751	55506
849.841	18487
849.932	1640
850.022	-575
850.112	648
850.203	-92
850.293	189
850.383	532
850.474	-1163
850.564	-305
850.654	-626
850.744	-694
850.834	165
850.924	-577
851.014	724
851.104	113
851.194	-191
851.284	-262
851.374	-316
851.464	830
851.554	-478
851.644	-432
851.734	109
851.824	115
851.914	-492
852.004	888
852.094	-674
852.183	-111
852.273	-273
852.363	-5
852.452	376
852.542	1329
852.632	-701
852.721	-162
852.811	115
852.901	806
852.990	321
853.080	625
853.169	659
853.259	973
853.348	578
853.438	1544
853.527	2233
853.617	3713
853.706	9460
853.795	17900
853.885	39365
853.974	72216
854.063	131690
854.152	179094
854.242	68962
854.331	15120
854.420	7046
854.509	3363
854.598	2913
854.687	2121
854.777	1791
854.866	804
854.955	1288
855.044	1207
855.133	-192
855.222	263
855.311	-408
855.400	692
855.488	-203
855.577	-134
855.666	-469
855.755	1078
855.844	-925
855.933	-563
856.021	365
856.110	148
856.199	-835
856.288	-241
856.376	-735
856.465	-962
856.554	-352
856.642	452
856.731	-133
856.819	252
856.908	-488
856.996	103
857.085	-873
857.173	-940
857.262	-726
857.350	93
857.438	-235
857.527	807
857.615	-506
857.703	52
857.792	-490
857.880	-43
857.968	-926
858.056	-110
858.145	71
858.233	-547
858.321	-594
858.409	-252
858.497	-588
858.585	-1410
858.673	-628
858.761	9
858.849	-279
858.937	429
859.025	-26
859.113	135
859.201	-670
859.289	757
859.377	-52
859.465	-34
859.552	8
859.640	-38
859.728	-310
859.816	74
859.903	-1379
859.991	-1171
860.079	-587
860.166	-310
860.254	-95
860.342	82
860.429	-762
860.517	-521
860.604	-623
860.692	-642
860.779	-1140
860.867	74
860.954	-872
861.042	421
861.129	94
861.216	-386
861.304	-954
861.391	199
861.478	-708
861.565	-139
861.653	-75
861.740	-1081
861.827	-476
861.914	-504
862.001	-612
862.089	186
862.176	-443
862.263	-816
862.350	-433
862.437	-349
862.524	-860
862.611	-163
862.698	204
862.785	714
862.871	563
862.958	-576
863.045	-561
863.132	477
863.219	-422
863.306	-642
863.392	-71
863.479	50
863.566	-159
863.652	-116
863.739	244
863.826	818
863.912	518
863.999	-309
864.086	-190
864.172	377
864.259	392
864.345	257
864.432	129
864.518	613
864.604	-110
864.691	-87
864.777	645
864.863	1675
864.950	2114
865.036	3171
865.122	6191
865.209	7252
865.295	5369
865.381	5703
865.467	4860
865.553	6936
865.639	8627
865.726	12510
865.812	24547
865.898	41902
865.984	61013
866.070	109678
866.156	108818
866.242	32450
866.328	10117
866.414	6938
866.499	6124
866.585	5243
866.671	4223
866.757	4852
866.843	4772
866.928	3261
867.014	3539
867.100	4429
867.186	3447
867.271	3453
867.357	3551
867.442	3468
867.528	3141
867.614	3101
867.699	3556
867.785	4586
867.870	2402
867.956	4104
868.041	3733
868.127	3410
868.212	3960
868.297	3923
868.383	3317
868.468	3937
868.553	3878
868.639	4301
868.724	3062
868.809	3767
868.894	2498
868.979	2766
869.065	3447
869.150	2145
869.235	3409
869.320	3014
869.405	2517
869.490	4025
869.575	2811
869.660	2562
869.745	2154
869.830	3607
869.915	2532
870.000	2427
870.085	2695
870.169	3737
870.254	3022
870.339	2104
870.424	1088
870.509	2849
870.593	2858
870.678	3068
870.763	2048
870.847	1969
870.932	2837
871.016	3076
871.101	1182
871.186	3646
871.270	3673
871.355	1145
871.439	2124
871.523	2770
871.608	1228
871.692	1801
871.777	2115
871.861	2914
871.945	1677
872.030	2906
872.114	1952
872.198	1696
872.282	1264
872.367	1544
872.451	1159
872.535	2377
872.619	1884
872.703	2212
872.787	2848
872.871	2317
872.955	1164
873.039	1940
873.123	2420
873.207	2330
873.291	465
873.375	1160
873.459	2376
873.543	2066
873.627	1642
873.711	1955
873.794	2535
873.878	898
873.962	949
874.045	1490
874.129	1939
874.137	1919
874.213	1722
874.245	1411
874.296	912
874.352	1167
874.380	1285
874.460	1231
874.464	1229
874.547	1108
874.568	1340
874.631	2005
874.676	2001
874.714	2011
874.784	2038
874.798	2037
874.881	3074
874.892	2827
874.965	1163
874.999	1678
875.048	2357
875.107	2887
875.131	3095
875.215	1443
875.215	1443
875.298	1012
875.323	1356
875.381	2183
875.430	2385
875.465	2460
875.538	2549
875.548	2567
875.631	996
875.646	971
875.714	857
875.753	1082
875.798	1369
875.861	1909
875.881	2037
875.964	1795
875.968	1726
876.047	737
876.076	1030
876.130	1495
876.183	1290
876.213	1203
876.291	2047
876.296	2093
876.379	1211
876.398	1211
876.462	1342
876.506	1087
876.545	863
876.613	1547
876.628	1686
876.711	1344
876.721	1415
876.794	2002
876.828	2132
876.877	2248
876.935	1715
876.960	1537
877.043	1444
877.043	1447
877.125	2412
877.150	2364
877.208	2220
877.258	2259
877.291	2189
877.365	1227
877.374	1130
877.456	1300
877.472	1344
877.539	1762
877.579	2025
877.622	2156
877.687	2079
877.704	2097
877.787	2255
877.794	2248
877.869	2205
877.901	2372
877.952	2378
878.008	1712
878.034	1465
878.115	505
878.117	495
878.199	810
878.222	1172
878.282	2237
878.329	2593
878.364	2590
878.437	1996
878.447	1939
878.529	1503
878.544	1531
878.611	1674
878.651	1931
878.694	2426
878.758	2761
878.776	2799
878.858	2547
878.865	2582
878.941	2640
878.972	1955
879.023	1130
879.078	1596
879.105	1909
879.185	2421
879.187	2432
879.269	3054
879.292	3063
879.351	2941
879.399	2246
879.433	1730
879.506	2607
879.516	2724
879.598	2205
879.613	2104
879.680	1863
879.720	2292
879.762	2814
879.827	2440
879.844	2262
879.926	1796
879.933	1826
880.007	2731
880.040	2749
880.089	2459
880.147	3077
880.171	3545
880.253	5565
880.254	5567
880.335	6049
880.360	6565
880.417	9187
880.467	12507
880.499	14649
880.574	16958
880.580	16684
880.662	7992
880.680	6543
880.744	2986
880.787	2282
880.825	2588
880.893	2731
880.907	2706
880.989	2545
881.000	2572
881.070	3365
881.106	3308
881.152	2703
881.213	2420
881.233	2479
881.315	2635
881.319	2613
881.396	2451
881.426	2579
881.478	2947
881.532	3338
881.559	3374
881.639	2551
881.641	2534
881.722	2678
881.745	2516
881.803	2698
881.852	2957
881.885	2933
881.958	2829
881.966	2834
882.047	2663
882.064	2575
882.129	2013
882.171	1804
882.210	1692
882.277	1592
882.291	1727
882.372	2633
882.383	2716
882.454	3029
882.489	3088
882.535	3184
882.596	3755
882.616	3872
882.697	3706
882.702	3658
882.778	2531
882.808	2278
882.859	2137
882.914	2257
882.940	2490
883.020	2842
883.021	2853
883.102	3244
883.127	3481
883.183	4304
883.233	4413
883.264	3837
883.339	2867
883.345	2796
883.426	1621
883.445	1517
883.507	2469
883.551	2628
883.587	2770
883.657	3533
883.668	3628
883.749	4136
883.763	4117
883.830	2466
883.869	1780
883.910	1873
883.975	1921
883.991	2081
884.072	2891
884.081	2923
884.152	3425
884.187	3833
884.233	4264
884.292	4566
884.314	4020
884.394	1948
884.398	1828
884.475	1486
884.504	1584
884.555	2214
884.610	2569
884.636	2739
884.716	3262
884.716	3281
884.797	4611
884.821	5003
884.877	4433
884.927	3730
884.958	3539
885.033	3151
885.038	3110
885.118	2090
885.139	1911
885.199	2664
885.244	3068
885.279	3091
885.350	3567
885.359	3765
885.439	4926
885.456	5055
885.520	3478
885.561	2782
885.600	2877
885.667	3005
885.680	3090
885.760	3401
885.773	3445
885.840	3098
885.878	2817
885.920	2818
885.984	2757
886.000	2934
886.080	4250
886.089	4352
886.160	4323
886.195	4089
886.240	3853
886.300	3834
886.320	3727
886.400	3119
886.406	3063
886.480	2513
886.511	2311
886.560	2525
886.616	2823
886.640	3002
886.720	3492
886.722	3487
886.800	3227
886.827	3238
886.879	3458
886.932	3503
886.959	3796
887.038	4637
887.039	4639
887.119	3710
887.143	3311
887.198	3442
887.248	3804
887.278	3820
887.354	3517
887.358	3524
887.437	3568
887.459	3557
887.517	3793
887.564	3935
887.596	3514
887.669	2425
887.676	2377
887.755	1833
887.774	1679
887.835	2034
887.880	2375
887.914	2810
887.985	3489
887.994	3657
888.073	5212
888.090	5473
888.153	5904
888.195	6202
888.232	5521
888.300	4236
888.311	4132
888.391	3262
888.405	3102
888.470	3041
888.510	2981
888.549	2967
888.615	2907
888.628	3137
888.708	4478
888.720	4673
888.787	4463
888.825	4275
888.866	3376
888.930	2034
888.945	2211
889.024	3070
889.035	3178
889.103	4213
889.140	4734
889.182	4382
889.245	3856
889.261	4028
889.340	4758
889.349	4828
889.419	4092
889.454	3710
889.498	3584
889.559	3373
889.577	3497
889.656	4024
889.664	4066
889.735	4465
889.768	4638
889.814	4295
889.873	3809
889.978	4358
890.083	4559
890.187	4970
890.292	5027
890.397	4434
890.501	3260
890.606	2824
890.710	3980
890.815	4891
890.919	3699
891.024	3629
891.128	2540
891.233	3799
891.337	5115
891.442	5600
891.546	4377
891.650	2689
891.755	3349
891.859	4561
891.963	5143
892.068	4058
892.172	4340
892.276	2116
892.380	3864
892.484	5240
892.589	4815
892.693	3852
892.797	2480
892.901	2114
893.005	4150
893.109	5158
893.213	4997
893.317	3874
893.421	2665
893.525	2019
893.629	3128
893.733	5339
893.837	3206
893.941	3297
894.045	2889
894.148	2045
894.252	2418
894.356	4398
894.460	6549
894.564	3408
894.667	3548
894.771	1905
894.875	1807
894.978	3297
895.082	3894
895.186	4124
895.289	3128
895.393	3513
895.496	4877
895.600	2919
895.703	2293
895.807	2639
895.910	3434
896.014	3435
896.117	1503
896.221	4110
896.324	4696
896.427	2588
896.531	2263
896.634	3536
896.737	3148
896.840	3685
896.944	4576
897.047	4201
897.150	3937
897.253	2396
897.356	2443
897.460	1908
897.563	3185
897.666	3618
897.769	4205
897.872	2438
897.975	3148
898.078	2833
898.181	3335
898.284	2769
898.387	4422
898.490	3953
898.593	2823
898.695	3130
898.798	2799
898.901	2675
899.004	4206
899.107	3341
899.209	2928
899.312	5396
899.415	2702
899.518	2603
899.620	2002
899.723	2612
899.826	2755
899.928	2594
900.031	2815
900.133	4314
900.236	2650
900.338	2199
900.441	2375
900.543	2152
900.646	3481
900.748	2509
900.851	3484
900.953	1831
901.055	2412
901.158	2285
901.260	2724
901.362	1255
901.465	2663
901.567	3883
901.669	4221
901.771	2818
901.873	2970
901.976	2659
902.078	3018
902.180	1439
902.282	2061
902.384	2580
902.486	4442
902.588	2483
902.690	2951
902.792	1863
902.894	3340
902.996	3723
903.098	4142
903.200	2389
903.302	2375
903.404	2728
903.505	2403
903.607	3254
903.709	4560
903.811	4040
903.913	2736
904.014	1746
904.116	1481
904.218	1361
904.319	2982
904.421	4560
904.523	3386
904.624	1775
904.726	2361
904.827	2171
904.929	2121
905.030	3128
905.132	3679
905.233	4131
905.335	1935
905.436	2488
905.537	1988
905.639	2835
905.740	2318
905.841	3480
905.943	3016
906.044	2114
906.145	2216
906.247	1969
906.348	2617
906.449	2962
906.550	3492
906.651	2756
906.752	1747
906.854	1540
906.955	2699
907.056	1504
907.157	3894
907.258	3528
907.359	2660
907.460	1571
907.561	2213
907.662	1966
907.762	2123
907.863	2653
907.964	2998
908.065	2081
908.166	2637
908.267	1613
908.367	2336
908.468	1692
908.569	2193
908.670	3021
908.770	2903
908.871	3258
908.971	3565
909.072	2079
909.173	1873
909.273	2640
909.374	3404
909.474	2914
909.575	2476
909.675	1790
909.776	3401
909.876	2491
909.977	1904
910.077	2417
910.177	3542
910.278	2379
910.378	1736
910.478	2224
910.579	3225
910.679	2912
910.779	2682
910.879	2604
910.980	3103
911.080	2596
911.180	2960
911.280	1239
911.380	1311
911.480	1698
911.580	1687
911.680	2754
911.780	3200
911.880	3095
911.980	2235
912.080	1914
912.180	2838
912.280	2679
912.380	2213
912.480	1598
912.580	1911
912.679	2063
912.779	3308
912.879	2931
912.979	2676
913.078	1694
913.178	2019
913.278	1563
913.377	1996
913.477	2239
913.577	1581
913.676	2433
913.776	3456
913.875	2830
913.975	1844
914.074	2525
914.174	2281
914.273	1551
914.373	3079
914.472	2437
914.572	2191
914.671	2725
914.770	1966
914.870	2487
914.969	1846
915.068	2927
915.167	3609
915.267	2117
915.366	2508
915.465	2674
915.564	3290
915.663	2619
915.763	2234
915.862	2944
915.961	3403
916.060	1646
916.159	2015
916.258	1486
916.357	1819
916.456	3258
916.555	3378
916.654	2927
916.752	3968
916.851	2801
916.950	3355
917.049	2415
917.148	1751
917.247	1794
917.345	1374
917.444	2162
917.543	2021
917.642	1978
917.740	2669
917.839	3660
917.937	4550
918.036	3965
918.135	2054
918.233	2525
918.332	3041
918.430	2430
918.529	2299
918.627	3352
918.726	3628
918.824	2661
918.923	2360
919.021	2164
919.119	2264
919.218	2198
919.316	2490
919.414	2288
919.512	3333
919.611	2918
919.709	3893
919.807	3861
919.905	4625
920.003	4030
920.102	3684
920.200	3019
920.298	4376
920.396	4316
920.494	4200
920.592	2397
920.690	4266
920.788	3958
920.886	4360
920.984	4811
921.082	4542
921.180	4561
921.277	4869
921.375	5273
921.473	7854
921.571	6995
921.669	6671
921.766	5591
921.864	7001
921.962	5927
922.060	6259
922.157	6432
922.255	7181
922.352	6029
922.450	8120
922.548	7757
922.645	8041
922.743	10796
922.840	18184
922.938	19065
923.035	18667
923.133	17046
923.230	20236
923.327	23800
923.425	21908
923.522	22034
923.619	19755
923.717	17781
923.814	17894
923.911	18654
924.008	18414
924.106	16357
924.203	17152
924.300	17652
924.397	16628
924.494	17469
924.591	16676
924.688	14733
924.786	16866
924.883	16835
924.979	17415
925.077	16157
925.173	16111
925.270	16611
925.367	16811
925.464	16766
925.561	17618
925.658	17947
925.755	14919
925.852	17970
925.948	16404
926.045	15556
926.142	16699
926.239	17148
926.335	14186
926.432	15577
926.529	16363
926.625	16808
926.722	14554
926.818	14214
926.915	16521
927.011	14696
927.108	15188
927.204	15622
927.301	13400
927.397	16399
927.494	17210
927.590	12986
927.687	13715
927.783	17365
927.879	15901
927.976	13835
928.072	12109
928.168	15106
928.264	15271
928.361	14493
928.457	16602
928.553	13341
928.649	13445
928.745	14517
928.841	12227
928.937	14248
929.033	14217
929.129	13573
929.225	15840
929.321	14026
929.417	12068
929.513	14476
929.609	13090
929.705	11935
929.801	14562
929.897	11862
929.993	13119
930.089	14075
930.184	11714
930.280	13512
930.376	16196
930.471	12063
930.567	10334
930.663	12055
930.758	11312
930.854	11922
930.950	12450
931.045	11050
931.141	11654
931.236	15227
931.332	12390
931.427	9550
931.523	14865
931.618	12353
931.714	9180
931.809	10450
931.905	13432
932.000	9055
932.095	8830
932.191	13536
932.286	15298
932.381	11600
932.476	9635
932.572	11530
932.667	9820
932.762	9970
932.857	12987
932.952	13677
933.047	11905
933.142	9787
933.237	11776
933.332	12296
933.427	12584
933.522	11143
933.617	9062
933.712	10260
933.807	13348
933.902	13422
933.997	12539
934.092	8906
934.187	10700
934.282	11233
934.376	11059
934.471	11721
934.566	9545
934.661	9801
934.755	11054
934.850	12610
934.945	9721
935.039	8604
935.134	7581
935.228	10367
935.323	14237
935.417	9876
935.512	6305
935.606	7936
935.701	10684
935.795	11177
935.890	10223
935.984	8139
936.079	7449
936.173	9969
936.267	8074
936.362	8281
936.456	10413
936.550	13132
936.644	10480
936.738	6567
936.833	8293
936.927	6040
937.021	8264
937.115	9001
937.209	9431
937.303	8549
937.397	6975
937.491	8018
937.585	10756
937.679	9338
937.773	7200
937.867	6313
937.961	7415
938.055	11074
938.149	9174
938.243	6083
938.337	6499
938.430	6887
938.524	10946
938.618	7751
938.712	6951
938.805	7761
938.899	10519
938.993	11137
939.086	7359
939.180	5067
939.274	7239
939.367	9786
939.461	10094
939.554	7360
939.648	7463
939.741	6726
939.835	9486
939.928	11076
940.022	9999
940.115	7481
940.208	9953
940.302	9805
940.395	11533
940.488	7754
940.582	7635
940.675	6017
940.768	6000
940.861	9998
940.954	9724
941.048	5935
941.141	5616
941.234	5777
941.327	7546
941.420	8900
941.513	9413
941.606	6308
941.699	7089
941.792	8901
941.885	7794
941.978	7328
942.071	7971
942.164	5334
942.257	5865
942.349	6531
942.442	8006
942.535	5566
942.628	6156
942.721	6237
942.813	7164
942.906	6386
942.999	6157
943.091	5530
943.184	7188
943.277	6056
943.369	4967
943.462	4185
943.554	5798
943.647	6701
943.739	7871
943.832	8807
943.924	3304
944.017	4572
944.109	4878
944.201	6181
944.294	7015
944.386	5877
944.478	5628
944.571	4772
944.663	5259
944.755	6744
944.847	7224
944.940	6121
945.032	4528
945.124	4397
945.216	5794
945.308	6616
945.400	6381
945.492	5386
945.584	7148
945.676	8471
945.768	7648
945.860	7064
945.952	7995
946.044	6376
946.136	5151
946.228	4814
946.320	5131
946.412	6700
946.503	8107
946.595	8216
946.687	5226
946.779	3227
946.870	4968
946.962	5127
947.054	5328
947.145	5826
947.237	5819
947.329	5385
947.420	5936
947.512	4351
947.603	4206
947.695	3705
947.786	3890
947.878	3497
947.969	6040
948.061	6259
948.152	5575
948.243	3616
948.335	3503
948.426	4480
948.517	5889
948.609	6064
948.700	5744
948.791	5689
948.882	3932
948.973	3256
949.065	6013
949.156	5219
949.247	2742
949.338	3820
949.429	3834
949.520	3575
949.611	5005
949.702	5628
949.793	4487
949.884	5580
949.975	4409
950.066	2658
950.157	4042
950.247	4163
950.338	3898
950.429	4212
950.520	4419
950.611	3166
950.701	5492
950.792	6361
950.883	5996
950.973	4089
951.064	4696
951.155	5660
951.245	6380
951.336	5750
951.427	6319
951.517	6650
951.608	5179
951.698	4393
951.788	3726
951.879	3534
951.969	3393
952.060	3746
952.150	5262
952.240	6145
952.331	4316
952.421	5807
952.511	2790
952.602	2615
952.692	2446
952.782	3157
952.872	3556
952.962	5070
953.052	3825
953.143	3491
953.233	4489
953.323	4385
953.413	5179
953.503	5441
953.593	5109
953.683	4021
953.773	2320
953.863	3090
953.953	3016
954.042	4079
954.132	4982
954.222	5247
954.312	3400
954.402	4088
954.492	3119
954.581	4568
954.671	4593
954.761	3100
954.850	4487
954.940	2833
955.030	2878
955.119	2836
955.209	3667
955.298	4563
955.388	5374
955.477	5207
955.567	3024
955.656	4317
955.746	3997
955.835	3438
955.925	3037
956.014	4884
956.103	5268
956.193	5908
956.282	5703
956.371	3765
956.461	4352
956.550	4437
956.639	3759
956.728	3156
956.817	3535
956.906	4085
956.995	5472
957.085	3098
957.174	3934
957.263	2698
957.352	3282
957.441	4593
957.530	4313
957.619	3154
957.708	3872
957.796	2981
957.885	3496
957.974	2840
958.063	3466
958.152	2548
958.241	3121
958.329	2412
958.418	3998
958.507	3157
958.596	5296
958.684	3015
958.773	4220
958.861	2559
958.950	2276
959.039	3950
959.127	2877
959.216	4621
959.304	3644
959.393	2924
959.481	4909
959.570	3465
959.658	3225
959.746	3451
959.835	3612
959.923	2839
960.011	3841
960.100	3539
960.188	4327
960.276	2965
960.365	3346
960.453	2561
960.541	1076
960.629	2748
960.717	3129
960.805	2156
960.893	2389
960.981	2925
961.069	5318
961.158	5318
961.245	5698
961.333	3630
961.421	3032
961.509	2732
961.597	3311
961.685	3065
961.773	3281
961.861	3695
961.949	4286
962.036	2382
962.124	3296
962.212	1977
962.299	2457
962.387	2497
962.475	2677
962.562	2487
962.650	3896
962.738	2745
962.825	2237
962.913	2233
963.000	2008
963.088	3562
963.175	3345
963.263	1763
963.350	3440
963.438	2453
963.525	3089
963.612	3324
963.700	4771
963.787	7053
963.874	4685
963.962	2202
964.049	2185
964.136	1674
964.223	1999
964.310	2468
964.398	2304
964.485	2121
964.572	3515
964.659	3959
964.746	3624
964.833	2274
964.920	2823
965.007	2018
965.094	2548
965.181	3212
965.268	4034
965.355	2407
965.441	2716
965.528	1719
965.615	3472
965.702	3153
965.789	2187
965.875	3386
965.962	3666
966.049	3866
966.136	3487
966.222	3978
966.309	4704
966.395	4257
966.482	4173
966.569	2716
966.655	4401
966.742	2922
966.828	2380
966.915	2427
967.001	2402
967.087	1200
967.174	2704
967.260	2282
967.347	3048
967.433	4468
967.519	5661
967.605	3766
967.692	3278
967.778	3287
967.864	2825
967.950	2596
968.036	2837
968.123	2785
968.209	2648
968.295	2203
968.381	4267
968.467	2427
968.553	1244
968.639	3216
968.725	2882
968.811	3893
968.897	4476
968.983	2485
969.069	1783
969.154	1755
969.240	3078
969.326	895
969.412	1549
969.497	1645
969.583	1404
969.669	3545
969.755	3435
969.840	3175
969.926	5480
970.012	6129
970.097	7584
970.183	5277
970.268	4338
970.354	3530
970.439	3265
970.525	5174
970.610	2847
970.696	4036
970.781	3026
970.866	1248
970.952	2258
971.037	2168
971.122	2435
971.208	2937
971.293	2330
971.378	2532
971.463	2845
971.549	3043
971.634	2532
971.719	3220
971.804	2921
971.889	2251
971.974	1997
972.059	2704
972.144	3289
972.229	1863
972.314	2688
972.399	2485
972.484	2079
972.569	2706
972.654	1712
972.739	3592
972.824	2840
972.908	2453
972.993	1827
973.078	2262
973.163	3200
973.247	3274
973.332	1406
973.417	3660
973.501	1844
973.586	2566
973.671	3092
973.755	2850
973.840	2337
973.924	3602
974.009	4190
974.093	4413
974.178	4872
974.262	3313
974.346	3948
974.431	3265
974.515	2473
974.600	2746
974.684	2954
974.768	3506
974.852	3351
974.937	2153
975.021	3979
975.105	1918
975.189	2010
975.273	3189
975.358	1442
975.442	1491
975.526	2740
975.610	1903
975.694	2377
975.778	2977
975.862	2680
975.946	1337
976.030	3172
976.114	2582
976.198	2039
976.281	2060
976.365	3710
976.449	2259
976.533	3037
976.617	2076
976.700	2505
976.784	1676
976.868	2209
976.951	2560
977.035	2331
977.119	1809
977.202	3214
977.286	3912
977.369	4823
977.453	5842
977.536	4512
977.620	3940
977.703	4395
977.787	2639
977.870	4115
977.953	3413
978.037	2756
978.120	2505
978.203	3080
978.287	3869
978.370	3189
978.453	2221
978.536	2846
978.620	2534
978.703	3421
978.786	2478
978.869	2835
978.952	2013
979.035	3642
979.118	4406
979.201	2262
979.284	2841
979.367	2316
979.450	2576
979.533	2199
979.616	2340
979.699	3053
979.782	1935
979.865	2705
979.948	2637
980.030	1831
980.113	3084
980.196	1892
980.279	3386
980.361	2587
980.444	2848
980.526	4128
980.609	5039
980.692	6683
980.774	4787
980.857	2700
980.939	4732
981.022	3819
981.104	3744
981.187	2222
981.269	3507
981.352	3538
981.434	1791
981.516	3213
981.599	4017
981.681	2835
981.763	2581
981.846	2922
981.928	3072
982.010	2533
982.092	2400
982.174	3559
982.256	2983
982.339	2762
982.421	2285
982.503	3265
982.585	2810
982.667	3643
982.749	3082
982.831	2226
982.913	1809
982.995	3618
983.077	2631
983.158	5164
983.240	2636
983.322	4556
983.404	6424
983.486	5958
983.568	5927
983.649	4473
983.731	5198
983.813	4462
983.894	3463
983.976	3923
984.058	4149
984.139	5104
984.221	3281
984.302	4162
984.384	3399
984.465	3674
984.547	4278
984.628	3718
984.710	4353
984.791	4358
984.872	3614
984.954	4265
985.035	4407
985.116	3233
985.198	3559
985.279	4080
985.360	3834
985.441	4285
985.522	4231
985.604	4107
985.685	2655
985.766	4145
985.847	5622
985.928	4103
986.009	3849
986.090	3999
986.171	4982
986.252	3909
986.333	3453
986.414	3995
986.495	4150
986.576	5158
986.656	4375
986.737	4656
986.818	4340
986.899	4211
986.980	3975
987.060	5067
987.141	4862
987.222	5912
987.302	6512
987.383	6317
987.464	5805
987.544	6462
987.625	5904
987.705	5234
987.786	6237
987.866	5919
987.947	5546
988.027	6242
988.108	5397
988.188	5071
988.268	4290
988.349	5517
988.429	5243
988.509	5042
988.589	5235
988.670	4006
988.750	6428
988.830	5411
988.910	5524
988.990	5085
989.070	4388
989.151	4897
989.231	3986
989.311	5162
989.391	3836
989.471	4665
989.551	4264
989.631	4439
989.711	5029
989.791	4277
989.870	3741
989.950	5029
990.030	4241
990.110	4368
990.190	3071
990.269	3296
990.349	4213
990.429	4665
990.509	3815
990.588	3278
990.668	3931
990.747	3617
990.827	3774
990.907	4267
990.986	4190
991.066	5000
991.145	3006
991.225	4469
991.304	3557
991.383	3387
991.463	3013
991.542	4385
991.622	2637
991.701	3662
991.780	2599
991.859	3073
991.939	2995
992.018	4511
992.097	3944
992.176	3928
992.256	2638
992.335	2985
992.414	3427
992.493	2928
992.572	2969
992.651	4456
992.730	2454
992.809	3230
992.888	2690
992.967	2755
993.046	3274
993.125	2233
993.203	3159
993.282	3094
993.361	3125
993.440	2781
993.519	2405
993.597	2438
993.676	2544
993.755	3488
993.834	3244
993.912	2981
993.991	3374
994.069	2689
994.148	2378
994.226	2214
994.305	2485
994.384	1945
994.462	3867
994.540	2013
994.619	1571
994.697	3001
994.776	3195
994.854	2765
994.932	2135
995.011	2026
995.089	1935
995.167	2280
995.245	2414
995.324	2295
995.402	2680
995.480	2143
995.558	1463
995.636	2027
995.714	2097
995.792	2963
995.870	2070
995.948	1716
996.026	1897
996.104	1493
996.182	2174
996.260	1072
996.338	1685
996.416	1888
996.494	2003
996.572	3422
996.649	1241
996.727	579
996.805	2301
996.883	2415
996.960	1683
997.038	1838
997.116	2649
997.193	1879
997.271	1979
997.348	957
997.426	1563
997.504	2078
997.581	1914
997.658	1963
997.736	435
997.813	891
997.891	1803
997.968	1061
998.046	1177
998.123	2192
998.200	2058
998.277	2125
998.355	1182
998.432	218
998.509	1118
998.586	2438
998.663	873
998.741	1315
998.818	1553
998.895	1638
998.972	1468
999.049	1636
999.126	189
999.203	1323
999.280	952
999.357	1294
999.434	568
999.511	979
999.587	1485
999.664	714
999.741	1529
999.818	1959
999.895	1490
999.971	1828
1000.048	347
1000.125	2118
1000.202	872
1000.278	472
1000.355	1300
1000.431	1011
1000.508	-262
1000.584	717
1000.661	862
1000.738	723
1000.814	966
1000.890	1915
1000.967	479
1001.043	29
1001.120	-342
1001.196	1823
1001.272	-334
1001.349	846
1001.425	1427
1001.501	1230
1001.577	571
1001.654	1455
1001.730	319
1001.806	60
1001.882	567
1001.958	849
1002.034	1087
1002.110	587
1002.186	111
1002.262	-127
1002.338	-82
1002.414	695
1002.490	1080
1002.566	811
1002.642	-875
1002.718	1749
1002.794	996
1002.870	-160
1002.945	-24
1003.021	446
1003.097	247
1003.173	1052
1003.248	-326
1003.324	796
1003.400	-72
1003.475	-329
1003.551	163
1003.626	-156
1003.702	-410
1003.777	368
1003.853	-271
1003.928	616
1004.004	-124
1004.079	764
1004.155	284
1004.230	-493
1004.305	1387
1004.381	-53
1004.456	-224
1004.531	357
1004.607	-308
1004.682	340
1004.757	-72
1004.832	368
1004.907	-861
1004.982	53
1005.057	251
1005.133	-591
1005.208	36
1005.283	202
1005.358	678
1005.433	-301
1005.508	-232
1005.583	-768
1005.657	239
1005.732	1103
1005.807	351
1005.882	-231
1005.957	-382
1006.032	-319
1006.106	-376
1006.181	-304
1006.256	-168
1006.331	62
1006.405	-416
1006.480	10
1006.554	-894
1006.629	-169
1006.704	-368
1006.778	-98
1006.853	-350
1006.927	-541
1007.002	-876
1007.076	-81
1007.150	-931
1007.225	-128
1007.299	331
1007.373	-399
1007.448	-674
1007.522	170
1007.596	-464
1007.671	288
1007.745	194
1007.819	-966
1007.893	-1080
1007.967	70
1008.041	-1201
1008.115	290
1008.190	-827
1008.264	293
1008.338	-1715
1008.412	-308
1008.486	-622
1008.560	437
1008.633	-1653
1008.707	373
1008.781	341
1008.855	444
1008.929	-255
1009.003	-654
1009.076	-1489
1009.150	25
1009.224	-302
1009.298	-188
1009.371	-1029
1009.445	384
1009.519	-923
1009.592	-720
1009.666	-1116
1009.739	-154
1009.813	-1302
1009.886	-16
1009.960	-366
1010.033	591
1010.107	-110
1010.180	-1506
1010.253	-576
1010.327	-231
1010.400	-707
1010.473	-641
1010.547	-135
1010.620	-1415
1010.693	-424
1010.766	-12
1010.840	97
1010.913	71
1010.986	-813
1011.059	-606
1011.132	-1076
1011.205	-227
1011.278	-949
1011.351	-1037
1011.424	-329
1011.497	-1162
1011.570	-1577
1011.643	-617
1011.716	-1067
1011.789	-756
1011.862	-1234
1011.934	153
1012.007	-2028
1012.080	-829
1012.153	-693
1012.225	606
1012.298	-1644
1012.371	-1029
1012.443	-741
1012.516	-1433
1012.588	-470
1012.661	-127
1012.733	-1486
1012.806	30
1012.879	-822
1012.951	-275
1013.023	-889
1013.096	-333
1013.168	-631
1013.241	-136
1013.313	-680
1013.385	-1043
1013.458	-1382
1013.530	-796
1013.602	-1125
1013.674	769
1013.746	-1635
1013.819	-766
1013.891	-748
1013.963	-1068
1014.035	-642
1014.107	-645
1014.179	-624
1014.251	-1086
1014.323	-1504
1014.395	-1386
1014.467	-1174
1014.539	-639
1014.611	-1888
1014.683	91
1014.754	-465
1014.826	-603
1014.898	-352
1014.970	-2056
1015.042	-271
1015.113	-408
1015.185	-647
1015.257	-1281
1015.328	-640
1015.400	-1293
1015.471	-640
1015.543	-1843
1015.615	-403
1015.686	-343
1015.757	-891
1015.829	-304
1015.901	-1078
1015.972	-634
1016.043	-1715
1016.115	-223
1016.186	-1061
1016.257	-1237
1016.328	-1623
1016.400	-71
1016.471	-1374
1016.542	-1033
1016.613	-1151
1016.685	-548
1016.756	-290
1016.827	-1378
1016.898	-861
1016.969	-162
1017.040	-698
1017.111	-2031
1017.182	-1161
1017.253	-403
1017.324	-1389
1017.395	-509
1017.466	-258
1017.537	-1025
1017.608	-1026
1017.678	-889
1017.749	-718
1017.820	-726
1017.891	-1481
1017.961	-1166
1018.032	-862
1018.103	-424
1018.173	-1459
1018.244	-1132
1018.315	-1280
1018.385	-61
1018.456	-1918
1018.526	-944
1018.597	-677
1018.667	-1330
1018.738	-1266
1018.808	-671
1018.878	-1191
1018.949	-454
1019.019	-924
1019.089	-342
1019.160	-642
1019.230	-1435
1019.300	-1778
1019.371	-1848
1019.441	-1505
1019.511	-694
1019.581	-1011
1019.651	-1723
1019.721	-988
1019.791	-1304
1019.861	-1157
1019.931	-908
1020.001	-1829
1020.071	-342
1020.141	-1381
1020.211	-1708
1020.281	-921
1020.351	-708
1020.421	-1392
1020.491	-780
1020.560	-1744
1020.630	-759
1020.700	-1409
1020.770	-1921
1020.839	-951
1020.909	-884
1020.979	-1433
1021.048	-178
1021.118	-1310
1021.187	-1238
1021.257	-1967
1021.326	-867
1021.396	-781
1021.465	-1480
1021.535	-1662
1021.604	-787
1021.674	-926
1021.743	-603
1021.812	-1620
1021.882	-583
1021.951	-951
1022.020	-993
1022.089	-101
1022.159	-759
1022.228	-1580
1022.297	-907
1022.366	-1163
1022.435	-1637
1022.504	-1295
1022.573	-1163
1022.642	-1263
1022.711	-1833
1022.781	-786
1022.849	-401
1022.918	-1416
1022.987	-813
1023.056	-1092
1023.125	-1048
1023.194	-961
1023.263	-851
1023.331	-716
1023.400	-1059
1023.469	-1233
1023.538	-531
1023.606	-2485
1023.675	-580
1023.744	-1010
1023.812	-862
1023.881	-1361
1023.949	-521
1024.018	-1597
1024.086	-1640
1024.155	-1017
1024.223	-870
1024.292	-1436
1024.360	-1432
1024.429	-498
1024.497	-1773
1024.565	-1084
1024.634	-1510
1024.702	-1617
1024.770	-661
1024.838	-1225
1024.907	-1102
1024.975	-1787
1025.043	-1017
1025.111	-1319
1025.179	-643
1025.247	-1078
1025.315	-1261
1025.383	-1644
1025.451	-2085
1025.519	-1358
1025.587	-1215
1025.655	-1139
1025.723	-1151
1025.791	-1441
1025.859	-1291
1025.927	-851
1025.995	-1427
1026.062	-1033
1026.130	-1452
1026.198	-1953
1026.266	-1753
1026.333	-1430
1026.401	-867
1026.469	-1623
1026.536	-1184
1026.604	-1046
1026.671	-1606
1026.739	-1312
1026.806	-994
1026.874	-1216
1026.941	-1129
1027.009	-1628
1027.076	-1249
1027.144	-1305
1027.211	-931
1027.278	-1473
1027.345	-1932
1027.413	-1475
1027.480	-1194
1027.547	-1787
1027.614	-1077
1027.682	-741
1027.749	-872
1027.816	-1683
1027.883	-1418
1027.950	-839
1028.017	-1986
1028.084	-698
1028.151	-2051
1028.218	-2151
1028.285	-1162
1028.352	-1541
1028.419	-1251
1028.486	-1917
1028.553	-1687
1028.619	-1325
1028.686	-771
1028.753	-1159
1028.820	-1509
1028.886	-2101
1028.953	-889
1029.020	-2158
1029.086	-1406
1029.153	-1320
1029.220	-1611
1029.286	-2187
1029.353	-1213
1029.419	-2058
1029.486	-1261
1029.552	-1247
1029.619	-1508
1029.685	-1852
1029.751	-1690
1029.818	-1975
1029.884	-864
1029.951	-824
1030.017	-2414
1030.083	-1803
1030.149	-1598
1030.216	-1889
1030.282	-1004
1030.348	-1443
1030.414	-1746
1030.480	-1532
1030.546	-1937
1030.612	-672
1030.678	-1467
1030.744	-1618
1030.810	-581
1030.876	-1866
1030.942	-1546
1031.008	-591
1031.074	-1698
1031.140	-984
1031.206	-1373
1031.272	-1424
1031.337	-1038
1031.403	-1113
1031.469	-2215
1031.534	-1366
1031.600	-1632
1031.666	-1992
1031.731	-1631
1031.797	-858
1031.863	-1029
1031.928	-1525
1031.994	-1054
1032.059	-1687
1032.125	-1575
1032.190	-1492
1032.256	-1395
1032.321	-1722
1032.386	-1930
1032.452	-1871
1032.517	-1280
1032.582	-1401
1032.647	-1316
1032.713	-2313
1032.778	-1110
1032.843	-1709
1032.908	-1163
1032.974	-2157
1033.039	-1525
1033.104	-1606
1033.169	-2165
1033.234	-1613
1033.299	-1357
1033.364	-305
1033.429	-1128
1033.494	-587
1033.559	-1216
1033.624	-1527
1033.688	-742
1033.753	-1692
1033.818	-938
1033.883	-299
1033.948	-454
1034.013	-1148
1034.077	43
1034.142	242
1034.207	1223
1034.271	2270
1034.336	4326
1034.400	2268
1034.465	200
1034.530	-722
1034.594	-1234
1034.658	-1505
1034.723	-1267
1034.787	-773
1034.852	-323
1034.916	-1433
1034.981	-1695
1035.045	-620
1035.109	-1197
1035.173	-1279
1035.238	-1521
1035.302	-2070
1035.366	-1658
1035.430	-1861
1035.495	-1560
1035.559	-1623
1035.623	-1093
1035.687	-2108
1035.751	-1778
1035.815	-1744
1035.879	-1900
1035.943	-1489
1036.007	-1716
1036.071	-1366
1036.135	-1739
1036.198	-1480
1036.262	-1622
1036.326	-1369
1036.390	-1058
1036.454	-1758
1036.517	-994
1036.581	-699
1036.645	-655
1036.709	-1270
1036.772	-1765
1036.836	-1629
1036.900	-1494
1036.963	-2064
1037.026	-2382
1037.090	-2181
1037.154	-2007
1037.217	-1832
1037.280	-1668
1037.344	-1728
1037.407	-1912
1037.471	-905
1037.534	-848
1037.597	-1519
1037.661	-964
1037.724	-1349
1037.787	-742
1037.850	-1103
1037.913	-1307
1037.977	-1298
1038.040	-1203
1038.103	-2257
1038.166	-2218
1038.229	-2259
1038.292	-1062
1038.355	-1410
1038.418	-1663
1038.481	-936
1038.544	-2241
1038.607	-1865
1038.670	-2163
1038.732	-2276
1038.795	-1304
1038.858	-1940
1038.921	-1420
1038.984	-1188
1039.046	-2045
1039.109	-2314
1039.172	-1795
1039.234	-1250
1039.297	-2158
1039.360	-1879
1039.422	-1776
1039.485	-1311
1039.547	-2346
1039.610	-1341
1039.672	-1865
1039.734	-1935
1039.797	-1686
1039.859	-1571
1039.922	-2147
1039.984	-2251
1040.046	-1569
1040.109	-2490
1040.171	-1475
1040.233	-1084
1040.295	-1666
1040.358	-2045
1040.420	-2081
1040.482	-1585
1040.544	-1781
1040.606	-1958
1040.668	-1328
1040.730	-1693
1040.792	-1954
1040.854	-2040
1040.916	-1467
1040.978	-2470
1041.040	-1218
1041.102	-1594
1041.164	-2263
1041.225	-2593
1041.287	-1912
1041.349	-1732
1041.411	-1744
1041.472	-2498
1041.534	-1956
1041.596	-1746
1041.657	-1382
1041.719	-2375
1041.781	-1969
1041.842	-1534
1041.904	-1292
1041.965	-1714
1042.027	-2033
1042.088	-1795
1042.150	-1832
1042.211	-1831
1042.272	-1564
1042.334	-1373
1042.395	-1006
1042.456	-2100
1042.518	-1177
1042.579	-1230
1042.640	-2346
1042.701	-1532
1042.763	-2265
1042.824	-1813
1042.885	-2122
1042.946	-2421
1043.007	-1298
1043.068	-2348
1043.129	-1583
1043.190	-1665
1043.251	-1395
1043.312	-1586
1043.373	-1757
1043.434	-2422
1043.495	-954
1043.556	-2239
1043.616	-1127
1043.677	-1542
1043.738	-1259
1043.799	-2611
1043.859	-1948
1043.920	-2021
1043.981	-1890
1044.041	-1510
1044.102	-2167
1044.162	-1588
1044.223	-1056
1044.284	-2121
1044.344	-1549
1044.405	-1397
1044.465	-1586
1044.525	-2216
1044.586	-1789
1044.646	-1464
1044.707	-888
1044.767	-1424
1044.827	-1188
1044.887	-1893
1044.948	-299
1045.008	-2213
1045.068	-2634
1045.128	-1215
1045.188	-1002
1045.249	-879
1045.309	-1559
1045.369	-1481
1045.429	-2220
1045.489	-1279
1045.549	-1638
1045.609	-1549
1045.669	-1703
1045.729	-1276
1045.789	-2319
1045.848	-912
1045.908	-1484
1045.968	-1687
1046.028	-1680
1046.088	-1490
1046.147	-526
1046.207	-1374
1046.267	-997
1046.326	-670
1046.386	-1147
1046.446	-1103
1046.505	-751
1046.565	-872
1046.624	-830
1046.684	-716
1046.743	-509
1046.803	-469
1046.862	-179
1046.922	0
