'Start Wavelength	183.907
'End Wavelength	1046.922
'Gate Delay	5.000
'Gate Width (ms)	1.050
'Laser Output Level	0.000
'X Position	0.000
'Y Position	0.000
'Z Position	0.000
'Grid Point Number	1.000
'Shot Number	100.000
183.907	276.000
183.977	604.000
184.047	342
184.116	69
184.186	473
184.256	352
184.325	-87
184.395	-621
184.465	819
184.534	441
184.604	69
184.674	-59
184.743	131
184.813	66
184.883	-44
184.952	271
185.022	588
185.092	564
185.161	-272
185.231	383
185.301	334
185.370	778
185.440	337
185.509	92
185.579	424
185.649	523
185.718	466
185.788	-78
185.857	-269
185.927	-254
185.996	248
186.066	-762
186.136	377
186.205	246
186.275	291
186.344	1
186.414	696
186.483	-266
186.553	609
186.622	772
186.692	856
186.761	261
186.831	907
186.900	-280
186.970	579
187.039	492
187.109	1061
187.178	452
187.248	783
187.317	728
187.387	159
187.456	608
187.526	403
187.595	735
187.664	-486
187.734	282
187.803	586
187.873	632
187.942	9
188.012	33
188.081	147
188.150	-152
188.220	625
188.289	328
188.358	326
188.428	234
188.497	493
188.567	651
188.636	-36
188.705	257
188.775	-154
188.844	-359
188.913	1036
188.983	419
189.052	-204
189.121	508
189.191	-375
189.260	53
189.329	750
189.399	-146
189.468	264
189.537	25
189.606	954
189.676	599
189.745	1203
189.814	201
189.883	341
189.953	7
190.022	-328
190.091	595
190.161	589
190.230	124
190.299	-200
190.368	-279
190.437	284
190.507	567
190.576	448
190.645	218
190.714	-79
190.783	-217
190.853	799
190.922	447
190.991	530
191.060	243
191.129	-851
191.198	895
191.268	-341
191.337	-347
191.406	1017
191.475	-346
191.544	486
191.613	966
191.682	-67
191.752	372
191.821	310
191.890	134
191.959	521
192.028	499
192.097	604
192.166	-388
192.235	-163
192.304	-139
192.373	170
192.442	320
192.511	490
192.580	464
192.650	283
192.719	-717
192.788	123
192.857	-230
192.926	757
192.995	-149
193.064	326
193.133	565
193.202	-230
193.271	-380
193.340	185
193.409	-235
193.478	268
193.547	363
193.615	-339
193.684	-23
193.753	-867
193.822	-45
193.891	-15
193.960	323
194.029	-314
194.098	-462
194.167	-554
194.236	297
194.305	132
194.374	639
194.443	77
194.512	800
194.580	529
194.649	100
194.718	852
194.787	212
194.856	-69
194.925	-67
194.994	717
195.062	-62
195.131	229
195.200	-997
195.269	643
195.338	-230
195.407	-35
195.475	200
195.544	526
195.613	-559
195.682	638
195.751	-51
195.819	-165
195.888	881
195.957	1081
196.026	-138
196.094	585
196.163	-229
196.232	927
196.301	-451
196.369	74
196.438	-3
196.507	908
196.576	-209
196.644	-365
196.713	182
196.782	468
196.850	473
196.919	837
196.988	-147
197.056	-245
197.125	-386
197.194	15
197.262	-247
197.331	189
197.400	305
197.468	-213
197.537	273
197.606	-279
197.674	640
197.743	286
197.812	-322
197.880	-92
197.949	-428
198.017	-2
198.086	301
198.155	-5
198.223	-296
198.292	-84
198.360	76
198.429	86
198.497	303
198.566	-195
198.635	123
198.703	77
198.772	-20
198.840	154
198.909	-538
198.977	157
199.046	-442
199.114	431
199.183	553
199.251	668
199.320	-509
199.388	577
199.457	148
199.525	153
199.594	211
199.662	116
199.731	-98
199.799	-396
199.867	971
199.936	-567
200.004	379
200.073	908
200.141	-19
200.210	225
200.278	85
200.346	548
200.415	149
200.483	712
200.552	-350
200.620	148
200.688	228
200.757	775
200.825	-108
200.893	61
200.962	568
201.030	47
201.098	-6
201.167	319
201.235	-139
201.303	-276
201.372	375
201.440	44
201.508	211
201.577	62
201.645	496
201.713	-129
201.781	601
201.850	236
201.918	450
201.986	176
202.055	226
202.123	838
202.191	-232
202.259	-132
202.327	316
202.396	144
202.464	803
202.532	-28
202.600	-29
202.669	570
202.737	-142
202.805	-305
202.873	336
202.941	-330
203.009	3
203.078	518
203.146	454
203.214	-5
203.282	-593
203.350	237
203.418	-373
203.487	-304
203.555	-40
203.623	317
203.691	-144
203.759	225
203.827	-190
203.895	-169
203.963	-129
204.031	205
204.099	409
204.168	294
204.236	564
204.304	-341
204.372	158
204.440	-83
204.508	60
204.576	-303
204.644	1078
204.712	-519
204.780	-801
204.848	20
204.916	-782
204.984	50
205.052	-485
205.120	29
205.188	-280
205.256	-120
205.324	-275
205.392	44
205.460	116
205.528	536
205.596	476
205.664	-520
205.732	317
205.799	-269
205.867	-132
205.935	-110
206.003	815
206.071	28
206.139	-307
206.207	238
206.275	-30
206.343	633
206.411	-101
206.478	248
206.546	-1
206.614	-318
206.682	-938
206.750	-376
206.818	268
206.885	351
206.953	-912
207.021	1220
207.089	-192
207.157	27
207.225	43
207.292	-292
207.360	-844
207.428	-766
207.496	-408
207.563	-7
207.631	397
207.699	-622
207.767	-144
207.834	-81
207.902	289
207.970	-425
208.038	356
208.105	284
208.173	36
208.241	-630
208.309	426
208.376	-102
208.444	-90
208.512	-257
208.579	-763
208.647	344
208.715	255
208.782	77
208.850	183
208.918	-118
208.985	-632
209.053	196
209.120	-333
209.188	-749
209.256	-109
209.323	-1065
209.391	-135
209.459	880
209.526	209
209.594	-436
209.661	-513
209.729	755
209.796	630
209.864	39
209.932	-1396
209.999	978
210.067	953
210.134	165
210.202	-420
210.269	27
210.337	507
210.404	174
210.472	-1227
210.539	-424
210.607	-439
210.674	-970
210.742	365
210.809	-301
210.877	-154
210.944	-40
211.012	-1076
211.079	1170
211.146	-363
211.214	-309
211.281	-86
211.349	487
211.416	-105
211.484	-21
211.551	152
211.618	-342
211.686	94
211.753	-239
211.821	-586
211.888	-93
211.955	-110
212.023	282
212.090	-1083
212.157	26
212.225	-725
212.292	267
212.359	-428
212.427	258
212.494	-357
212.561	-215
212.629	-601
212.696	-112
212.763	-26
212.831	-597
212.898	622
212.965	-674
213.032	-545
213.100	248
213.167	-549
213.234	404
213.301	-188
213.369	320
213.436	195
213.503	-833
213.570	286
213.638	-417
213.705	-565
213.772	-277
213.839	-232
213.906	150
213.973	-584
214.041	-682
214.108	731
214.175	722
214.242	-861
214.309	403
214.376	-1180
214.444	-771
214.511	-448
214.578	-87
214.645	421
214.712	-458
214.779	-68
214.846	-808
214.913	-47
214.980	634
215.048	-42
215.115	423
215.182	150
215.249	522
215.316	-57
215.383	448
215.450	-95
215.517	5
215.584	151
215.651	93
215.718	857
215.785	231
215.852	-752
215.919	429
215.986	-353
216.053	-222
216.120	-1054
216.187	-517
216.254	169
216.321	-856
216.388	-933
216.455	-255
216.522	-544
216.589	-943
216.656	-382
216.722	27
216.789	-260
216.856	-381
216.923	-883
216.990	-207
217.057	-287
217.124	-491
217.191	-596
217.258	369
217.324	-73
217.391	605
217.458	-866
217.525	-123
217.592	-763
217.659	-1343
217.725	561
217.792	191
217.859	636
217.926	-1009
217.993	-840
218.059	113
218.126	-649
218.193	-204
218.260	-631
218.327	-42
218.393	-246
218.460	-594
218.527	-754
218.594	245
218.660	-543
218.727	-41
218.794	-1262
218.860	164
218.927	-715
218.994	-763
219.061	-510
219.127	-932
219.194	-106
219.261	265
219.327	-169
219.394	-257
219.461	-1003
219.527	468
219.594	124
219.661	-623
219.727	-910
219.794	528
219.860	-510
219.927	254
219.994	-158
220.060	170
220.127	1499
220.193	592
220.260	-423
220.326	-150
220.393	-284
220.460	-840
220.526	-532
220.593	-386
220.659	1483
220.726	-374
220.792	-683
220.859	-132
220.925	-556
220.992	-332
221.058	-83
221.125	-293
221.191	-300
221.258	-1201
221.324	-235
221.391	167
221.457	-466
221.524	135
221.590	-805
221.657	-447
221.723	-1271
221.789	-870
221.856	-518
221.922	-1772
221.989	-434
222.055	633
222.121	-1029
222.188	1689
222.254	-571
222.321	308
222.387	-972
222.453	-150
222.520	-591
222.586	138
222.652	142
222.719	-765
222.785	-272
222.851	-370
222.918	-1249
222.984	-763
223.050	-634
223.116	-1384
223.183	384
223.249	104
223.315	-1079
223.382	94
223.448	-342
223.514	-522
223.580	-87
223.647	-1164
223.713	-1106
223.779	-106
223.845	-593
223.911	116
223.978	-533
224.044	-167
224.110	-248
224.176	-69
224.242	-456
224.309	-779
224.375	506
224.441	14
224.507	-572
224.573	-1442
224.639	-547
224.705	-1255
224.772	-509
224.838	-665
224.904	80
224.970	434
225.036	-1229
225.102	-703
225.168	178
225.234	-34
225.300	-353
225.366	-247
225.432	719
225.499	601
225.565	74
225.631	-1001
225.697	-287
225.763	16
225.829	-743
225.895	-299
225.961	-395
226.027	1
226.093	-1185
226.159	458
226.225	191
226.291	-385
226.357	-989
226.423	-762
226.489	-302
226.554	-176
226.620	338
226.686	-802
226.752	-500
226.818	-792
226.884	-453
226.950	-617
227.016	-583
227.082	291
227.148	-822
227.214	-123
227.279	-436
227.345	-83
227.411	-127
227.477	1061
227.543	1904
227.609	2350
227.674	1334
227.740	429
227.806	563
227.872	20
227.938	-377
228.003	-332
228.069	24
228.135	-641
228.201	-590
228.267	-33
228.332	-393
228.398	-1082
228.464	-495
228.530	-775
228.595	-341
228.661	-871
228.727	-911
228.792	648
228.858	-124
228.924	-1454
228.990	487
229.055	-706
229.121	287
229.187	-494
229.252	-847
229.318	-981
229.384	-264
229.449	-518
229.515	-2784
229.581	-1315
229.646	698
229.712	-388
229.777	-330
229.843	-113
229.909	-110
229.974	-1001
230.040	-217
230.105	57
230.171	-1546
230.236	-180
230.302	-1125
230.368	-672
230.433	-1109
230.499	41
230.564	-21
230.630	-636
230.695	-699
230.761	701
230.826	-1630
230.892	1410
230.957	-1157
231.023	-1018
231.088	12
231.154	-695
231.219	-35
231.284	-972
231.350	260
231.415	-1016
231.481	192
231.546	-164
231.612	583
231.677	-248
231.742	-1912
231.808	945
231.873	-1035
231.939	-1603
232.004	-63
232.069	-206
232.135	-200
232.200	-383
232.265	-84
232.331	-912
232.396	-488
232.461	-1269
232.527	-666
232.592	-1127
232.657	-329
232.723	-495
232.788	-797
232.853	-246
232.918	-190
232.984	-1573
233.049	-961
233.114	-1467
233.179	-298
233.245	673
233.310	-233
233.375	-1326
233.440	322
233.506	-882
233.571	-1389
233.636	-331
233.701	-664
233.766	-613
233.832	-197
233.897	-1048
233.962	-1334
234.027	856
234.092	-576
234.157	30
234.222	-586
234.288	164
234.353	-565
234.418	83
234.483	-325
234.548	-866
234.613	-1275
234.678	-453
234.743	-694
234.808	515
234.873	-1657
234.938	690
235.004	-825
235.069	-1170
235.134	-1148
235.199	41
235.264	-898
235.329	-1503
235.394	-375
235.459	350
235.524	-1894
235.589	23
235.654	-836
235.719	-1145
235.784	-521
235.849	-232
235.913	-1175
235.978	-740
236.043	-1062
236.108	-763
236.173	-1228
236.238	147
236.303	-1264
236.368	-803
236.433	150
236.498	-998
236.563	-948
236.627	-651
236.692	-646
236.757	-262
236.822	58
236.887	-877
236.952	-525
237.017	-2201
237.081	-174
237.146	-854
237.211	314
237.276	-815
237.341	-450
237.405	-902
237.470	-774
237.535	-521
237.600	-590
237.664	134
237.729	-1473
237.794	-1502
237.859	-43
237.923	-935
237.988	-1165
238.053	728
238.118	-876
238.182	49
238.247	1015
238.312	-1150
238.376	-133
238.441	-2436
238.506	565
238.570	-1348
238.635	257
238.700	-246
238.764	-972
238.829	-655
238.893	-1171
238.958	-84
239.023	-326
239.087	-205
239.152	216
239.216	-1501
239.281	-227
239.346	379
239.410	-943
239.475	-296
239.539	901
239.604	-781
239.668	939
239.733	369
239.797	1874
239.862	5412
239.926	4173
239.991	1768
240.055	803
240.120	10
240.184	396
240.249	-509
240.313	-859
240.378	45
240.442	-251
240.507	357
240.571	-780
240.635	-40
240.700	-882
240.764	-682
240.829	-642
240.893	-428
240.957	548
241.022	689
241.086	921
241.151	-1401
241.215	-551
241.279	1016
241.344	-790
241.408	-91
241.472	-1353
241.537	58
241.601	-148
241.665	-1605
241.730	-445
241.794	6
241.858	-1008
241.922	-585
241.987	-137
242.051	-950
242.115	-633
242.179	343
242.244	-554
242.308	183
242.372	-432
242.436	-348
242.501	181
242.565	-710
242.629	-454
242.693	912
242.757	-1037
242.822	-1119
242.886	-655
242.950	-11
243.014	-1277
243.078	-309
243.142	-497
243.206	-859
243.271	19
243.335	-989
243.399	191
243.463	-993
243.527	-218
243.591	-665
243.655	-100
243.719	-389
243.783	63
243.847	-329
243.911	-382
243.975	-605
244.040	-2084
244.104	914
244.168	-31
244.232	-1512
244.296	-945
244.360	-171
244.424	-776
244.488	-1175
244.552	-212
244.615	-1901
244.679	-44
244.743	-213
244.807	-1422
244.871	3
244.935	781
244.999	-931
245.063	-1047
245.127	-106
245.191	374
245.255	-860
245.319	179
245.383	-1133
245.446	1273
245.510	-985
245.574	-520
245.638	95
245.702	-1439
245.766	337
245.829	670
245.893	-929
245.957	-1181
246.021	598
246.085	-627
246.149	-498
246.212	451
246.276	-400
246.340	-918
246.404	168
246.467	828
246.531	-2384
246.595	193
246.659	980
246.722	-1173
246.786	-126
246.850	-413
246.913	-353
246.977	-1177
247.041	-163
247.104	-70
247.168	120
247.232	313
247.295	1283
247.359	404
247.423	-435
247.486	-830
247.550	822
247.614	-509
247.677	-262
247.741	-1164
247.804	-520
247.868	826
247.932	-175
247.995	809
248.059	-133
248.122	-1771
248.186	440
248.249	549
248.313	1659
248.376	1743
248.440	431
248.503	-1495
248.567	1494
248.630	-1262
248.694	-96
248.757	236
248.821	1379
248.884	1273
248.948	-449
249.011	762
249.075	1811
249.138	1568
249.202	-316
249.265	-1400
249.328	718
249.392	-971
249.455	556
249.519	-498
249.582	-922
249.645	94
249.709	-521
249.772	-1233
249.835	-293
249.899	-832
249.962	-260
250.025	-979
250.089	762
250.152	162
250.215	-826
250.279	-991
250.342	-220
250.405	-587
250.468	-885
250.532	-1385
250.595	-213
250.658	-2133
250.721	413
250.785	-629
250.848	845
250.911	-1258
250.974	-98
251.038	-852
251.101	842
251.164	-559
251.227	98
251.290	-731
251.354	132
251.417	-658
251.480	-685
251.543	-14
251.606	-152
251.669	-437
251.732	197
251.795	-155
251.859	681
251.922	-1487
251.985	285
252.048	894
252.111	-831
252.174	-452
252.237	621
252.300	1975
252.363	208
252.426	1547
252.489	-141
252.552	711
252.615	-1365
252.678	259
252.741	970
252.804	-592
252.867	703
252.930	900
252.993	905
253.056	192
253.119	-730
253.182	-453
253.245	-559
253.308	-254
253.371	-677
253.434	-221
253.497	447
253.559	1051
253.622	-14
253.685	38
253.748	-935
253.811	-388
253.874	-289
253.937	-925
254.000	-765
254.062	-1106
254.125	378
254.188	1417
254.251	-833
254.314	-538
254.376	-268
254.439	521
254.502	865
254.565	-274
254.628	2236
254.690	56
254.753	-519
254.816	-358
254.878	150
254.941	-12
255.004	544
255.067	-1
255.129	-225
255.192	-174
255.255	-1092
255.317	366
255.380	-76
255.443	-275
255.505	402
255.568	-744
255.631	-530
255.693	252
255.756	-1044
255.819	644
255.881	-336
255.944	314
256.006	-382
256.069	-933
256.132	-1166
256.194	-378
256.257	-593
256.319	-233
256.382	-131
256.444	1193
256.507	276
256.569	-314
256.632	-520
256.694	-1221
256.757	-417
256.819	-61
256.882	-1393
256.944	-166
257.007	-860
257.069	-750
257.132	-1041
257.194	188
257.257	-977
257.319	-622
257.381	-1315
257.444	187
257.506	13
257.569	748
257.631	3921
257.693	1219
257.756	-260
257.818	-790
257.880	-168
257.943	-299
258.005	-748
258.067	419
258.130	-842
258.192	-1011
258.254	-623
258.317	53
258.379	674
258.441	545
258.503	386
258.566	-620
258.628	1098
258.690	-1357
258.753	502
258.815	-104
258.877	-776
258.939	-135
259.001	-473
259.064	-200
259.126	-1333
259.188	295
259.250	660
259.312	-293
259.375	2755
259.437	863
259.499	162
259.561	-361
259.623	-93
259.685	-859
259.747	-234
259.809	8
259.872	784
259.934	988
259.996	794
260.058	519
260.120	-1005
260.182	-366
260.244	-206
260.306	-711
260.368	202
260.430	-588
260.492	137
260.554	2480
260.616	1559
260.678	620
260.740	331
260.802	-727
260.864	550
260.926	-1294
260.988	227
261.050	-595
261.112	-358
261.174	1035
261.236	398
261.298	318
261.359	295
261.421	1183
261.483	-212
261.545	590
261.607	-1734
261.669	504
261.731	-287
261.793	-46
261.854	-1199
261.916	64
261.978	-568
262.040	85
262.102	1138
262.164	-1198
262.225	119
262.287	11
262.349	-685
262.411	-51
262.472	393
262.534	-1242
262.596	-224
262.658	404
262.719	-977
262.781	569
262.843	-1433
262.904	3
262.966	-434
263.028	-142
263.090	122
263.151	30
263.213	190
263.275	57
263.336	-339
263.398	852
263.459	-751
263.521	-320
263.583	477
263.644	465
263.706	52
263.767	-566
263.829	141
263.891	41
263.952	-754
264.014	-409
264.075	-618
264.137	-33
264.198	336
264.260	-266
264.321	-262
264.383	-151
264.444	-480
264.506	-982
264.567	251
264.629	355
264.690	-1400
264.752	-522
264.813	-71
264.875	-569
264.936	476
264.998	-142
265.059	-91
265.120	299
265.182	-551
265.243	-897
265.305	-623
265.366	748
265.427	80
265.489	455
265.550	-1018
265.611	-28
265.673	-412
265.734	97
265.795	37
265.857	-92
265.918	-943
265.979	199
266.040	-255
266.102	-97
266.163	-83
266.224	-675
266.286	-259
266.347	-1155
266.408	-445
266.469	575
266.530	-608
266.592	66
266.653	733
266.714	-109
266.775	-198
266.836	-328
266.898	-901
266.959	-986
267.020	-746
267.081	965
267.142	-400
267.203	394
267.264	-433
267.326	1292
267.387	-510
267.448	-412
267.509	89
267.570	-668
267.631	-577
267.692	-752
267.753	-11
267.814	-1030
267.875	80
267.936	-343
267.997	-691
268.058	-913
268.119	-741
268.180	-477
268.241	-335
268.302	-46
268.363	-7
268.424	-934
268.485	-637
268.546	-490
268.607	-479
268.668	-584
268.729	-565
268.790	-851
268.851	-406
268.912	-734
268.972	-30
269.033	-419
269.094	120
269.155	259
269.216	-441
269.277	-706
269.338	-942
269.398	-357
269.459	-955
269.520	-218
269.581	-391
269.642	-263
269.702	-777
269.763	-259
269.824	-858
269.885	-305
269.945	-208
270.006	-377
270.067	-940
270.128	-978
270.188	-683
270.249	-1219
270.310	-942
270.370	661
270.431	77
270.492	-519
270.553	-207
270.613	-260
270.674	88
270.734	-264
270.795	-524
270.856	-68
270.916	-855
270.977	-418
271.038	870
271.098	-58
271.159	-886
271.219	-734
271.280	-58
271.340	-531
271.401	-1038
271.462	-26
271.522	-467
271.583	-517
271.643	307
271.704	72
271.764	-967
271.825	-523
271.885	1513
271.946	2501
272.006	-186
272.066	889
272.127	2195
272.187	3174
272.248	1334
272.308	400
272.369	2155
272.429	925
272.489	-17
272.550	340
272.610	613
272.671	-287
272.731	-167
272.791	424
272.852	-15
272.912	-247
272.972	-218
273.033	-769
273.093	-633
273.153	442
273.214	-614
273.274	158
273.334	1074
273.394	1440
273.455	251
273.515	336
273.575	912
273.635	631
273.696	916
273.756	1473
273.816	716
273.876	1041
273.936	349
273.997	598
274.057	12
274.117	-569
274.177	-257
274.237	1038
274.297	2087
274.358	58
274.418	801
274.478	716
274.538	-214
274.598	-259
274.658	343
274.718	386
274.778	-286
274.838	-292
274.898	-681
274.958	430
275.018	1977
275.078	1779
275.138	188
275.198	-801
275.258	-425
275.318	42
275.378	-160
275.438	180
275.498	452
275.558	156
275.618	835
275.678	1485
275.738	-2
275.798	-471
275.858	-35
275.918	-674
275.978	128
276.038	-68
276.098	402
276.157	-295
276.217	836
276.277	192
276.337	302
276.397	240
276.457	-307
276.517	536
276.576	449
276.636	-994
276.696	154
276.756	143
276.815	263
276.875	364
276.935	-1004
276.995	21
277.055	543
277.114	566
277.174	143
277.234	234
277.293	-116
277.353	213
277.413	15
277.472	-483
277.532	497
277.592	1152
277.651	4078
277.711	7150
277.771	2332
277.830	7256
277.890	6924
277.950	4857
278.009	13425
278.069	5442
278.128	6324
278.188	7752
278.248	4140
278.307	8870
278.367	6566
278.426	1950
278.486	283
278.545	971
278.605	475
278.664	298
278.724	38
278.783	1493
278.843	2865
278.902	1401
278.962	-674
279.021	1325
279.081	3003
279.140	1998
279.199	1431
279.259	2185
279.318	2322
279.378	3868
279.437	6110
279.496	16599
279.556	55947
279.615	39560
279.675	10177
279.734	6582
279.793	6754
279.853	12275
279.912	6018
279.971	4063
280.031	4236
280.090	5290
280.149	10284
280.208	7893
280.268	34360
280.327	33390
280.386	8015
280.445	3604
280.505	3027
280.564	2490
280.623	1489
280.682	1513
280.742	2208
280.801	815
280.860	774
280.919	1250
280.978	493
281.037	179
281.097	-99
281.156	1554
281.215	615
281.274	581
281.333	2038
281.392	394
281.451	112
281.510	477
281.569	-279
281.628	354
281.688	493
281.747	796
281.806	398
281.865	433
281.924	112
281.983	336
282.042	387
282.101	-330
282.160	-296
282.219	282
282.278	393
282.337	839
282.396	792
282.454	893
282.513	335
282.572	1206
282.631	815
282.690	359
282.749	-74
282.808	521
282.867	700
282.926	418
282.985	543
283.043	1009
283.102	1087
283.161	130
283.220	931
283.279	2052
283.338	907
283.396	-402
283.455	803
283.514	441
283.573	1432
283.631	597
283.690	899
283.749	314
283.808	1443
283.866	1868
283.925	443
283.984	1676
284.043	1077
284.101	1102
284.160	1182
284.219	1812
284.277	1291
284.336	1401
284.395	2886
284.453	2885
284.512	2277
284.570	2257
284.629	2994
284.688	3423
284.746	4562
284.805	5204
284.863	8219
284.922	9386
284.981	12595
285.039	16808
285.098	23167
285.156	32751
285.215	39202
285.273	34141
285.332	31366
285.390	26479
285.449	19237
285.507	14123
285.566	10866
285.624	8053
285.683	7035
285.741	5428
285.799	4655
285.858	4265
285.916	3082
285.975	2918
286.033	2224
286.091	2216
286.150	1853
286.208	1406
286.267	1882
286.325	1353
286.383	2230
286.442	936
286.500	537
286.558	598
286.616	912
286.675	1149
286.733	697
286.791	215
286.850	1420
286.908	714
286.966	1457
287.024	554
287.083	687
287.141	80
287.199	1003
287.257	943
287.315	1428
287.374	-96
287.432	-80
287.490	504
287.548	949
287.606	22
287.664	941
287.723	800
287.781	1143
287.839	354
287.897	621
287.955	-806
288.013	-118
288.071	-235
288.129	314
288.187	2553
288.245	1943
288.303	356
288.361	288
288.419	677
288.477	316
288.535	-156
288.593	-27
288.651	1007
288.709	-80
288.767	-80
288.825	-810
288.883	530
288.941	694
288.999	-997
289.057	-4
289.115	305
289.173	154
289.231	715
289.289	859
289.346	-266
289.404	429
289.462	1001
289.520	-201
289.578	-68
289.636	6
289.694	422
289.751	515
289.809	342
289.867	77
289.925	595
289.983	-57
290.040	267
290.098	0
290.156	622
290.214	443
290.271	-999
290.329	815
290.387	143
290.444	736
290.502	-355
290.560	-117
290.617	-98
290.675	307
290.733	252
290.790	722
290.848	659
290.906	156
290.963	703
291.021	620
291.078	78
291.136	220
291.194	752
291.251	218
291.309	-310
291.366	398
291.424	-559
291.481	227
291.539	125
291.596	1152
291.654	1040
291.711	924
291.769	654
291.826	-117
291.884	504
291.941	-551
291.999	-7
292.056	545
292.114	144
292.171	311
292.228	151
292.286	598
292.343	84
292.401	1228
292.458	210
292.515	997
292.573	642
292.630	907
292.687	37
292.745	392
292.802	461
292.859	666
292.917	1245
292.974	692
293.031	422
293.089	676
293.146	344
293.203	720
293.260	754
293.318	54
293.375	279
293.432	45
293.489	1070
293.546	405
293.604	819
293.661	1368
293.718	4262
293.775	2224
293.832	2140
293.889	2020
293.947	2568
294.004	1837
294.061	710
294.118	1926
294.175	1905
294.232	2100
294.289	1240
294.346	444
294.403	1132
294.460	703
294.517	928
294.574	199
294.631	695
294.688	178
294.745	1182
294.802	3239
294.859	2002
294.916	1135
294.973	653
295.030	814
295.087	1002
295.144	455
295.201	690
295.258	460
295.315	606
295.372	1217
295.429	1886
295.486	687
295.542	-192
295.599	1008
295.656	162
295.713	524
295.770	1922
295.827	1358
295.883	130
295.940	33
295.997	351
296.054	-429
296.111	-384
296.167	512
296.224	870
296.281	-291
296.338	-425
296.394	293
296.451	-138
296.508	-145
296.564	607
296.621	1842
296.678	1876
296.734	3952
296.791	1197
296.848	545
296.904	159
296.961	1837
297.018	1588
297.074	1287
297.131	-70
297.187	130
297.244	109
297.301	1710
297.357	4609
297.414	1720
297.470	977
297.527	590
297.583	187
297.640	304
297.696	-163
297.753	-263
297.809	260
297.866	247
297.922	-65
297.979	410
298.035	-457
298.092	-40
298.148	1339
298.204	975
298.261	33
298.317	779
298.374	2377
298.430	2411
298.486	534
298.543	433
298.599	173
298.656	-408
298.712	-243
298.768	554
298.824	217
298.881	-534
298.937	-111
298.993	841
299.050	144
299.106	91
299.162	-348
299.218	675
299.275	408
299.331	764
299.387	1325
299.443	4465
299.500	8559
299.556	7927
299.612	3484
299.668	1841
299.724	6537
299.780	9513
299.837	3690
299.893	2165
299.949	5798
300.005	10860
300.061	6677
300.117	11534
300.173	5595
300.229	2035
300.285	1358
300.341	1223
300.397	885
300.453	646
300.510	1015
300.566	1261
300.622	2512
300.678	11296
300.734	15329
300.790	7435
300.845	5103
300.901	5739
300.957	10792
301.013	5478
301.069	1985
301.125	1783
301.181	1101
301.237	747
301.293	180
301.349	213
301.405	519
301.461	135
301.516	654
301.572	93
301.628	190
301.684	-131
301.740	104
301.796	1171
301.851	914
301.907	938
301.963	992
302.019	2400
302.074	8485
302.130	9165
302.186	4559
302.242	1402
302.297	458
302.353	1012
302.409	1579
302.464	1323
302.520	1307
302.576	1939
302.631	2472
302.687	794
302.743	545
302.798	19
302.854	-591
302.910	730
302.965	-209
303.021	558
303.076	291
303.132	437
303.187	145
303.243	-141
303.299	-861
303.354	-434
303.410	-565
303.465	-240
303.521	-397
303.576	446
303.632	515
303.687	552
303.743	2245
303.798	2021
303.853	301
303.909	648
303.964	-32
304.020	-18
304.075	579
304.130	26
304.186	198
304.241	912
304.297	1099
304.352	-157
304.358	-107
304.407	297
304.449	884
304.463	1085
304.518	42
304.539	292
304.573	677
304.629	250
304.630	251
304.684	331
304.720	955
304.739	1266
304.794	3405
304.811	2881
304.850	1596
304.902	810
304.905	765
304.960	314
304.992	361
305.015	367
305.071	-180
305.083	-164
305.126	-41
305.173	-394
305.181	-464
305.236	285
305.264	283
305.292	298
305.347	261
305.354	282
305.402	404
305.445	860
305.457	995
305.512	559
305.535	340
305.567	5
305.622	209
305.626	243
305.678	895
305.716	1272
305.733	1385
305.788	1436
305.807	1423
305.843	1539
305.897	2414
305.898	2422
305.953	2392
305.988	1667
306.008	1319
306.063	1051
306.078	865
306.118	425
306.168	255
306.173	230
306.228	334
306.259	141
306.283	-15
306.338	-81
306.349	-12
306.393	310
306.440	191
306.448	181
306.503	576
306.530	543
306.558	456
306.613	458
306.620	453
306.668	672
306.711	1328
306.723	1421
306.778	1171
306.801	1106
306.833	1078
306.888	629
306.892	610
306.943	594
306.982	870
306.997	860
307.052	226
307.072	157
307.107	245
307.162	130
307.163	126
307.217	33
307.253	493
307.272	618
307.327	388
307.343	330
307.381	238
307.434	515
307.436	548
307.491	53
307.524	596
307.546	762
307.600	1084
307.614	882
307.655	391
307.704	576
307.710	591
307.765	97
307.795	19
307.819	14
307.874	14
307.885	27
307.929	186
307.975	971
307.984	1085
308.038	841
308.065	793
308.093	728
308.148	752
308.156	742
308.202	882
308.246	1243
308.257	1309
308.312	718
308.336	883
308.366	1004
308.421	1182
308.426	1094
308.475	361
308.517	393
308.530	476
308.585	652
308.607	751
308.639	626
308.694	430
308.697	431
308.748	973
308.787	890
308.803	745
308.857	873
308.877	890
308.912	1225
308.967	1573
308.967	1573
309.021	1924
309.058	2895
309.076	3405
309.130	5292
309.148	5478
309.185	6065
309.238	7590
309.239	7627
309.293	9998
309.328	11373
309.348	10805
309.402	7271
309.418	6106
309.457	5427
309.508	5308
309.511	5296
309.566	5556
309.598	6333
309.620	7829
309.674	12479
309.688	13830
309.729	14091
309.778	11579
309.783	11281
309.837	7037
309.868	5211
309.892	4689
309.946	3892
309.959	3787
310.001	3516
310.049	3702
310.055	3579
310.109	2036
310.139	1193
310.163	1284
310.218	1724
310.229	1797
310.272	1580
310.319	1345
310.326	1276
310.381	883
310.409	757
310.435	989
310.489	1289
310.499	1369
310.543	1342
310.589	1194
310.598	1189
310.652	1121
310.679	1132
310.706	1186
310.760	1153
310.769	1185
310.814	1170
310.859	927
310.868	949
310.923	1308
310.948	1275
310.977	1127
311.031	1190
311.038	1189
311.085	1100
311.128	915
311.139	966
311.193	1303
311.218	1449
311.247	1347
311.301	1085
311.308	1059
311.356	1072
311.398	1070
311.410	1108
311.464	1298
311.488	1353
311.518	945
311.572	153
311.578	78
311.626	711
311.668	1222
311.680	1261
311.734	1394
311.758	1452
311.788	1288
311.842	983
311.847	952
311.896	1275
311.937	1518
311.950	1521
312.004	1551
312.027	1551
312.058	1379
312.112	1078
312.117	1049
312.165	1245
312.207	1418
312.297	1212
312.386	1108
312.476	1252
312.566	1644
312.656	2009
312.745	1317
312.835	1835
312.925	1190
313.015	1043
313.104	1212
313.194	1187
313.284	1282
313.374	1383
313.463	1412
313.553	1582
313.643	999
313.732	1597
313.822	1126
313.912	2374
314.001	2052
314.091	1622
314.180	1581
314.270	2772
314.360	1548
314.449	1355
314.539	1994
314.628	2112
314.718	2233
314.808	2372
314.897	3263
314.987	2827
315.076	3219
315.166	2398
315.255	2145
315.345	2624
315.434	1469
315.524	1761
315.613	2822
315.703	2138
315.792	6248
315.881	14702
315.971	4747
316.060	3511
316.150	2887
316.239	2055
316.328	1902
316.418	2105
316.507	2134
316.597	2999
316.686	3134
316.775	2551
316.865	3215
316.954	1931
317.043	3305
317.133	2686
317.222	2956
317.311	1466
317.400	975
317.490	3145
317.579	1406
317.668	2348
317.757	3257
317.847	10731
317.936	22411
318.025	7848
318.114	6525
318.203	3463
318.293	2603
318.382	3651
318.471	4611
318.560	3950
318.649	3017
318.738	1974
318.828	2152
318.917	1214
319.006	1188
319.095	1884
319.184	2689
319.273	1848
319.362	1845
319.451	1574
319.540	1302
319.629	1410
319.718	1976
319.807	1274
319.896	1247
319.985	1818
320.074	2228
320.163	1971
320.252	1453
320.341	1321
320.430	1734
320.519	1328
320.608	2430
320.697	2538
320.786	2648
320.875	3290
320.964	3284
321.053	4055
321.142	3661
321.230	5139
321.319	5451
321.408	6164
321.497	6226
321.586	4418
321.675	3970
321.764	3967
321.852	3529
321.941	3449
322.030	4450
322.119	4431
322.207	5113
322.296	6092
322.385	6597
322.474	8328
322.562	8821
322.651	5999
322.740	5432
322.829	5157
322.917	4036
323.006	2858
323.095	3521
323.183	2606
323.272	2676
323.361	1832
323.449	3585
323.538	2646
323.626	2624
323.715	2376
323.804	2077
323.892	1846
323.981	2749
324.069	2059
324.158	1598
324.246	2161
324.335	2630
324.424	2050
324.512	2699
324.601	1565
324.689	2508
324.778	1555
324.866	2223
324.954	1811
325.043	1660
325.131	129
325.220	1960
325.308	1338
325.397	2201
325.485	1793
325.574	1944
325.662	1458
325.750	1065
325.839	2027
325.927	1387
326.015	1245
326.104	1468
326.192	999
326.280	2167
326.369	1653
326.457	2106
326.545	1364
326.634	1652
326.722	2037
326.810	1008
326.898	1530
326.987	1821
327.075	939
327.163	2323
327.251	1729
327.340	1874
327.428	3074
327.516	2716
327.604	2108
327.692	1736
327.781	1424
327.869	1223
327.957	997
328.045	1203
328.133	2167
328.221	1266
328.309	1490
328.397	2099
328.485	1848
328.574	3281
328.662	4066
328.750	2196
328.838	1197
328.926	2190
329.014	760
329.102	1577
329.190	2469
329.278	1469
329.366	1042
329.454	1261
329.542	2201
329.630	1408
329.718	2085
329.806	1479
329.893	1960
329.981	707
330.069	1343
330.157	2161
330.245	2164
330.333	1494
330.421	1887
330.509	1393
330.597	1432
330.684	730
330.772	767
330.860	834
330.948	1259
331.036	1396
331.123	202
331.211	935
331.299	1314
331.387	1004
331.475	621
331.562	1908
331.650	1707
331.738	2240
331.825	1669
331.913	1688
332.001	1049
332.089	1783
332.176	1052
332.264	1221
332.352	783
332.439	1311
332.527	1801
332.614	635
332.702	1239
332.790	1258
332.877	1900
332.965	3001
333.052	2633
333.140	2874
333.228	4425
333.315	2186
333.403	1819
333.490	2300
333.578	2928
333.665	7599
333.753	3590
333.840	1569
333.928	2506
334.015	2694
334.103	3921
334.190	4304
334.278	6493
334.365	9103
334.452	9467
334.540	5500
334.627	4793
334.715	7637
334.802	10482
334.889	15398
334.977	21644
335.064	14260
335.151	6539
335.239	5071
335.326	3502
335.413	3583
335.501	4539
335.588	4310
335.675	4829
335.762	6019
335.850	7860
335.937	12120
336.024	19447
336.111	30962
336.199	27608
336.286	12498
336.373	6820
336.460	4387
336.547	3693
336.635	3572
336.722	2463
336.809	2493
336.896	1936
336.983	2176
337.070	2462
337.157	1627
337.245	2351
337.332	2144
337.419	2663
337.506	2938
337.593	2147
337.680	2806
337.767	2623
337.854	2345
337.941	2331
338.028	1874
338.115	657
338.202	2407
338.289	1947
338.376	1799
338.463	2216
338.550	1388
338.637	1485
338.724	1334
338.811	1681
338.898	1675
338.984	1908
339.071	1207
339.158	1424
339.245	1208
339.332	1061
339.419	1811
339.506	1668
339.593	937
339.679	1894
339.766	1418
339.853	1888
339.940	1501
340.027	1865
340.113	1382
340.200	1172
340.287	1042
340.374	1292
340.460	2013
340.547	229
340.634	1992
340.720	2752
340.807	960
340.894	1701
340.980	1564
341.067	760
341.154	2398
341.240	1503
341.327	1901
341.414	1813
341.500	1222
341.587	1724
341.674	1800
341.760	1742
341.847	2053
341.933	1340
342.020	1234
342.106	1766
342.193	2567
342.279	1785
342.366	1525
342.452	1624
342.539	2102
342.625	1650
342.712	2067
342.798	1296
342.885	1482
342.971	1071
343.058	1705
343.144	1354
343.230	1893
343.317	1662
343.403	989
343.490	1656
343.576	1261
343.662	1803
343.749	1209
343.835	1115
343.921	2302
344.008	7410
344.094	10639
344.180	2450
344.267	1439
344.353	3868
344.439	2359
344.525	1332
344.612	2173
344.698	1325
344.784	604
344.870	1341
344.957	995
345.043	2821
345.129	940
345.215	1816
345.301	1659
345.387	1520
345.474	1117
345.560	1329
345.646	793
345.732	1453
345.818	1055
345.904	1102
345.990	1662
346.076	965
346.162	917
346.249	1354
346.335	979
346.421	2396
346.507	1555
346.593	3799
346.679	1496
346.765	2877
346.851	3198
346.937	1224
347.023	2769
347.108	1836
347.194	1484
347.280	2073
347.366	2563
347.452	7333
347.538	8279
347.624	5629
347.710	3208
347.796	1232
347.882	1445
347.967	1267
348.053	1615
348.139	1819
348.225	2412
348.311	1372
348.397	1663
348.482	2143
348.568	1304
348.654	2999
348.740	9775
348.825	7513
348.911	4250
348.997	4161
349.083	4848
349.168	1303
349.254	1349
349.340	1666
349.425	1734
349.511	1721
349.597	1637
349.682	1990
349.768	2960
349.854	2574
349.939	1707
350.025	1509
350.110	1727
350.196	1564
350.282	904
350.367	1676
350.453	2404
350.538	1367
350.624	1046
350.709	1960
350.795	1017
350.880	1195
350.966	2461
351.051	1108
351.137	1502
351.222	1317
351.308	2029
351.393	1641
351.479	967
351.564	1633
351.649	2033
351.735	1444
351.820	2187
351.906	1342
351.991	689
352.076	1606
352.162	2139
352.247	1508
352.332	1008
352.418	996
352.503	1948
352.588	3237
352.673	1470
352.759	560
352.844	725
352.929	1056
353.014	1261
353.100	2313
353.185	4497
353.270	2238
353.355	1998
353.441	1133
353.526	972
353.611	1448
353.696	620
353.781	1656
353.866	1233
353.952	1140
354.037	1031
354.122	2122
354.207	1780
354.292	868
354.377	988
354.462	1438
354.547	1366
354.632	2065
354.717	3258
354.802	3991
354.887	1979
354.972	1665
355.057	711
355.142	678
355.227	1631
355.312	1319
355.397	94
355.482	2213
355.567	1549
355.652	3143
355.737	1699
355.822	3041
355.907	2437
355.991	2300
356.076	1480
356.161	2058
356.246	1140
356.331	1855
356.416	1114
356.501	7010
356.585	4660
356.670	868
356.755	3446
356.840	3016
356.924	8266
357.009	12560
357.094	4758
357.179	2191
357.263	2702
357.348	1673
357.433	2032
357.517	1636
357.602	1118
357.687	1933
357.771	3456
357.856	2162
357.941	2453
358.025	4830
358.110	14546
358.195	6112
358.279	1328
358.364	2279
358.448	2903
358.533	4205
358.617	4018
358.702	3455
358.787	3146
358.871	1395
358.956	2162
359.040	1774
359.125	1702
359.209	1642
359.294	2219
359.378	2347
359.462	2231
359.547	2242
359.631	2044
359.716	291
359.800	1826
359.885	1975
359.969	970
360.053	2744
360.138	1440
360.222	1308
360.306	1003
360.391	1594
360.475	1135
360.559	2279
360.644	2547
360.728	1552
360.812	5965
360.896	7769
360.981	3181
361.065	1835
361.149	2481
361.233	1616
361.318	1715
361.402	1616
361.486	2623
361.570	1815
361.654	2604
361.739	2368
361.823	7003
361.907	8631
361.991	3927
362.075	4203
362.159	3935
362.243	11215
362.327	25403
362.411	36663
362.495	13107
362.580	6628
362.664	6004
362.748	6683
362.832	11495
362.916	22547
363.000	64818
363.084	78392
363.168	31086
363.252	10028
363.336	7097
363.420	4929
363.503	4366
363.587	3040
363.671	4136
363.755	3440
363.839	6195
363.923	3889
364.007	6712
364.091	8399
364.175	12320
364.258	28893
364.342	70232
364.426	113734
364.510	55577
364.594	18201
364.677	10535
364.761	10426
364.845	7563
364.929	3830
365.013	2355
365.096	3253
365.180	2039
365.264	2508
365.347	2736
365.431	2056
365.515	661
365.598	961
365.682	3411
365.766	1188
365.849	2320
365.933	2185
366.017	4053
366.100	1514
366.184	2061
366.267	3089
366.351	3178
366.435	1992
366.518	2085
366.602	2768
366.685	2322
366.769	2454
366.852	1741
366.936	2415
367.019	2769
367.103	1216
367.186	2889
367.270	2044
367.353	1811
367.436	3758
367.520	2487
367.603	3386
367.687	1357
367.770	2583
367.853	3813
367.937	4461
368.020	4488
368.104	2161
368.187	3102
368.270	2336
368.353	1822
368.437	1287
368.520	1636
368.603	2110
368.687	2591
368.770	3654
368.853	1847
368.936	2300
369.020	2724
369.103	2164
369.186	1981
369.269	1360
369.352	2587
369.436	1824
369.519	2029
369.602	-27
369.685	3671
369.768	845
369.851	2785
369.934	1997
370.018	2185
370.101	533
370.184	4231
370.267	2570
370.350	1982
370.433	2835
370.516	5910
370.599	10425
370.682	2843
370.765	5106
370.848	4608
370.931	4290
371.014	4645
371.097	1217
371.180	2999
371.263	2680
371.346	833
371.429	3047
371.511	2083
371.594	2083
371.677	2716
371.760	3415
371.843	2996
371.926	9773
372.009	12850
372.091	8458
372.174	4757
372.257	7827
372.340	3788
372.423	3128
372.505	4708
372.588	2721
372.671	3781
372.754	4394
372.836	2877
372.919	3070
373.002	3847
373.085	1920
373.167	3678
373.250	3453
373.332	6617
373.415	10875
373.498	14455
373.580	9071
373.663	19535
373.746	16818
373.828	4409
373.911	4049
373.993	2232
374.076	2908
374.159	2842
374.241	2628
374.324	4449
374.406	5264
374.489	8401
374.571	12581
374.654	4960
374.736	5082
374.819	8271
374.901	13300
374.983	10926
375.066	4251
375.148	3997
375.231	2694
375.313	4092
375.395	3443
375.478	3858
375.560	3502
375.643	3698
375.725	4901
375.807	10252
375.890	7500
375.972	1427
376.054	2461
376.136	2551
376.219	2573
376.301	4815
376.383	6521
376.465	4202
376.548	2188
376.630	2746
376.712	6501
376.794	2678
376.877	1951
376.959	1595
377.041	1803
377.123	1267
377.205	1831
377.287	1354
377.369	2701
377.452	1957
377.534	1770
377.616	1794
377.698	2047
377.780	1768
377.862	1734
377.944	2591
378.026	1265
378.108	1950
378.190	2521
378.272	2853
378.354	1958
378.436	1431
378.518	726
378.600	1782
378.682	2076
378.764	3168
378.846	3186
378.928	1396
379.010	1263
379.091	2965
379.173	2287
379.255	1030
379.337	1777
379.419	2129
379.501	5041
379.583	3072
379.664	1927
379.746	1268
379.828	3724
379.910	3372
379.991	3589
380.073	1506
380.155	1677
380.237	1404
380.318	1536
380.400	2270
380.482	2886
380.564	1992
380.645	3817
380.727	3488
380.809	2954
380.890	1295
380.972	1640
381.053	2365
381.135	2707
381.217	2418
381.298	4676
381.380	2129
381.461	2969
381.543	6477
381.624	6739
381.706	3221
381.787	3300
381.869	2742
381.951	5304
382.032	11603
382.113	9103
382.195	1897
382.276	4957
382.358	5314
382.439	7978
382.521	9914
382.602	12753
382.684	7284
382.765	11945
382.846	27433
382.928	54529
383.009	27782
383.090	27358
383.172	79664
383.253	89160
383.334	29013
383.416	16613
383.497	11578
383.578	11364
383.659	23573
383.741	74340
383.822	130987
383.903	57396
383.984	18071
384.066	15621
384.147	8561
384.228	5320
384.309	5725
384.390	5552
384.471	5254
384.553	4006
384.634	4356
384.715	4916
384.796	3571
384.877	2854
384.958	5421
385.039	4533
385.120	2967
385.201	3460
385.282	3408
385.363	4428
385.444	4374
385.525	5077
385.606	7389
385.687	5308
385.768	4095
385.849	3983
385.930	10461
386.011	11756
386.092	3696
386.173	3274
386.254	3372
386.335	4378
386.416	2212
386.496	3775
386.577	5345
386.658	3239
386.739	2363
386.820	4043
386.901	3183
386.981	3846
387.062	4421
387.143	5486
387.224	7372
387.304	8150
387.385	7211
387.466	5203
387.547	7544
387.627	6461
387.708	7367
387.789	10472
387.869	8741
387.950	6318
388.031	4078
388.111	2333
388.192	4426
388.273	5220
388.353	4123
388.434	3966
388.514	4042
388.595	7991
388.676	7746
388.756	4714
388.837	4398
388.917	3438
388.998	1186
389.078	3380
389.159	3481
389.239	1514
389.320	4228
389.400	1677
389.480	3746
389.561	4163
389.641	3878
389.722	3326
389.802	2180
389.883	4635
389.963	6908
390.043	3169
390.124	1782
390.204	2995
390.284	4480
390.365	2463
390.445	2476
390.525	2715
390.605	3291
390.686	2053
390.766	3764
390.846	3631
390.927	2371
391.007	1759
391.087	4380
391.167	2423
391.247	1916
391.328	3866
391.408	3171
391.488	2997
391.568	2661
391.648	2292
391.728	4232
391.808	4066
391.888	3395
391.969	4476
392.049	4493
392.129	5124
392.209	4605
392.289	7676
392.369	6106
392.449	4646
392.529	5385
392.609	7119
392.689	8770
392.769	10564
392.849	12235
392.929	15089
393.009	21283
393.089	29095
393.169	56346
393.248	142570
393.328	292199
393.408	247768
393.488	103243
393.568	43902
393.648	24491
393.728	15485
393.807	10717
393.887	10760
393.967	8363
394.047	6598
394.127	4814
394.206	4808
394.286	3837
394.366	4646
394.446	5094
394.525	3468
394.605	3564
394.685	4236
394.764	5831
394.844	8865
394.924	11153
395.003	5348
395.083	3396
395.163	3625
395.242	2763
395.322	2898
395.402	1649
395.481	5793
395.561	4253
395.640	17072
395.720	29412
395.799	12416
395.879	5316
395.958	4466
396.038	4847
396.117	5301
396.197	5652
396.276	6778
396.356	7292
396.435	9229
396.515	12171
396.594	19760
396.673	45035
396.753	136346
396.832	249595
396.912	153753
396.991	50231
397.070	24287
397.150	12352
397.229	15261
397.308	29205
397.388	45438
397.467	19591
397.546	7014
397.625	3770
397.705	5811
397.784	4379
397.863	3414
397.942	3718
398.022	3744
398.101	1855
398.180	3342
398.259	3231
398.338	3203
398.417	3038
398.497	2436
398.576	2783
398.655	1551
398.734	3055
398.813	1979
398.892	2823
398.971	2373
399.050	1602
399.129	1891
399.208	2288
399.287	2916
399.366	1172
399.445	2071
399.524	1925
399.603	491
399.682	1647
399.761	1670
399.840	3557
399.919	2549
399.998	2185
400.077	1445
400.156	820
400.235	4074
400.313	1466
400.392	564
400.471	3077
400.550	2275
400.629	1018
400.708	1793
400.786	1237
400.865	1169
400.944	587
401.023	3719
401.102	1179
401.180	1346
401.259	1623
401.338	1340
401.416	2206
401.495	414
401.574	1608
401.652	489
401.731	2381
401.810	1491
401.888	1427
401.967	356
402.046	849
402.124	1477
402.203	-147
402.281	1860
402.360	962
402.438	2207
402.517	-276
402.596	1352
402.674	784
402.753	1033
402.831	1672
402.910	2976
402.988	7608
403.066	20378
403.145	10490
403.223	10512
403.302	17794
403.380	14382
403.459	14871
403.537	5284
403.615	2540
403.694	1120
403.772	2222
403.850	1259
403.929	1817
404.007	804
404.085	4409
404.164	4051
404.242	1744
404.320	1873
404.398	2221
404.477	1832
404.555	7912
404.633	4799
404.711	2043
404.789	1877
404.868	2242
404.946	303
405.024	1826
405.102	1295
405.180	605
405.258	583
405.336	1150
405.415	4
405.493	2044
405.571	3012
405.649	993
405.727	717
405.805	2162
405.883	3349
405.961	2066
406.039	409
406.117	104
406.195	921
406.273	1537
406.351	5955
406.429	3227
406.507	568
406.585	1093
406.663	1397
406.740	1241
406.818	-34
406.896	490
406.974	1706
407.052	201
407.130	3514
407.208	4359
407.285	2343
407.363	-81
407.441	848
407.519	498
407.596	1237
407.674	2927
407.752	7630
407.830	5641
407.907	2382
407.985	-74
408.063	700
408.141	998
408.218	1506
408.296	2246
408.373	1709
408.451	3169
408.529	1372
408.606	2069
408.684	2212
408.762	1879
408.839	1507
408.917	2211
408.994	2437
409.072	1815
409.149	3728
409.227	7347
409.304	10285
409.382	9463
409.459	12011
409.537	15780
409.614	12034
409.692	9042
409.769	10042
409.846	16892
409.924	17933
410.001	9712
410.079	7930
410.156	6571
410.233	4215
410.311	3512
410.388	2770
410.465	3265
410.543	2099
410.620	4009
410.697	3781
410.775	3470
410.852	2334
410.929	3974
411.006	3903
411.083	3071
411.161	2589
411.238	2921
411.315	2290
411.392	1951
411.469	2443
411.547	2624
411.624	514
411.701	1172
411.778	1835
411.855	1162
411.932	1672
412.009	1260
412.086	2488
412.163	968
412.240	1104
412.317	1731
412.394	1221
412.471	1953
412.548	1044
412.625	1071
412.702	1572
412.779	1737
412.856	1090
412.933	1212
413.010	1736
413.087	1384
413.164	1479
413.241	2624
413.318	122
413.395	2045
413.471	542
413.548	1090
413.625	1725
413.702	-109
413.779	1525
413.855	1478
413.932	1013
414.009	263
414.086	1068
414.162	1627
414.239	864
414.316	2226
414.393	3016
414.469	601
414.546	574
414.623	1386
414.699	260
414.776	1538
414.853	326
414.929	926
415.006	1083
415.082	886
415.159	893
415.236	1746
415.312	1061
415.389	915
415.465	358
415.542	307
415.618	-359
415.695	1692
415.771	145
415.848	824
415.924	1144
416.000	1824
416.077	1846
416.153	-75
416.230	65
416.306	434
416.383	1200
416.459	1412
416.535	665
416.612	682
416.688	670
416.764	580
416.841	754
416.917	1265
416.993	762
417.069	1166
417.146	131
417.222	400
417.298	933
417.374	346
417.451	847
417.527	543
417.603	219
417.679	717
417.755	1365
417.831	205
417.908	1018
417.984	1046
418.060	-838
418.136	1725
418.212	706
418.288	1746
418.364	1529
418.440	569
418.516	1351
418.592	1175
418.668	1001
418.744	418
418.820	1209
418.896	392
418.972	988
419.048	325
419.124	2364
419.200	578
419.276	680
419.352	790
419.428	1291
419.504	958
419.579	862
419.655	1463
419.731	1726
419.807	1423
419.883	1247
419.959	2270
420.034	1953
420.110	2301
420.186	2324
420.262	3006
420.337	2045
420.413	3059
420.489	3201
420.565	3461
420.640	3177
420.716	3200
420.792	1843
420.867	4492
420.943	3228
421.019	4008
421.094	3754
421.170	5178
421.245	5613
421.321	6254
421.397	6441
421.472	9043
421.548	10579
421.623	10172
421.699	9717
421.774	11770
421.850	12025
421.925	15465
422.001	18175
422.076	22507
422.152	26790
422.227	35830
422.302	48069
422.378	67463
422.453	99593
422.529	145421
422.604	162895
422.679	145135
422.755	151031
422.830	125320
422.905	91124
422.981	65842
423.056	50994
423.131	39514
423.207	30228
423.282	24307
423.357	20777
423.432	16987
423.508	15576
423.583	12732
423.658	11254
423.733	10082
423.808	8500
423.883	8707
423.959	8845
424.034	10023
424.109	9482
424.184	7186
424.259	4951
424.334	5132
424.409	4871
424.484	4351
424.559	4484
424.634	3301
424.709	3503
424.784	2832
424.859	3385
424.934	2501
425.009	2558
425.084	4201
425.159	2402
425.234	3271
425.309	1812
425.384	2718
425.459	847
425.534	2547
425.609	1546
425.683	1839
425.758	2568
425.833	2583
425.908	2387
425.983	2264
426.058	2954
426.132	1452
426.207	1791
426.282	2854
426.357	689
426.431	1536
426.506	1813
426.581	2150
426.655	1785
426.730	1358
426.805	712
426.879	2115
426.954	1318
427.029	1760
427.103	2457
427.178	4721
427.253	1963
427.327	2230
427.402	546
427.476	715
427.551	1875
427.625	1778
427.700	1270
427.774	685
427.849	1402
427.923	862
427.998	1316
428.072	2437
428.147	5760
428.221	25093
428.296	61748
428.370	27971
428.444	5099
428.519	2668
428.593	719
428.667	1730
428.742	2203
428.816	9625
428.890	41784
428.965	51075
429.039	11354
429.113	2130
429.188	1142
429.262	828
429.336	1618
429.410	1816
429.485	1981
429.559	1310
429.633	2024
429.707	2429
429.781	8059
429.855	39661
429.930	45210
430.004	11279
430.078	7215
430.152	28614
430.226	86833
430.300	68313
430.374	15660
430.448	5290
430.522	2883
430.596	4094
430.670	14344
430.744	51554
430.818	44094
430.892	7626
430.966	2225
431.040	1428
431.114	894
431.188	914
431.262	153
431.336	706
431.410	976
431.484	-613
431.557	1256
431.631	1954
431.705	3521
431.779	20160
431.853	60125
431.927	32672
432.000	5647
432.074	1131
432.148	333
432.222	326
432.295	7
432.369	139
432.443	-193
432.516	1462
432.590	3566
432.664	1080
432.737	143
432.811	-19
432.885	-344
432.958	676
433.032	-697
433.106	86
433.179	687
433.253	456
433.326	-439
433.400	-922
433.473	-18
433.547	265
433.620	-470
433.694	66
433.767	38
433.841	-239
433.914	-39
433.988	284
434.061	108
434.134	-29
434.208	-334
434.281	-751
434.355	-1032
434.428	-49
434.501	107
434.575	-351
434.648	-589
434.721	544
434.795	-550
434.868	-949
434.941	-438
435.014	163
435.088	187
435.161	572
435.234	1231
435.307	1388
435.381	2608
435.454	4205
435.527	8040
435.600	7948
435.673	6178
435.746	4506
435.819	2983
435.892	1801
435.966	738
436.039	385
436.112	319
436.185	315
436.258	-223
436.331	627
436.404	470
436.477	-204
436.550	573
436.623	91
436.696	127
436.769	90
436.842	-75
436.915	447
436.987	-403
437.060	-282
437.133	565
437.206	-346
437.279	-228
437.352	94
437.425	-90
437.498	223
437.570	-619
437.643	-424
437.716	-267
437.789	129
437.861	173
437.934	-308
438.007	-364
438.080	-923
438.152	303
438.225	305
438.298	3864
438.370	6625
438.443	1827
438.516	36
438.588	-146
438.661	-329
438.734	-57
438.806	73
438.879	201
438.951	97
439.024	-589
439.096	-293
439.169	-128
439.241	-124
439.314	-337
439.386	-102
439.459	32
439.531	-261
439.604	94
439.676	830
439.749	-834
439.821	-173
439.893	544
439.966	232
440.038	-489
440.110	218
440.183	-312
440.255	-658
440.327	748
440.400	513
440.472	2843
440.544	1892
440.617	115
440.689	1044
440.761	130
440.833	527
440.905	127
440.978	264
441.050	-375
441.122	458
441.194	111
441.266	-258
441.338	-652
441.411	91
441.483	987
441.555	1546
441.627	553
441.699	414
441.771	-95
441.843	-3
441.915	381
441.987	87
442.059	970
442.131	1656
442.203	1341
442.275	1927
442.347	5035
442.419	11666
442.491	54838
442.563	92998
442.635	36525
442.706	7741
442.778	3614
442.850	2189
442.922	1831
442.994	2394
443.066	2830
443.137	2484
443.209	4541
443.281	7443
443.353	17302
443.425	63128
443.496	150770
443.568	143248
443.640	59486
443.711	16861
443.783	6591
443.855	3943
443.926	2738
443.998	2343
444.070	2060
444.141	1419
444.213	1448
444.285	1425
444.356	1247
444.428	1398
444.499	927
444.571	620
444.642	730
444.714	787
444.785	764
444.857	1551
444.928	1217
445.000	3233
445.071	3392
445.143	4786
445.214	7475
445.285	13163
445.357	35564
445.428	111661
445.500	170424
445.571	139204
445.642	89462
445.714	32013
445.785	10924
445.856	5301
445.928	3707
445.999	2108
446.070	1715
446.141	2415
446.213	1743
446.284	832
446.355	519
446.426	-379
446.497	483
446.569	-247
446.640	-246
446.711	621
446.782	955
446.853	-401
446.924	-3
446.995	-274
447.066	26
447.138	746
447.209	-358
447.280	-585
447.351	-187
447.422	39
447.493	-525
447.564	-524
447.635	-637
447.706	-886
447.777	-610
447.847	-309
447.918	-1021
447.989	-340
448.060	-670
448.131	-288
448.202	-164
448.273	-492
448.344	-35
448.414	5
448.485	-817
448.556	355
448.627	-1014
448.698	869
448.768	-853
448.839	-999
448.910	-744
448.981	-159
449.051	-909
449.122	-83
449.193	-395
449.263	-759
449.334	-577
449.405	-1114
449.475	-428
449.546	118
449.616	-32
449.687	271
449.758	-77
449.828	-866
449.899	-1500
449.969	-915
450.040	-566
450.110	-378
450.181	-782
450.251	-70
450.322	-647
450.392	-529
450.463	-950
450.533	-556
450.604	-627
450.674	-299
450.744	7
450.815	-582
450.885	-163
450.955	721
451.026	-180
451.096	-585
451.166	-253
451.237	245
451.307	922
451.377	-4
451.447	-352
451.518	-638
451.588	-251
451.658	52
451.728	-928
451.799	-1148
451.869	-1016
451.939	-445
452.009	-431
452.079	-257
452.149	-681
452.219	-599
452.289	204
452.360	-473
452.430	-211
452.500	608
452.570	1507
452.640	6652
452.710	17077
452.780	17149
452.850	8328
452.920	3415
452.990	1676
453.060	572
453.129	202
453.199	-342
453.269	-369
453.339	-530
453.409	-693
453.479	-901
453.549	-448
453.619	-195
453.688	-801
453.758	-842
453.828	-1330
453.898	-982
453.968	-111
454.037	-528
454.087	-368
454.107	-317
454.168	-658
454.177	-725
454.247	-593
454.249	-572
454.316	-576
454.330	-645
454.386	-965
454.411	-993
454.456	-1126
454.492	-908
454.525	-726
454.574	-230
454.595	-47
454.655	-382
454.665	-456
454.734	-17
454.736	-5
454.804	-486
454.817	-541
454.873	-782
454.898	-629
454.943	-415
454.979	-473
455.013	-571
455.060	-395
455.082	-348
455.141	-702
455.152	-783
455.221	-244
455.222	-226
455.291	-200
455.303	-183
455.360	-393
455.384	164
455.430	1087
455.465	991
455.499	911
455.546	213
455.569	-171
455.627	-47
455.638	-16
455.707	79
455.708	100
455.777	122
455.789	139
455.846	246
455.869	125
455.916	-205
455.950	-18
455.985	116
456.031	-110
456.054	-253
456.112	-153
456.124	-116
456.193	526
456.193	505
456.262	1131
456.274	1131
456.332	940
456.355	765
456.401	376
456.436	249
456.470	111
456.516	197
456.540	192
456.597	644
456.609	727
456.678	974
456.678	953
456.747	182
456.759	317
456.817	803
456.840	781
456.886	903
456.920	1305
456.955	1600
457.001	1721
457.024	1680
457.082	1624
457.093	1645
457.162	2187
457.163	2208
457.232	1031
457.243	1032
457.301	1308
457.324	1554
457.370	1924
457.405	2183
457.439	2488
457.485	2553
457.508	2637
457.566	3229
457.577	3474
457.646	5698
457.647	5751
457.715	14632
457.727	16786
457.784	32216
457.808	42080
457.853	52077
457.889	58334
457.922	53309
457.969	33810
457.991	35828
458.050	48143
458.060	50905
458.129	88099
458.130	89155
458.198	77014
458.211	69341
458.267	37391
458.292	24212
458.336	16129
458.372	15190
458.405	22818
458.453	36516
458.474	48098
458.533	89340
458.543	92194
458.611	131803
458.614	132612
458.680	73009
458.694	55864
458.749	25435
458.775	16903
458.818	9963
458.855	7644
458.887	6414
458.936	5748
458.955	5459
459.016	4085
459.024	4013
459.093	3951
459.097	3986
459.162	3705
459.177	3534
459.230	3389
459.257	3533
459.299	3580
459.338	3722
459.368	3789
459.418	3771
459.437	3628
459.499	2882
459.505	2870
459.574	3439
459.579	3484
459.643	3524
459.659	3374
459.711	3257
459.740	3461
459.780	3607
459.820	3786
459.849	3740
459.900	3656
459.917	3668
459.981	3639
459.986	3603
460.054	3455
460.061	3446
460.123	3709
460.141	3713
460.191	3600
460.222	3688
460.260	3479
460.302	3022
460.328	3210
460.382	4082
460.397	4176
460.462	3884
460.465	3933
460.534	5913
460.543	6201
460.602	15532
460.623	18959
460.671	29552
460.703	38972
460.739	35028
460.783	26234
460.808	21148
460.864	6345
460.876	5475
460.944	4158
460.945	4140
461.013	4120
461.024	4087
461.081	3680
461.104	3407
461.150	3521
461.184	3933
461.218	4007
461.264	3967
461.286	3970
461.345	3924
461.355	3852
461.423	3486
461.425	3475
461.491	3484
461.505	3559
461.559	3559
461.585	3456
461.628	3670
461.665	3873
461.696	4017
461.745	4306
461.764	4277
461.825	3717
461.832	3654
461.901	3947
461.905	3927
461.969	3845
461.985	3966
462.037	4500
462.065	4554
462.105	4001
462.145	3974
462.173	4346
462.225	4243
462.241	4094
462.305	3690
462.310	3738
462.378	4572
462.385	4686
462.446	4337
462.465	4171
462.514	4266
462.545	4335
462.582	4414
462.625	4591
462.650	4574
462.705	4644
462.718	4636
462.785	4020
462.786	4019
462.854	4180
462.865	4206
462.922	4611
462.945	4783
462.990	4967
463.025	4854
463.058	4726
463.104	4820
463.126	4763
463.184	4643
463.194	4706
463.262	4851
463.264	4860
463.330	4442
463.344	4276
463.398	4809
463.424	5168
463.466	4784
463.504	4409
463.533	4501
463.583	4416
463.601	4481
463.663	5156
463.669	5153
463.737	4821
463.743	4773
463.805	4829
463.823	4906
463.873	4670
463.903	4368
463.940	4621
463.982	5131
464.008	5006
464.062	4428
464.076	4412
464.142	4581
464.144	4604
464.211	5148
464.221	5169
464.279	4648
464.301	4612
464.347	5250
464.381	5595
464.414	5549
464.461	5393
464.482	5198
464.540	4737
464.550	4786
464.617	5092
464.620	5091
464.685	5341
464.699	5418
464.753	4975
464.779	4648
464.820	4776
464.859	5033
464.888	4982
464.938	4658
464.956	4859
465.018	5584
465.023	5616
465.091	5978
465.098	6000
465.158	5408
465.177	5281
465.226	5558
465.257	5557
465.293	5448
465.336	5350
465.361	5161
465.416	4723
465.428	4813
465.495	5310
465.496	5320
465.563	5103
465.575	5071
465.631	5255
465.654	5372
465.698	5175
465.734	4882
465.765	5149
465.813	5600
465.833	5588
465.893	5389
465.900	5394
465.968	5450
465.972	5435
466.035	4974
466.052	4848
466.102	5610
466.131	6044
466.170	5437
466.210	4729
466.237	5076
466.290	5699
466.304	5526
466.369	4680
466.372	4740
466.439	6231
466.449	6418
466.506	5423
466.528	5032
466.573	5703
466.607	6196
466.641	6021
466.687	5724
466.708	6080
466.766	7015
466.775	6865
466.842	5629
466.845	5559
466.909	6664
466.925	6893
466.977	6720
467.004	6622
467.044	6733
467.083	6830
467.111	6566
467.163	6008
467.178	6248
467.242	7170
467.245	7154
467.312	6504
467.321	6405
467.379	6594
467.400	6639
467.446	7054
467.480	7330
467.559	7703
467.638	6362
467.717	7074
467.796	7876
467.875	8064
467.955	8016
468.034	9007
468.113	8576
468.192	11019
468.271	13205
468.350	19999
468.429	30829
468.508	34051
468.588	20908
468.667	11655
468.746	9223
468.825	9012
468.904	7384
468.983	7944
469.062	7768
469.141	7859
469.220	6861
469.299	7853
469.378	6055
469.456	6862
469.535	7074
469.614	7136
469.693	6287
469.772	7145
469.851	7535
469.930	7261
470.009	7383
470.088	7891
470.166	8627
470.245	11462
470.324	13170
470.403	10178
470.482	7603
470.560	7380
470.639	6500
470.718	6723
470.797	6695
470.875	7795
470.954	6996
471.033	6433
471.111	5961
471.190	7179
471.269	6698
471.347	6243
471.426	7070
471.505	6383
471.583	6260
471.662	7858
471.740	6219
471.819	6510
471.898	6529
471.976	7693
472.055	6156
472.133	6079
472.212	7242
472.290	5772
472.369	6149
472.447	7138
472.526	6336
472.604	6869
472.683	7088
472.761	8028
472.839	6657
472.918	7963
472.996	6830
473.075	7586
473.153	7008
473.231	7133
473.310	6790
473.388	7866
473.466	7771
473.545	8034
473.623	7574
473.701	7816
473.780	7819
473.858	7274
473.936	8814
474.014	7756
474.093	7303
474.171	8668
474.249	7913
474.327	7204
474.405	6499
474.484	8064
474.562	6829
474.640	6577
474.718	6263
474.796	7245
474.874	7246
474.952	8143
475.030	7421
475.108	7578
475.187	8051
475.265	9434
475.343	13451
475.421	15143
475.499	7008
475.577	6964
475.655	7569
475.733	6905
475.811	6348
475.889	6708
475.966	7946
476.044	7659
476.122	9522
476.200	13077
476.278	9498
476.356	7246
476.434	7262
476.512	8866
476.590	11368
476.667	10172
476.745	6561
476.823	7686
476.901	6251
476.979	6265
477.056	6856
477.134	6550
477.212	6959
477.290	6537
477.367	6977
477.445	7519
477.523	6307
477.601	6409
477.678	6988
477.756	6971
477.834	6489
477.911	7711
477.989	6610
478.066	7320
478.144	6948
478.222	9872
478.299	17515
478.377	14916
478.454	7698
478.532	6982
478.609	6468
478.687	7296
478.764	5893
478.842	6655
478.919	6041
478.997	7397
479.074	6554
479.152	5390
479.229	6629
479.307	7414
479.384	5982
479.461	7174
479.539	6723
479.616	5769
479.694	7078
479.771	7047
479.848	6240
479.926	5124
480.003	7512
480.080	7068
480.157	7433
480.235	6583
480.312	6665
480.389	5936
480.467	6802
480.544	7211
480.621	7622
480.698	8752
480.775	7736
480.853	7799
480.930	6487
481.007	7706
481.084	7223
481.161	8557
481.238	7398
481.315	6783
481.392	5841
481.470	6822
481.547	6978
481.624	6968
481.701	7536
481.778	7644
481.855	7030
481.932	8865
482.009	9004
482.086	8571
482.163	10658
482.240	16250
482.317	24953
482.393	18926
482.470	9442
482.547	9447
482.624	7024
482.701	8608
482.778	7373
482.855	8190
482.932	8069
483.009	8848
483.085	9803
483.162	11442
483.239	11732
483.316	11023
483.393	11543
483.469	10638
483.546	10209
483.623	8379
483.699	6863
483.776	7319
483.853	7226
483.930	6662
484.006	6695
484.083	7410
484.160	6645
484.236	7540
484.313	6733
484.389	8014
484.466	9347
484.543	10960
484.619	14972
484.696	19575
484.772	12332
484.849	8581
484.925	7707
485.002	7460
485.078	6548
485.155	6898
485.231	6205
485.308	6430
485.384	7194
485.461	7164
485.537	5356
485.614	7295
485.690	6545
485.766	6132
485.843	6406
485.919	7445
485.995	6514
486.072	6729
486.148	6132
486.224	6385
486.301	5699
486.377	6290
486.453	5013
486.530	6647
486.606	6805
486.682	7032
486.758	6592
486.835	7551
486.911	6190
486.987	8554
487.063	10165
487.139	10875
487.215	12349
487.292	14005
487.368	15338
487.444	18634
487.520	25738
487.596	39038
487.672	90187
487.748	306171
487.824	481928
487.900	149529
487.976	38557
488.052	21312
488.128	15511
488.204	11990
488.280	10684
488.356	8749
488.432	8594
488.508	7960
488.584	8275
488.660	7468
488.736	7337
488.812	6761
488.888	7116
488.964	7414
489.039	7130
489.115	9169
489.191	8832
489.267	6518
489.343	6048
489.418	7155
489.494	6135
489.570	5250
489.646	7587
489.722	6826
489.797	5697
489.873	6813
489.949	6801
490.024	6060
490.100	6797
490.176	7482
490.251	7051
490.327	7936
490.403	7532
490.478	6114
490.554	6779
490.629	6165
490.705	6718
490.781	6957
490.856	6259
490.932	6878
491.007	5016
491.083	6629
491.158	6220
491.234	6216
491.309	5621
491.385	6043
491.460	6030
491.536	6414
491.611	5568
491.686	6545
491.762	6411
491.837	7399
491.913	7202
491.988	7871
492.063	7955
492.139	7051
492.214	6636
492.289	6669
492.365	6141
492.440	6598
492.515	6053
492.590	5344
492.666	5574
492.741	6198
492.816	5459
492.891	6046
492.967	6511
493.042	6345
493.117	5569
493.192	6077
493.267	6204
493.342	8545
493.418	10324
493.493	6543
493.568	6052
493.643	6424
493.718	5801
493.793	5079
493.868	5400
493.943	6530
494.018	6701
494.093	5726
494.168	5635
494.243	5467
494.318	6429
494.393	6971
494.468	5636
494.543	6494
494.618	5842
494.693	5890
494.768	6194
494.842	7088
494.917	6802
494.992	7144
495.067	5580
495.142	6063
495.217	5160
495.292	6876
495.366	6491
495.441	5239
495.516	6729
495.591	7121
495.665	8211
495.740	14086
495.815	8822
495.890	6164
495.964	4532
496.039	8120
496.114	6630
496.188	8581
496.263	8090
496.338	6228
496.412	5305
496.487	6756
496.561	6195
496.636	6374
496.710	5583
496.785	6333
496.860	5871
496.934	5586
497.009	6819
497.083	5597
497.158	6146
497.232	7220
497.307	7137
497.381	7565
497.455	7084
497.530	7225
497.604	6329
497.679	6056
497.753	6163
497.827	6069
497.902	4915
497.976	7026
498.050	7037
498.125	6590
498.199	7006
498.273	7303
498.348	7384
498.422	7782
498.496	7490
498.570	9573
498.645	5005
498.719	4478
498.793	5947
498.867	5695
498.941	4847
499.016	6081
499.090	5429
499.164	6022
499.238	6115
499.312	7242
499.386	7115
499.460	7250
499.534	7408
499.609	9743
499.683	7351
499.757	5997
499.831	5261
499.905	5522
499.979	5485
500.053	5450
500.127	6018
500.201	6041
500.275	6950
500.349	7012
500.422	6495
500.496	8546
500.570	9162
500.644	11314
500.718	9781
500.792	6595
500.866	5477
500.940	5441
501.013	4810
501.087	5121
501.161	4941
501.235	4568
501.309	6590
501.382	4577
501.456	6125
501.530	5315
501.603	3807
501.677	4843
501.751	4133
501.825	7116
501.898	4847
501.972	4806
502.046	4643
502.119	5042
502.193	5267
502.266	4385
502.340	4768
502.413	4637
502.487	5202
502.561	4804
502.634	4550
502.708	4936
502.781	4277
502.855	6036
502.928	4390
503.002	5520
503.075	4258
503.149	4551
503.222	5641
503.295	4882
503.369	4977
503.442	6605
503.516	6503
503.589	7877
503.662	8528
503.736	11551
503.809	14110
503.882	17788
503.956	26507
504.029	54932
504.102	176368
504.175	271050
504.249	93794
504.322	32212
504.395	17162
504.468	11966
504.542	8373
504.615	6379
504.688	6673
504.761	5191
504.834	7272
504.907	5804
504.980	5723
505.053	5454
505.127	3344
505.200	7004
505.273	4754
505.346	4160
505.419	3302
505.492	4894
505.565	4225
505.638	5160
505.711	3981
505.784	3871
505.857	3571
505.930	5444
506.003	2861
506.076	5366
506.149	2808
506.221	2671
506.294	4804
506.367	2668
506.440	3816
506.513	4685
506.586	3695
506.659	4086
506.731	3641
506.804	3051
506.877	2679
506.950	3880
507.022	5213
507.095	2420
507.168	3838
507.241	5010
507.313	2874
507.386	3576
507.459	4656
507.531	3159
507.604	2999
507.677	5293
507.749	2205
507.822	4264
507.894	2959
507.967	3842
508.040	3370
508.112	4549
508.185	3740
508.257	3166
508.330	5123
508.402	2824
508.475	2746
508.547	4589
508.620	2745
508.692	4185
508.765	3961
508.837	3241
508.909	4029
508.982	3682
509.054	4197
509.127	3641
509.199	3722
509.271	2827
509.344	2773
509.416	4457
509.488	3169
509.560	4689
509.633	3635
509.705	3716
509.777	3093
509.849	4860
509.922	1363
509.994	3596
510.066	3689
510.138	1644
510.210	5096
510.283	3641
510.355	3377
510.427	3202
510.499	3091
510.571	3113
510.643	2757
510.715	5640
510.787	2375
510.859	5104
510.931	3005
511.003	3969
511.076	5165
511.148	2402
511.219	2395
511.291	4017
511.363	3293
511.435	3515
511.507	2150
511.579	4451
511.651	4046
511.723	3699
511.795	3189
511.867	2740
511.939	3720
512.010	2040
512.082	3767
512.154	2854
512.226	3136
512.298	4429
512.369	3633
512.441	4029
512.513	4154
512.585	2626
512.656	4142
512.728	2917
512.800	2057
512.871	4500
512.943	3604
513.015	2634
513.086	3822
513.158	3182
513.230	3240
513.301	2923
513.373	4701
513.444	3262
513.516	3068
513.588	4299
513.659	4004
513.731	3592
513.802	2897
513.874	5580
513.945	4534
514.016	3397
514.088	3042
514.159	2759
514.231	3974
514.302	3377
514.374	3622
514.445	1790
514.516	5212
514.588	3091
514.659	3739
514.730	2810
514.802	4211
514.873	1605
514.944	5146
515.016	4874
515.087	3404
515.158	3316
515.229	4595
515.301	2950
515.372	4837
515.443	3836
515.514	3613
515.585	2904
515.656	4549
515.728	4911
515.799	3620
515.870	4459
515.941	4220
516.012	3076
516.083	5192
516.154	5109
516.225	5824
516.296	8282
516.367	7121
516.438	7904
516.509	10075
516.580	15629
516.651	49294
516.722	174670
516.793	70998
516.864	14624
516.935	15048
517.006	16619
517.077	20168
517.148	44501
517.219	212676
517.289	332048
517.360	46667
517.431	14320
517.502	8490
517.573	8548
517.643	6670
517.714	7429
517.785	8971
517.856	9534
517.926	13135
517.997	15398
518.068	18546
518.138	25608
518.209	39481
518.280	136739
518.350	496594
518.421	198782
518.492	36623
518.562	27573
518.633	34073
518.703	47747
518.774	111586
518.845	313610
518.915	300263
518.986	78184
519.056	30107
519.127	20295
519.197	14973
519.268	9835
519.338	10168
519.408	7484
519.479	6977
519.549	6599
519.620	7799
519.690	7105
519.760	4902
519.831	4591
519.901	4651
519.971	4625
520.042	4373
520.112	3839
520.182	5168
520.253	4670
520.323	3162
520.393	3631
520.463	5061
520.534	2230
520.604	7022
520.674	5186
520.744	4054
520.814	3310
520.885	4560
520.955	4611
521.025	2489
521.095	4483
521.165	5076
521.235	3956
521.305	2674
521.375	4864
521.445	4599
521.515	3793
521.585	5539
521.655	2528
521.725	3800
521.795	6113
521.865	2302
521.935	6127
522.005	3936
522.075	3974
522.145	5532
522.215	3581
522.285	4295
522.355	4236
522.424	4779
522.494	3251
522.564	4588
522.634	5035
522.704	8240
522.774	5085
522.843	5194
522.913	4632
522.983	4066
523.053	4235
523.122	5408
523.192	3869
523.262	5200
523.331	5076
523.401	4685
523.471	4905
523.540	4896
523.610	4190
523.680	5510
523.749	4863
523.819	5994
523.888	5026
523.958	4937
524.027	5284
524.097	4787
524.166	4900
524.236	3620
524.305	7117
524.375	3716
524.444	4528
524.514	6954
524.583	5243
524.653	3643
524.722	5783
524.791	3758
524.861	6794
524.930	4359
524.999	5285
525.069	6289
525.138	6293
525.207	5828
525.277	6985
525.346	6731
525.415	8378
525.484	9201
525.554	9556
525.623	12442
525.692	15279
525.761	18283
525.830	24026
525.900	30329
525.969	49234
526.038	93260
526.107	188115
526.176	542512
526.245	423081
526.314	121894
526.383	265165
526.452	361707
526.522	482281
526.591	443922
526.660	79044
526.729	45390
526.797	49076
526.867	66569
526.935	191380
527.004	680015
527.073	446145
527.142	65473
527.211	28396
527.280	18100
527.349	14492
527.418	9665
527.487	11115
527.555	7439
527.624	7786
527.693	6185
527.762	7939
527.831	5878
527.899	7691
527.968	6963
528.037	5705
528.106	6782
528.174	6341
528.243	5972
528.312	6024
528.380	5408
528.449	4126
528.518	6954
528.586	4872
528.655	6818
528.723	6281
528.792	5576
528.861	5235
528.929	4054
528.998	7011
529.066	5490
529.135	7529
529.203	6115
529.272	5736
529.340	8637
529.409	9684
529.477	6883
529.545	7049
529.614	8568
529.682	7116
529.751	7980
529.819	11492
529.887	9392
529.956	9014
530.024	8805
530.092	7530
530.161	8753
530.229	8551
530.297	9187
530.365	10105
530.434	9526
530.502	8223
530.570	8958
530.638	7193
530.707	8919
530.775	9098
530.843	7097
530.911	8593
530.979	9128
531.047	9200
531.115	9749
531.183	9075
531.252	9408
531.320	7988
531.388	7423
531.456	10274
531.524	7036
531.592	9886
531.660	10782
531.728	9460
531.796	7874
531.864	9164
531.932	9218
532.000	9490
532.067	8770
532.135	11303
532.203	11909
532.271	11218
532.339	12819
532.407	13504
532.475	11451
532.542	12269
532.610	11665
532.678	10599
532.746	15367
532.814	22307
532.881	13853
532.949	11804
533.017	11215
533.084	11825
533.152	10239
533.220	10696
533.287	9907
533.355	10562
533.423	11525
533.490	11290
533.558	11537
533.625	11841
533.693	10708
533.761	11994
533.828	11405
533.896	10471
533.963	12172
534.031	13814
534.098	17612
534.166	17730
534.233	16037
534.300	19394
534.368	17647
534.435	17309
534.503	18581
534.570	21066
534.637	23820
534.705	25819
534.772	28923
534.840	52801
534.907	226206
534.974	287015
535.041	41996
535.109	21364
535.176	16911
535.243	16857
535.310	16667
535.378	15291
535.445	16641
535.512	15949
535.579	16180
535.646	14306
535.714	16416
535.781	16904
535.848	17468
535.915	16712
535.982	15044
536.049	15653
536.116	16414
536.183	15762
536.250	14762
536.317	14751
536.384	16290
536.451	18520
536.518	16752
536.585	16314
536.652	18817
536.719	18273
536.786	14662
536.853	16006
536.920	16917
536.987	16796
537.053	15124
537.120	20769
537.187	21174
537.254	17976
537.321	17175
537.388	19580
537.454	16357
537.521	17647
537.588	17445
537.654	17924
537.721	18778
537.788	20209
537.855	16715
537.921	18770
537.988	16604
538.055	16850
538.121	14964
538.188	15845
538.254	15037
538.321	15147
538.388	16097
538.454	19080
538.521	19565
538.587	19816
538.654	18219
538.720	18704
538.787	18305
538.853	18678
538.920	17064
538.986	16430
539.053	15146
539.119	16989
539.185	17170
539.252	19040
539.318	17174
539.385	21126
539.451	18906
539.517	19337
539.583	18427
539.650	18689
539.716	19788
539.782	17123
539.849	15951
539.915	17871
539.981	16877
540.047	15981
540.114	17440
540.180	17983
540.246	17786
540.312	19543
540.378	19241
540.444	19909
540.510	19601
540.576	22087
540.643	17489
540.709	16976
540.775	18146
540.841	17162
540.907	17253
540.973	17649
541.039	16562
541.105	18327
541.171	19498
541.237	19126
541.303	19651
541.369	20221
541.435	19205
541.500	18230
541.566	15432
541.632	17048
541.698	16950
541.764	19315
541.830	17487
541.896	17111
541.961	18867
542.027	17986
542.093	19671
542.159	19721
542.224	16768
542.290	18715
542.356	16882
542.421	17291
542.487	17131
542.553	16338
542.618	16730
542.684	17192
542.750	17999
542.815	19209
542.881	17590
542.947	20185
543.012	20934
543.078	17677
543.143	16397
543.209	17935
543.274	16600
543.340	17905
543.405	18775
543.471	20353
543.536	18735
543.602	18628
543.667	15803
543.732	19874
543.798	17334
543.863	19443
543.928	18045
543.994	18464
544.059	18644
544.124	19835
544.190	19504
544.255	20675
544.320	19501
544.386	19812
544.451	21342
544.516	19569
544.581	19841
544.646	21043
544.712	23596
544.777	20986
544.842	20641
544.907	20953
544.972	19961
545.037	22989
545.102	22415
545.168	21637
545.233	22985
545.298	23446
545.363	22596
545.428	24460
545.493	25614
545.558	25272
545.623	24775
545.688	24051
545.753	25361
545.818	26518
545.883	28264
545.947	28682
546.012	29516
546.077	30545
546.142	32282
546.207	32963
546.272	34871
546.337	33989
546.401	36136
546.466	38584
546.531	39171
546.596	43970
546.661	45455
546.725	47513
546.790	50586
546.855	56165
546.919	59513
546.984	67912
547.049	72476
547.113	82347
547.178	89534
547.243	102703
547.307	118334
547.372	131797
547.436	130167
547.501	139451
547.565	149219
547.630	136705
547.695	130243
547.759	131713
547.823	133854
547.888	135505
547.952	140729
548.017	144758
548.081	146958
548.146	144858
548.210	149895
548.274	163918
548.339	158683
548.403	144484
548.468	137678
548.532	136670
548.596	138921
548.660	138723
548.725	150224
548.789	162515
548.853	158395
548.917	152719
548.982	148577
549.046	133960
549.110	120713
549.174	124938
549.238	145728
549.303	158006
549.367	163255
549.431	154708
549.495	145990
549.559	146129
549.623	167292
549.687	183524
549.751	176504
549.815	210909
549.879	215925
549.943	205165
550.007	215346
550.071	216095
550.135	193913
550.199	182620
550.263	180677
550.327	168707
550.391	173853
550.455	193695
550.519	202519
550.582	214103
550.646	238329
550.710	241617
550.774	236886
550.838	241316
550.901	245907
550.965	257616
551.029	264185
551.093	278984
551.156	297760
551.220	322517
551.284	350264
551.347	285205
551.411	252200
551.475	244862
551.538	254187
551.602	238362
551.666	227445
551.729	215548
551.793	211482
551.856	207200
551.920	203431
551.983	202778
552.047	200019
552.110	202744
552.174	202374
552.237	208377
552.301	196267
552.364	186034
552.428	180168
552.491	186981
552.554	189307
552.618	188432
552.681	191943
552.745	186485
552.808	193594
552.871	205274
552.934	197681
552.998	190980
553.061	185690
553.124	178557
553.187	176293
553.251	182653
553.314	183192
553.377	184314
553.440	194958
553.503	200201
553.567	199033
553.630	196682
553.693	194528
553.756	195378
553.819	191736
553.882	184574
553.945	184848
554.008	185332
554.071	187457
554.134	189878
554.197	177305
554.260	172085
554.323	177071
554.386	179186
554.449	185985
554.512	185106
554.575	177138
554.638	175983
554.701	174572
554.764	174849
554.827	167440
554.889	163551
554.952	153400
555.015	149712
555.078	153288
555.141	155081
555.203	151207
555.266	149722
555.329	151643
555.391	144760
555.454	142758
555.517	137162
555.580	132354
555.642	128638
555.705	126202
555.768	125763
555.830	122177
555.893	117535
555.955	113239
556.018	111550
556.080	112701
556.143	113869
556.206	113172
556.268	110243
556.330	107164
556.393	105228
556.455	103722
556.518	101065
556.580	95686
556.643	93054
556.705	91791
556.767	89865
556.830	88869
556.892	86999
556.955	86355
557.017	82570
557.079	83855
557.142	80115
557.204	78450
557.266	78799
557.328	74235
557.391	69697
557.453	67585
557.515	69286
557.577	68853
557.639	69816
557.701	68422
557.764	68288
557.826	69180
557.888	68461
557.950	71847
558.012	76414
558.074	90321
558.136	165903
558.198	355810
558.260	148126
558.322	72487
558.384	70369
558.446	72885
558.508	76456
558.570	83333
558.632	92670
558.694	110403
558.756	170773
558.818	412871
558.880	815289
558.942	380081
559.003	378711
559.065	196131
559.127	86865
559.189	80825
559.251	86981
559.312	115666
559.374	235858
559.436	623465
559.498	347116
559.559	96481
559.621	79171
559.683	88307
559.744	129787
559.806	350486
559.868	499105
559.929	136535
559.991	86631
560.052	127928
560.114	335886
560.176	223682
560.237	197980
560.299	312001
560.360	81384
560.422	38807
560.483	34372
560.545	31951
560.606	31754
560.667	29856
560.729	29277
560.790	27427
560.852	26866
560.913	26552
560.974	26080
561.036	25502
561.097	26968
561.158	25508
561.220	26002
561.281	23319
561.342	23457
561.403	23112
561.465	23363
561.526	24054
561.587	23988
561.648	20332
561.709	22034
561.771	20980
561.832	21591
561.893	20176
561.954	20357
562.015	20111
562.076	19724
562.137	18808
562.198	19870
562.259	19688
562.320	19371
562.381	19367
562.442	19688
562.503	18847
562.564	18576
562.625	17790
562.686	18085
562.747	17675
562.808	17880
562.869	16922
562.930	16764
562.991	17362
563.051	17192
563.112	16417
563.173	17457
563.234	16939
563.294	16835
563.355	15785
563.416	17268
563.477	16906
563.537	16023
563.598	16203
563.659	15905
563.720	14674
563.780	16334
563.841	15559
563.901	15915
563.962	14617
564.023	15188
564.083	15594
564.144	15004
564.204	14894
564.265	14359
564.325	14471
564.386	14866
564.446	15272
564.507	13939
564.567	14604
564.628	14306
564.688	14941
564.749	13561
564.809	14898
564.869	14270
564.930	13878
564.990	15493
565.050	14192
565.111	14135
565.171	13869
565.231	14431
565.292	15024
565.352	13293
565.412	14020
565.472	13453
565.532	14429
565.593	13859
565.653	13586
565.713	14138
565.773	13146
565.833	15088
565.893	15551
565.953	14430
566.013	12095
566.074	13213
566.134	13599
566.194	11849
566.254	12700
566.314	12913
566.374	11987
566.434	13455
566.494	12709
566.554	13397
566.614	13638
566.673	14126
566.733	14434
566.793	13639
566.853	13933
566.913	13191
566.973	13684
567.033	13943
567.092	13784
567.152	14192
567.212	14194
567.272	13798
567.331	14320
567.391	14216
567.451	15618
567.511	15644
567.570	14550
567.630	14396
567.690	13763
567.749	13105
567.809	13045
567.868	14508
567.928	13590
567.988	13393
568.047	13848
568.107	14181
568.166	13688
568.226	14135
568.285	14596
568.345	14956
568.404	13950
568.464	14438
568.523	13630
568.582	14378
568.642	13555
568.701	13888
568.761	13199
568.820	14098
568.879	13891
568.939	14552
568.998	14192
569.057	13407
569.116	13230
569.176	13461
569.235	12512
569.294	13952
569.353	12267
569.413	13235
569.472	12516
569.531	12581
569.590	12306
569.649	13138
569.708	12534
569.767	13576
569.827	12547
569.886	12528
569.945	12746
570.004	12830
570.063	12402
570.122	12971
570.181	13556
570.240	13467
570.299	14029
570.358	13572
570.417	13685
570.475	14419
570.534	13896
570.593	14726
570.652	14215
570.711	13735
570.770	12887
570.829	14018
570.887	13502
570.946	14580
571.005	14572
571.064	14118
571.122	14174
571.181	12498
571.240	12515
571.299	13505
571.357	12947
571.416	12735
571.475	12367
571.533	12891
571.592	13375
571.650	14996
571.709	13767
571.768	15888
571.826	15593
571.885	15461
571.943	13365
572.002	12753
572.060	13172
572.119	13567
572.177	13048
572.236	13649
572.294	13395
572.352	14672
572.411	13917
572.469	13774
572.528	12938
572.586	13287
572.644	13692
572.703	12488
572.761	12441
572.819	13750
572.877	11995
572.936	11541
572.994	11565
573.052	11419
573.110	11710
573.169	12238
573.227	12174
573.285	12048
573.343	12330
573.401	11982
573.459	12618
573.517	12101
573.576	13183
573.634	12590
573.692	11871
573.750	11761
573.808	10487
573.866	11676
573.924	10757
573.982	11826
574.040	11133
574.098	12204
574.155	10682
574.213	11424
574.271	10740
574.329	12020
574.387	11358
574.445	10805
574.503	9740
574.560	10048
574.618	10061
574.676	10848
574.734	10653
574.792	10335
574.849	9680
574.907	9418
574.965	8713
575.022	9232
575.080	9208
575.138	10055
575.195	8487
575.253	9019
575.311	8698
575.368	9135
575.426	8183
575.483	10203
575.541	9573
575.598	9594
575.656	8767
575.713	10181
575.771	8945
575.828	8782
575.886	8463
575.943	9890
576.001	7490
576.058	7654
576.115	8043
576.173	8901
576.230	8069
576.287	9288
576.345	9789
576.402	9634
576.459	8472
576.517	8799
576.574	8098
576.631	7264
576.688	8161
576.746	7695
576.803	8015
576.860	7577
576.917	8625
576.974	7844
577.031	8684
577.089	9179
577.146	7711
577.203	8259
577.260	8681
577.317	7903
577.374	7480
577.431	7389
577.488	7238
577.545	7109
577.602	7537
577.659	8151
577.716	8395
577.773	8050
577.830	7627
577.886	7756
577.943	7313
578.000	7869
578.057	7312
578.114	7244
578.171	7111
578.227	7505
578.284	7320
578.341	7580
578.398	7312
578.454	7951
578.511	7529
578.568	8170
578.625	7420
578.681	8012
578.738	7754
578.794	8009
578.851	7249
578.908	8087
578.964	7589
579.021	8839
579.077	7713
579.134	8621
579.190	8246
579.247	8162
579.303	6871
579.360	7977
579.416	7831
579.473	7171
579.529	7835
579.586	7913
579.642	8174
579.698	7425
579.755	7458
579.811	8544
579.867	8078
579.924	8201
579.980	7415
580.036	8613
580.093	8360
580.149	8369
580.205	8317
580.261	8696
580.317	8339
580.374	9068
580.430	9540
580.486	8339
580.542	7839
580.598	9499
580.619	9187
580.654	8654
580.692	8892
580.710	9031
580.765	8724
580.767	8723
580.823	8788
580.838	9031
580.879	9744
580.911	9083
580.935	8592
580.984	9243
580.991	9354
581.047	9220
581.057	9046
581.103	8295
581.130	8649
581.159	9030
581.203	8733
581.215	8665
581.270	8397
581.276	8327
581.326	7757
581.349	8117
581.382	8647
581.422	8126
581.438	7920
581.494	8222
581.494	8218
581.550	8414
581.567	8544
581.606	8939
581.640	8718
581.661	8545
581.713	10141
581.717	10284
581.773	8735
581.786	8622
581.829	8163
581.859	8249
581.885	8416
581.932	8770
581.940	8821
581.996	8485
582.004	8555
582.052	8966
582.077	8695
582.107	8351
582.150	8447
582.163	8516
582.219	8700
582.223	8712
582.274	8857
582.296	8376
582.330	7581
582.368	7821
582.386	7970
582.441	8357
582.441	8360
582.497	8423
582.514	8569
582.552	8989
582.587	9117
582.608	9111
582.659	8183
582.663	8124
582.719	9214
582.732	9038
582.774	8584
582.805	8445
582.830	8242
582.877	8332
582.885	8365
582.941	9707
582.950	9555
582.996	8628
583.023	8530
583.052	8640
583.095	8935
583.107	8932
583.162	9128
583.168	9148
583.218	9498
583.240	9113
583.273	8412
583.313	8209
583.328	8228
583.384	8511
583.385	8481
583.439	7345
583.458	7722
583.494	8595
583.531	8066
583.549	7731
583.603	8800
583.605	8836
583.660	7680
583.676	7872
583.715	8319
583.748	8432
583.770	8499
583.820	8476
583.825	8480
583.881	8860
583.893	8723
583.936	8243
583.965	8203
583.991	8073
584.038	8784
584.046	8935
584.101	8405
584.110	8339
584.156	8006
584.183	7966
584.211	7903
584.255	8295
584.266	8382
584.321	8661
584.328	8732
584.376	9372
584.400	9260
584.431	9069
584.472	8987
584.486	9005
584.541	9304
584.545	9377
584.596	10053
584.617	9791
584.651	9815
584.689	10391
584.706	10403
584.761	9556
584.762	9563
584.816	10693
584.834	10815
584.871	10630
584.906	11053
584.926	11422
584.978	11528
584.980	11533
585.035	13033
585.051	13412
585.090	14360
585.123	15239
585.145	15786
585.195	16686
585.200	16830
585.254	19733
585.267	20522
585.309	22482
585.340	24065
585.364	25729
585.412	29285
585.419	29840
585.473	37195
585.484	39267
585.528	49758
585.556	61699
585.583	79963
585.628	127800
585.637	142855
585.692	287538
585.700	312895
585.747	411754
585.772	341070
585.801	219014
585.845	87957
585.856	66611
585.910	35077
585.917	32457
585.965	24574
585.989	22204
586.019	20089
586.061	18391
586.074	17995
586.128	16659
586.133	16567
586.183	15664
586.205	15385
586.237	15267
586.277	15226
586.292	15197
586.346	14906
586.349	14954
586.401	15504
586.421	15262
586.455	14831
586.493	14891
586.509	15034
586.564	14704
586.565	14733
586.618	15975
586.637	16355
586.672	17619
586.709	19810
586.727	20757
586.781	22519
586.781	22507
586.835	18098
586.853	17237
586.889	15763
586.925	14737
586.944	14620
586.996	14962
586.998	14963
587.052	14919
587.068	14874
587.106	14682
587.140	14732
587.161	14837
587.212	14919
587.215	14927
587.269	15451
587.284	15649
587.323	15729
587.356	15697
587.377	16085
587.427	16924
587.431	16887
587.485	16744
587.499	16627
587.539	16881
587.571	17352
587.593	17851
587.643	19039
587.648	19124
587.702	19360
587.715	19435
587.755	18806
587.786	18721
587.810	18914
587.858	19268
587.864	19293
587.917	18665
587.930	18797
587.971	19608
588.001	19677
588.025	19273
588.073	19484
588.079	19605
588.133	19201
588.145	19500
588.187	20098
588.217	19767
588.241	19621
588.288	20160
588.295	20237
588.348	20788
588.360	20905
588.402	20996
588.431	21130
588.456	21630
588.503	22426
588.510	22459
588.564	23331
588.575	23616
588.617	25322
588.646	26391
588.671	27438
588.718	29766
588.725	30223
588.778	34834
588.789	36363
588.832	50320
588.861	61878
588.886	85631
588.932	141100
588.939	146815
588.993	187643
589.004	185425
589.047	103261
589.075	57751
589.100	43926
589.147	29368
589.154	28852
589.207	26003
589.218	25625
589.261	26552
589.290	27486
589.314	27804
589.361	28998
589.368	29777
589.421	37878
589.433	40034
589.475	62923
589.504	82058
589.528	106593
589.576	161763
589.582	158064
589.635	86205
589.647	72193
589.689	41881
589.718	26618
589.742	24827
589.790	22206
589.795	22153
589.849	21764
589.861	21787
589.902	21424
589.932	20987
589.955	20712
590.004	20736
590.009	20717
590.062	20133
590.075	20037
590.115	20277
590.146	20441
590.168	20228
590.218	19897
590.222	19978
590.275	21260
590.289	21636
590.328	21707
590.360	21535
590.381	21532
590.431	21602
590.435	21588
590.488	21704
590.503	21704
590.541	22033
590.574	22263
590.594	22415
590.645	23382
590.647	23402
590.700	23663
590.716	23894
590.753	24519
590.787	25022
590.806	25336
590.859	26387
590.859	26370
590.912	25793
590.930	25678
590.965	26232
591.001	26679
591.018	26497
591.071	26218
591.072	26228
591.124	25451
591.143	25317
591.177	25377
591.214	25405
591.230	25814
591.283	27334
591.285	27394
591.336	26374
591.356	26080
591.389	26273
591.427	26464
591.442	26263
591.495	25520
591.498	25479
591.547	25710
591.569	25925
591.600	26428
591.640	27049
591.653	27137
591.706	27492
591.711	27552
591.759	27542
591.782	27608
591.811	28233
591.853	29063
591.864	29135
591.917	29621
591.924	29699
591.969	29347
591.995	29180
592.022	29180
592.066	29319
592.075	29496
592.127	30671
592.137	30902
592.180	31122
592.208	31368
592.233	31637
592.279	32113
592.285	32171
592.338	32912
592.350	33104
592.390	32894
592.421	32769
592.443	33178
592.491	34165
592.495	34180
592.548	34651
592.562	34805
592.600	34554
592.633	34387
592.653	34285
592.704	33919
592.705	34118
592.775	34493
592.846	37569
592.916	36525
592.987	36765
593.058	36758
593.128	37411
593.199	38385
593.270	38431
593.341	39303
593.411	41288
593.482	42376
593.553	43312
593.623	43278
593.694	45312
593.764	46384
593.835	45467
593.906	46468
593.976	45863
594.047	47902
594.117	50143
594.188	49314
594.258	51605
594.329	49834
594.399	51435
594.470	54003
594.540	55362
594.611	56844
594.681	56884
594.751	55891
594.822	58385
594.892	60289
594.963	61537
595.033	62866
595.103	65873
595.174	65077
595.244	68098
595.314	70705
595.384	72053
595.455	73649
595.525	76219
595.595	79558
595.665	78309
595.736	75918
595.806	78371
595.876	78800
595.946	81365
596.016	82565
596.087	86284
596.157	84288
596.227	86017
596.297	89980
596.367	97855
596.437	101722
596.507	101802
596.577	101018
596.647	105392
596.717	108629
596.787	113626
596.857	110575
596.927	112424
596.997	111748
597.067	115448
597.137	116344
597.207	116016
597.277	117012
597.347	112709
597.417	108494
597.487	109153
597.557	112289
597.626	114828
597.696	116028
597.766	115016
597.836	107949
597.906	103779
597.975	101256
598.045	103580
598.115	108322
598.185	116868
598.254	127982
598.324	138670
598.394	139720
598.464	137381
598.533	133449
598.603	127525
598.672	122227
598.742	126124
598.812	124125
598.881	129603
598.951	128715
599.020	130311
599.090	135155
599.159	137882
599.229	131334
599.299	129453
599.368	132452
599.437	129153
599.507	120875
599.576	116291
599.646	116244
599.715	115086
599.785	112771
599.854	109184
599.924	107049
599.993	108387
600.062	109454
600.132	113621
600.201	118489
600.270	138501
600.340	144621
600.409	142218
600.478	139598
600.547	145006
600.617	130279
600.686	104613
600.755	94974
600.824	90610
600.894	89681
600.963	90201
601.032	88925
601.101	86593
601.170	81504
601.239	80075
601.308	80525
601.378	79572
601.447	81000
601.516	81552
601.585	82827
601.654	83146
601.723	81931
601.792	85245
601.861	88467
601.930	92093
601.999	92782
602.068	93039
602.137	94292
602.206	96749
602.275	95933
602.343	98101
602.412	97985
602.481	99069
602.550	99438
602.619	103180
602.688	102422
602.756	103710
602.825	106481
602.894	108310
602.963	108928
603.032	110967
603.100	112764
603.169	112062
603.238	111906
603.307	113048
603.375	115062
603.444	115920
603.513	117334
603.581	119472
603.650	121252
603.719	118931
603.787	120887
603.856	124853
603.924	127779
603.993	132092
604.061	136592
604.130	142857
604.198	144568
604.267	147034
604.335	149034
604.404	152934
604.472	154669
604.541	154678
604.609	157159
604.678	158040
604.746	158120
604.815	162442
604.883	162881
604.951	163912
605.020	167783
605.088	169848
605.156	171389
605.225	176069
605.293	173702
605.361	173085
605.429	174425
605.498	181483
605.566	182784
605.634	190698
605.702	198795
605.771	203022
605.839	204846
605.907	199750
605.975	193034
606.043	189790
606.111	190092
606.180	190659
606.248	189277
606.316	185871
606.384	185306
606.452	187360
606.520	188816
606.588	195929
606.656	197856
606.724	192882
606.792	182939
606.860	166526
606.928	154495
606.996	146601
607.064	144098
607.132	148069
607.200	157477
607.267	161080
607.335	164247
607.403	168773
607.471	162721
607.539	158184
607.607	158271
607.674	142179
607.742	141488
607.810	138553
607.878	139176
607.946	141843
608.013	148054
608.081	151229
608.149	151669
608.216	157792
608.284	161791
608.352	161432
608.419	158722
608.487	157664
608.555	155409
608.622	159798
608.690	169859
608.757	184328
608.825	187763
608.893	183620
608.960	174128
609.028	166281
609.095	166187
609.163	165956
609.230	148959
609.298	136380
609.365	144536
609.432	155751
609.500	169618
609.567	190353
609.635	214737
609.702	221928
609.769	212457
609.837	169119
609.904	145819
609.971	149883
610.039	160274
610.106	184810
610.173	270414
610.241	478817
610.308	311344
610.375	176301
610.442	157007
610.509	151912
610.577	152908
610.644	154498
610.711	159737
610.778	164861
610.845	170347
610.912	180604
610.980	187293
611.047	185593
611.114	184289
611.181	178576
611.248	177619
611.315	189096
611.382	190366
611.449	198372
611.516	202398
611.583	200493
611.650	197994
611.717	202125
611.784	204075
611.851	209971
611.918	217373
611.984	235576
612.051	279700
612.118	405031
612.185	685762
612.252	509913
612.319	275628
612.386	248171
612.452	231749
612.519	221602
612.586	218644
612.653	222719
612.719	229179
612.786	222269
612.853	206571
612.919	205179
612.986	206951
613.053	195181
613.120	185677
613.186	178663
613.253	182149
613.319	183025
613.386	180663
613.453	184239
613.519	185916
613.586	182218
613.652	182827
613.719	181163
613.785	185018
613.852	188759
613.918	184545
613.985	187538
614.051	192296
614.118	191176
614.184	185000
614.250	185567
614.317	189655
614.383	188392
614.449	190627
614.516	188634
614.582	190981
614.648	187426
614.715	184255
614.781	180188
614.847	181957
614.914	180670
614.980	174694
615.046	176793
615.112	181185
615.179	181889
615.245	182995
615.311	181488
615.377	183053
615.443	186410
615.509	187118
615.575	190731
615.642	191985
615.708	195327
615.774	200068
615.840	210014
615.906	213951
615.972	238175
616.038	294920
616.104	457753
616.170	737320
616.236	636743
616.302	329608
616.368	282747
616.434	228255
616.500	215452
616.565	229382
616.631	267887
616.697	233949
616.763	239355
616.829	304689
616.895	457805
616.961	425763
617.026	241768
617.092	196530
617.158	191225
617.224	185412
617.289	173873
617.355	168195
617.421	166387
617.487	165805
617.552	159774
617.618	156970
617.684	157279
617.749	160720
617.815	151689
617.880	150969
617.946	150984
618.012	152074
618.077	157710
618.143	149892
618.208	150471
618.274	161921
618.339	161014
618.405	135041
618.470	134769
618.536	134658
618.601	131192
618.667	122741
618.732	118677
618.798	116161
618.863	117105
618.928	116183
618.994	117631
619.059	116864
619.124	116806
619.190	116371
619.255	115523
619.320	115511
619.386	117124
619.451	112444
619.516	112795
619.581	112577
619.647	117059
619.712	117858
619.777	111822
619.842	113057
619.907	114552
619.972	117285
620.038	116015
620.103	111755
620.168	111967
620.233	113384
620.298	115528
620.363	117423
620.428	119976
620.493	123552
620.558	124035
620.623	126543
620.688	124573
620.753	123264
620.818	127281
620.883	126156
620.948	126576
621.013	123652
621.078	122251
621.143	121742
621.207	125817
621.272	122455
621.337	118656
621.402	117754
621.467	116670
621.532	115918
621.596	117182
621.661	114118
621.726	113309
621.791	113659
621.855	114580
621.920	112529
621.985	115054
622.049	117180
622.114	117035
622.179	118554
622.243	121148
622.308	124558
622.373	129128
622.437	126278
622.502	118947
622.566	118967
622.631	117729
622.695	122047
622.760	119776
622.824	120416
622.889	120793
622.953	119925
623.018	127608
623.082	128121
623.147	127049
623.211	124232
623.276	125044
623.340	119049
623.404	117549
623.469	117077
623.533	118878
623.597	115495
623.662	114554
623.726	107836
623.790	102262
623.854	97003
623.919	100789
623.983	101618
624.047	103795
624.111	103493
624.176	105543
624.240	105070
624.304	111644
624.368	106988
624.432	106198
624.496	108735
624.560	114154
624.625	115973
624.689	114239
624.753	119197
624.817	113859
624.881	110592
624.945	101901
625.009	99431
625.073	101575
625.137	102493
625.201	107265
625.265	108408
625.329	103721
625.393	104005
625.456	103658
625.520	109591
625.584	109699
625.648	110482
625.712	113425
625.776	111730
625.839	106978
625.903	91358
625.967	85824
626.031	92838
626.095	109278
626.158	99532
626.222	79352
626.286	76052
626.349	73288
626.413	66919
626.477	68855
626.540	68769
626.604	66682
626.668	66962
626.731	66818
626.795	65809
626.858	66628
626.922	65069
626.986	64940
627.049	63565
627.113	67988
627.176	65926
627.240	63402
627.303	63588
627.366	62798
627.430	64613
627.493	62154
627.557	60801
627.620	63778
627.684	66119
627.747	65996
627.810	59280
627.874	55169
627.937	51940
628.000	55565
628.064	52752
628.127	46653
628.190	46860
628.253	45510
628.317	43966
628.380	42779
628.443	40374
628.506	40803
628.569	39223
628.632	36649
628.696	37843
628.759	36892
628.822	35038
628.885	34638
628.948	33544
629.011	34111
629.074	32144
629.137	30909
629.200	29995
629.263	31630
629.326	28893
629.389	29611
629.452	29566
629.515	28955
629.578	27820
629.641	30228
629.704	28266
629.767	29187
629.830	28619
629.892	27637
629.955	26509
630.018	28885
630.081	26817
630.144	28789
630.207	24910
630.269	28995
630.332	25523
630.395	26389
630.458	26087
630.520	24821
630.583	25949
630.646	25948
630.708	24945
630.771	25276
630.834	28199
630.896	26438
630.959	25924
631.021	25440
631.084	25126
631.146	25715
631.209	25684
631.272	25901
631.334	26289
631.397	27120
631.459	25669
631.522	28370
631.584	26860
631.646	29710
631.709	28849
631.771	28715
631.834	28057
631.896	27282
631.958	24769
632.021	26281
632.083	23915
632.145	25765
632.208	23392
632.270	25567
632.332	23799
632.395	24063
632.457	24549
632.519	23051
632.581	24837
632.643	23011
632.706	24089
632.768	22096
632.830	24469
632.892	24367
632.954	24183
633.016	25923
633.078	24304
633.141	25279
633.203	23368
633.265	24585
633.327	23795
633.389	24338
633.451	25014
633.513	23206
633.575	24446
633.637	23960
633.698	24639
633.760	26891
633.822	26847
633.884	27060
633.946	27025
634.008	27262
634.070	27577
634.132	28649
634.193	30011
634.255	33540
634.317	31162
634.379	32736
634.441	29428
634.502	27330
634.564	26630
634.626	24169
634.687	23433
634.749	23796
634.811	23236
634.873	22199
634.934	23093
634.996	23336
635.057	21680
635.119	22515
635.181	24010
635.242	24057
635.304	21549
635.365	25713
635.427	22004
635.488	22792
635.550	21796
635.611	23291
635.673	21308
635.734	24955
635.796	23321
635.857	27840
635.918	26743
635.980	30511
636.041	30624
636.102	33330
636.164	32622
636.225	32748
636.286	27072
636.348	25586
636.409	23230
636.470	21936
636.531	22557
636.593	22485
636.654	22219
636.715	20753
636.776	21336
636.838	20061
636.899	20268
636.960	20365
637.021	19259
637.082	18957
637.143	18539
637.204	17558
637.265	18099
637.326	19324
637.387	19425
637.448	18035
637.509	20208
637.570	19392
637.631	19775
637.692	18142
637.753	17317
637.814	18412
637.875	16488
637.936	19001
637.997	17326
638.058	17420
638.119	17440
638.179	18500
638.240	17358
638.301	17651
638.362	16387
638.423	17265
638.483	18017
638.544	15479
638.605	16241
638.666	17101
638.726	17668
638.787	17952
638.848	16479
638.908	16411
638.969	16581
639.030	15074
639.090	14770
639.151	15275
639.211	17211
639.272	17018
639.332	16075
639.393	17122
639.453	16412
639.514	17612
639.574	15509
639.635	14737
639.695	15618
639.756	14647
639.816	14389
639.877	15152
639.937	15189
639.997	15568
640.058	13556
640.118	13249
640.178	15405
640.239	13861
640.299	14846
640.359	14669
640.420	15966
640.480	16182
640.540	17792
640.600	17866
640.661	16897
640.721	14947
640.781	16659
640.841	14237
640.901	15356
640.961	14867
641.021	14761
641.082	15238
641.142	14157
641.202	15724
641.262	12655
641.322	14725
641.382	13391
641.442	14746
641.502	13472
641.562	14789
641.622	14038
641.682	14336
641.742	15340
641.802	15632
641.861	14714
641.921	13134
641.981	13626
642.041	13167
642.101	12702
642.161	11746
642.221	12880
642.280	12684
642.340	13467
642.400	12520
642.460	14853
642.519	13563
642.579	13970
642.639	13882
642.698	11214
642.758	15805
642.818	13026
642.877	12376
642.937	13969
642.997	13384
643.056	13806
643.116	13096
643.175	15159
643.235	13268
643.294	14337
643.354	15549
643.414	16165
643.473	18336
643.532	20504
643.592	25778
643.651	37326
643.711	58580
643.770	100978
643.830	213588
643.889	380653
643.948	130283
644.008	36324
644.067	22067
644.126	18235
644.186	17138
644.245	15923
644.304	12756
644.363	16353
644.423	12035
644.482	12958
644.541	14396
644.600	13880
644.659	18632
644.719	20788
644.778	27817
644.837	44460
644.896	84049
644.955	172657
645.014	65280
645.073	20725
645.132	15292
645.191	15504
645.250	14105
645.309	16387
645.368	16436
645.427	22035
645.486	32876
645.545	55109
645.604	20187
645.663	14078
645.722	13926
645.781	14761
645.840	16317
645.898	18046
645.957	25522
646.016	33409
646.075	53461
646.134	95413
646.192	222761
646.251	301311
646.310	70944
646.369	26331
646.427	22365
646.486	17155
646.545	15270
646.603	13670
646.662	12554
646.721	12735
646.779	12347
646.838	12096
646.896	15690
646.955	19531
647.014	29037
647.072	49909
647.131	124447
647.189	63941
647.248	13407
647.306	12217
647.365	10937
647.423	8916
647.481	11250
647.540	8913
647.598	10549
647.657	9619
647.715	10612
647.773	8248
647.832	10003
647.890	7390
647.948	8075
648.007	9040
648.065	7631
648.123	7791
648.181	9681
648.240	7639
648.298	7375
648.356	7656
648.414	8804
648.472	8067
648.531	8194
648.589	7153
648.647	7584
648.705	7550
648.763	7509
648.821	8311
648.879	7795
648.937	8404
648.995	10063
649.053	12152
649.111	17188
649.169	27309
649.227	44163
649.285	86790
649.343	219091
649.401	114211
649.459	21207
649.516	13473
649.574	9474
649.632	11226
649.690	11727
649.748	14939
649.806	18776
649.863	35026
649.921	92653
649.979	63115
650.037	11920
650.094	6370
650.152	7345
650.210	5588
650.268	6460
650.325	5830
650.383	6646
650.440	4541
650.498	5797
650.556	5449
650.613	4480
650.671	4707
650.728	5955
650.786	4865
650.843	7217
650.901	4788
650.958	5002
651.016	4446
651.073	4182
651.131	4464
651.188	3198
651.246	4788
651.303	3894
651.360	3988
651.418	4242
651.475	4641
651.532	3502
651.590	4688
651.647	3718
651.704	3962
651.762	3847
651.819	3594
651.876	4101
651.933	3395
651.990	4614
652.048	2138
652.105	3000
652.162	4368
652.219	3929
652.276	4120
652.333	4026
652.390	2387
652.448	3230
652.505	3523
652.562	3424
652.619	3413
652.676	3552
652.733	4152
652.790	3370
652.847	2633
652.904	3987
652.961	1221
653.017	2877
653.074	3153
653.131	2971
653.188	2569
653.245	3102
653.302	3126
653.359	3071
653.415	3587
653.472	2955
653.529	4109
653.586	2764
653.642	2983
653.699	3464
653.756	2218
653.813	3597
653.869	3704
653.926	3221
653.983	2557
654.039	3675
654.096	3112
654.152	4557
654.209	2446
654.266	3214
654.322	2423
654.379	3236
654.435	3439
654.492	2721
654.548	3018
654.605	2974
654.661	3580
654.717	2829
654.774	2887
654.830	2586
654.887	2303
654.943	2733
655.000	2509
655.056	2840
655.112	2751
655.168	1905
655.225	2643
655.281	2479
655.337	2058
655.394	1660
655.450	2362
655.506	2700
655.562	2455
655.618	3450
655.675	1168
655.731	3178
655.787	2789
655.843	4027
655.899	1870
655.955	3433
656.011	3666
656.067	2623
656.123	3097
656.179	4070
656.235	5239
656.291	3095
656.347	4441
656.403	2898
656.459	3236
656.515	3862
656.571	2262
656.627	3633
656.683	2064
656.739	2814
656.795	2688
656.850	3380
656.906	2853
656.962	3015
657.018	2580
657.074	4435
657.129	6097
657.185	9444
657.241	20476
657.297	12189
657.352	3719
657.408	2510
657.464	2501
657.519	2672
657.575	1806
657.630	2575
657.686	1616
657.742	2023
657.797	1493
657.853	2323
657.908	2763
657.964	1782
658.019	3102
658.075	1890
658.130	2050
658.186	1379
658.241	1971
658.297	1854
658.352	1363
658.407	2628
658.463	1902
658.518	2126
658.573	2134
658.629	2208
658.684	1673
658.739	2725
658.795	1489
658.850	2378
658.905	1463
658.960	1933
659.016	1299
659.071	2375
659.126	1933
659.181	1751
659.236	2470
659.291	2601
659.346	1017
659.401	2663
659.457	2482
659.512	2154
659.567	2163
659.622	1617
659.677	979
659.732	671
659.787	1713
659.842	1908
659.897	1486
659.952	2371
660.007	1776
660.061	1647
660.116	1329
660.171	436
660.226	1482
660.281	1908
660.336	1255
660.391	2304
660.445	1182
660.500	1846
660.555	1595
660.610	1293
660.664	2398
660.719	695
660.774	1353
660.828	2579
660.883	1988
660.938	1716
660.992	1041
661.047	2003
661.101	1504
661.156	1730
661.211	239
661.265	1981
661.320	1497
661.374	816
661.429	908
661.483	2437
661.538	778
661.592	596
661.647	1595
661.701	2277
661.755	1408
661.810	1827
661.864	477
661.919	1722
661.973	1477
662.027	1761
662.081	1012
662.136	1805
662.190	625
662.244	2001
662.299	1239
662.353	1675
662.407	-165
662.461	1179
662.515	1378
662.569	1287
662.624	1422
662.678	302
662.732	1223
662.786	1468
662.840	1529
662.894	1631
662.948	1399
663.002	1302
663.056	1081
663.110	1132
663.164	1131
663.218	1638
663.272	1105
663.326	1630
663.380	1605
663.434	1657
663.488	859
663.542	1456
663.595	1235
663.649	706
663.703	1810
663.757	1540
663.811	970
663.864	1434
663.918	1783
663.972	1498
664.026	1622
664.079	814
664.133	1082
664.187	1549
664.240	783
664.294	1677
664.348	1228
664.401	1727
664.455	1384
664.508	1641
664.562	1788
664.615	2076
664.669	752
664.722	1031
664.776	1039
664.829	1391
664.883	491
664.936	793
664.990	347
665.043	1896
665.097	786
665.150	1788
665.203	729
665.257	1445
665.310	981
665.363	1353
665.417	1558
665.470	953
665.523	620
665.576	812
665.630	1180
665.683	1319
665.736	1350
665.789	896
665.842	906
665.895	1157
665.949	1612
666.002	911
666.055	791
666.108	1756
666.161	1369
666.214	2019
666.267	864
666.320	2181
666.373	1428
666.426	1395
666.479	2150
666.532	1752
666.585	1606
666.638	1890
666.691	1702
666.744	1720
666.796	2056
666.849	1961
666.902	1997
666.955	1964
667.008	1120
667.060	1877
667.113	1635
667.166	1915
667.219	2139
667.271	2020
667.324	1857
667.377	2726
667.430	1467
667.482	2308
667.535	1816
667.587	2547
667.640	212
667.693	1930
667.745	1636
667.798	1706
667.850	649
667.903	2282
667.955	797
668.008	1835
668.060	1234
668.113	1114
668.165	1704
668.218	2512
668.270	1702
668.322	1819
668.375	1095
668.427	1871
668.479	1121
668.532	2123
668.584	1394
668.636	1159
668.689	1259
668.741	904
668.793	1169
668.845	1526
668.898	832
668.950	2114
669.002	1482
669.054	258
669.106	1144
669.158	2030
669.211	1481
669.263	1691
669.315	1716
669.367	1672
669.419	1185
669.471	1577
669.523	1690
669.575	1515
669.627	1169
669.679	1364
669.731	226
669.783	1588
669.835	1289
669.886	1578
669.938	1205
669.990	1539
670.042	1243
670.094	1547
670.146	1063
670.197	1496
670.249	1349
670.301	1384
670.353	1566
670.404	1729
670.456	1453
670.508	3155
670.560	3539
670.611	6521
670.663	9891
670.715	24990
670.766	37443
670.818	10876
670.869	3004
670.921	2845
670.972	1922
671.024	1576
671.075	1972
671.127	1770
671.178	652
671.230	2114
671.281	2289
671.333	2625
671.384	2373
671.436	3503
671.487	6313
671.538	9548
671.590	14830
671.641	23951
671.692	44607
671.744	85914
671.795	60967
671.846	19391
671.897	8539
671.949	4365
672.000	3785
672.051	3064
672.102	2093
672.153	1374
672.204	1388
672.256	1654
672.307	1647
672.358	1486
672.409	876
672.460	1401
672.511	1044
672.562	998
672.613	383
672.664	653
672.715	568
672.766	1174
672.817	-190
672.868	728
672.919	-3
672.970	376
673.021	726
673.071	614
673.122	441
673.173	1231
673.224	1339
673.275	-203
673.326	313
673.376	1091
673.427	230
673.478	1138
673.528	1287
673.579	1398
673.630	807
673.680	872
673.731	-49
673.782	745
673.832	111
673.883	795
673.934	124
673.984	680
674.035	386
674.085	1310
674.136	1187
674.186	905
674.237	662
674.287	227
674.338	938
674.388	1096
674.438	517
674.489	696
674.539	596
674.589	853
674.640	135
674.690	540
674.740	-258
674.791	1175
674.841	1162
674.891	1250
674.942	306
674.992	334
675.042	-196
675.092	457
675.142	-994
675.193	506
675.243	262
675.293	1337
675.343	395
675.393	970
675.443	570
675.493	598
675.543	77
675.593	-24
675.643	505
675.693	878
675.743	776
675.793	468
675.843	98
675.893	114
675.943	-451
675.993	932
676.043	-688
676.093	1076
676.142	297
676.192	503
676.242	-55
676.292	44
676.341	-484
676.391	699
676.441	-116
676.491	474
676.540	176
676.590	1007
676.640	-380
676.689	574
676.739	-258
676.789	785
676.838	-859
676.888	647
676.937	-91
676.987	212
677.037	280
677.086	-626
677.136	-991
677.185	-277
677.235	-418
677.284	495
677.333	428
677.383	77
677.432	-428
677.482	-424
677.531	245
677.580	-14
677.630	194
677.679	63
677.728	95
677.778	-370
677.827	-426
677.876	475
677.925	146
677.975	635
678.024	123
678.073	-25
678.122	648
678.171	-439
678.220	-620
678.269	1249
678.319	295
678.368	788
678.417	-160
678.466	581
678.515	-296
678.564	136
678.613	-511
678.662	-200
678.711	-29
678.760	86
678.809	-130
678.857	-244
678.906	-260
678.955	-94
679.004	-217
679.053	-821
679.102	-315
679.151	-485
679.199	38
679.248	-252
679.297	-376
679.346	-627
679.394	-487
679.443	-522
679.492	-1244
679.540	-522
679.589	-153
679.638	-48
679.686	-249
679.735	578
679.784	334
679.832	621
679.881	-149
679.929	-75
679.978	-599
680.026	22
680.075	-592
680.123	-417
680.172	-1024
680.220	-4
680.268	816
680.317	-609
680.365	-922
680.414	-1235
680.462	-670
680.510	474
680.559	-458
680.607	-397
680.655	-292
680.703	96
680.752	-416
680.800	-123
680.848	-683
680.896	-148
680.945	-348
680.993	-299
681.041	-863
681.089	-59
681.137	260
681.185	-156
681.233	-425
681.258	-439
681.281	-465
681.329	-1040
681.377	41
681.380	54
681.425	50
681.473	-131
681.502	76
681.521	194
681.569	314
681.617	15
681.624	-18
681.665	-360
681.713	-191
681.745	-30
681.761	25
681.809	-808
681.857	755
681.867	524
681.904	-331
681.952	318
681.989	-393
682.000	-618
682.048	-100
682.096	-123
682.111	27
682.143	295
682.191	-597
682.233	696
682.239	870
682.286	-357
682.334	789
682.354	274
682.382	-449
682.430	188
682.476	-31
682.477	-48
682.525	-349
682.572	-135
682.598	-68
682.620	-28
682.667	-51
682.715	817
682.720	765
682.763	101
682.810	509
682.841	497
682.857	474
682.905	-14
682.952	886
682.963	868
683.000	759
683.047	-148
683.085	1269
683.095	1646
683.142	817
683.190	639
683.206	569
683.237	382
683.284	1236
683.328	389
683.332	310
683.379	675
683.426	1028
683.449	833
683.473	584
683.521	559
683.568	638
683.571	613
683.615	239
683.662	1053
683.693	603
683.709	288
683.757	513
683.804	1021
683.814	919
683.851	561
683.898	847
683.936	1317
683.945	1440
683.992	693
684.039	732
684.057	671
684.086	525
684.133	1526
684.179	246
684.180	196
684.227	1309
684.274	1490
684.300	1511
684.321	1496
684.368	864
684.415	1481
684.422	1422
684.462	1040
684.509	438
684.543	903
684.556	1049
684.603	1449
684.649	759
684.665	817
684.696	972
684.743	1340
684.786	1810
684.790	1831
684.837	953
684.883	1519
684.908	1268
684.930	1093
684.977	927
685.023	1357
685.029	1434
685.070	1857
685.117	1031
685.150	1189
685.164	1290
685.210	1540
685.257	2181
685.272	2040
685.303	1547
685.350	1736
685.393	1522
685.396	1512
685.443	1404
685.490	1536
685.514	1523
685.536	1484
685.583	997
685.629	1199
685.636	1242
685.675	1562
685.722	1712
685.757	1635
685.768	1572
685.815	1591
685.861	1458
685.878	1434
685.908	1504
685.954	1585
686.000	2267
686.000	2270
686.047	1818
686.093	2112
686.121	1953
686.139	1904
686.185	1875
686.232	1849
686.242	1971
686.278	2377
686.324	2116
686.363	2094
686.370	2068
686.416	1682
686.463	3079
686.484	2430
686.509	1797
686.555	2247
686.601	1947
686.606	2056
686.647	2910
686.693	2875
686.727	2485
686.739	2329
686.785	2403
686.831	2214
686.848	2361
686.877	2696
686.923	2210
686.969	2073
686.969	2072
687.015	2819
687.061	2821
687.090	3135
687.107	3277
687.153	2754
687.199	3296
687.211	3056
687.245	2319
687.291	2912
687.332	2763
687.336	2774
687.382	3154
687.428	2537
687.453	2885
687.474	3046
687.520	2698
687.565	3088
687.574	2905
687.611	2549
687.657	3322
687.695	3450
687.702	3431
687.748	3612
687.794	4198
687.816	4016
687.839	3730
687.885	3492
687.931	2832
687.937	2860
687.976	3044
688.022	2875
688.058	3010
688.067	3077
688.113	2777
688.158	2762
688.179	2868
688.204	3015
688.249	3263
688.295	3414
688.300	3407
688.340	3428
688.386	3993
688.421	3756
688.431	3676
688.477	3823
688.522	3369
688.542	3654
688.567	4116
688.613	3959
688.658	4470
688.663	4477
688.703	4309
688.749	4558
688.784	4083
688.794	3944
688.839	4086
688.884	3852
688.905	3759
688.930	3732
688.975	3957
689.020	4034
689.026	3933
689.065	3197
689.110	3444
689.146	3224
689.155	3216
689.201	3838
689.246	3912
689.267	3856
689.291	3820
689.336	4328
689.381	4399
689.388	4339
689.426	3909
689.471	4757
689.509	4173
689.516	4079
689.561	3734
689.606	3628
689.630	3770
689.651	3897
689.696	3838
689.741	4156
689.750	4098
689.785	4112
689.830	4731
689.871	4661
689.875	4618
689.920	4396
689.965	4152
689.992	4120
690.010	4265
690.054	4180
690.099	4504
690.112	4469
690.144	4214
690.189	4340
690.233	3583
690.233	3588
690.278	4527
690.323	4301
690.354	4373
690.367	4352
690.412	4449
690.457	4568
690.474	4573
690.501	4529
690.546	4622
690.590	4319
690.595	4282
690.635	4024
690.680	4070
690.716	4029
690.724	4063
690.769	4221
690.813	4318
690.836	4140
690.857	4040
690.902	4248
690.946	4590
690.957	4585
690.991	4548
691.035	4117
691.077	4729
691.080	4761
691.124	4529
691.168	4645
691.198	4222
691.213	4088
691.257	4342
691.301	4180
691.318	4310
691.346	4623
691.390	4651
691.434	4918
691.439	4909
691.478	4830
691.522	5447
691.559	5301
691.567	5270
691.611	5380
691.655	4883
691.680	4959
691.699	5094
691.743	5115
691.787	5207
691.800	5146
691.831	4938
691.875	5181
691.919	4990
691.921	4972
691.964	4626
692.008	4697
692.041	4637
692.052	4736
692.096	4874
692.139	5004
692.162	5091
692.183	5086
692.227	5136
692.271	5257
692.282	5155
692.315	4891
692.359	5048
692.402	5026
692.403	5039
692.447	5277
692.490	4956
692.523	5027
692.534	5097
692.578	5435
692.622	5185
692.643	5372
692.666	5539
692.709	5362
692.753	5440
692.763	5447
692.797	5493
692.840	5400
692.884	5249
692.884	5262
692.928	5301
692.971	5381
693.004	5212
693.015	5161
693.059	5329
693.102	5436
693.124	5396
693.146	5394
693.189	5434
693.233	5055
693.245	5106
693.276	5364
693.320	5532
693.363	5366
693.365	5353
693.407	5454
693.450	5721
693.485	5698
693.493	5645
693.537	5525
693.580	5235
693.605	5238
693.624	5336
693.667	5187
693.710	5443
693.725	5237
693.753	4953
693.797	5127
693.840	5078
693.845	5094
693.883	5177
693.926	4719
693.966	4592
693.970	4637
694.013	5173
694.056	5575
694.086	5763
694.099	5662
694.142	5274
694.185	4577
694.206	4607
694.229	5134
694.272	5505
694.315	5991
694.326	6067
694.358	5990
694.401	6287
694.444	6223
694.446	6202
694.487	5969
694.530	5616
694.566	5746
694.573	5850
694.616	5770
694.659	6414
694.686	6360
694.702	6302
694.745	6727
694.787	6590
694.806	6579
694.830	6460
694.873	6444
694.916	6133
694.926	6034
694.959	5982
695.002	6260
695.044	6083
695.046	6077
695.087	6824
695.130	7179
695.166	7678
695.172	7718
695.215	7534
695.258	7708
695.286	7728
695.301	7783
695.343	8050
695.386	8041
695.406	8020
695.428	8294
695.471	8821
695.514	9590
695.526	9714
695.556	10369
695.599	11276
695.641	12227
695.646	12294
695.684	11374
695.726	10475
695.766	9346
695.769	9347
695.811	9132
695.854	9087
695.886	8824
695.896	8909
695.938	9340
695.981	9574
696.005	9839
696.023	10166
696.065	10584
696.108	11269
696.125	11457
696.150	11505
696.192	11728
696.235	11681
696.245	11682
696.277	11759
696.319	11748
696.361	11759
696.365	11730
696.404	11646
696.446	11564
696.485	11295
696.488	11334
696.530	11496
696.572	11790
696.604	11900
696.614	11884
696.656	11706
696.698	11604
696.724	11386
696.740	11423
696.783	11593
696.825	11776
696.844	11811
696.867	11937
696.909	12054
696.951	12187
696.964	12221
696.992	12444
697.034	12594
697.076	12845
697.083	12853
697.118	13096
697.160	13350
697.202	13463
697.203	13429
697.244	13261
697.286	13270
697.323	12953
697.327	12953
697.369	12955
697.411	12634
697.442	12480
697.453	12651
697.494	13184
697.536	13701
697.562	14003
697.578	13984
697.620	13794
697.661	13642
697.682	13526
697.703	13720
697.744	13966
697.786	14384
697.801	14425
697.828	14406
697.869	14367
697.911	14381
697.921	14342
697.952	14056
697.994	13622
698.035	13147
698.040	13051
698.077	13197
698.118	13388
698.160	13572
698.160	13535
698.201	14308
698.243	15053
698.279	15678
698.284	15755
698.325	16065
698.367	16381
698.399	16591
698.408	16689
698.449	16924
698.491	17150
698.518	17259
698.532	17263
698.573	17139
698.614	17027
698.638	16896
698.656	16961
698.697	17016
698.738	17104
698.757	17086
698.779	17070
698.820	16952
698.862	16845
698.877	16758
698.903	16758
698.944	16688
698.985	16617
698.996	16556
699.026	16631
699.067	16670
699.116	16675
699.235	17367
699.354	16489
699.474	15056
699.593	14708
699.713	16672
699.832	15463
699.951	16081
700.070	15819
700.190	15249
700.309	14008
700.428	14204
700.547	12770
700.667	13734
700.786	13685
700.905	13582
701.024	13773
701.143	12748
701.262	14267
701.381	14153
701.500	13831
701.619	13687
701.738	13321
701.857	15020
701.976	13194
702.095	13964
702.214	14989
702.333	13782
702.452	14835
702.571	14204
702.690	14403
702.809	14585
702.928	12839
703.047	12676
703.165	13141
703.284	13105
703.403	13101
703.522	12655
703.640	12091
703.759	11670
703.878	11719
703.997	12005
704.115	12781
704.234	12583
704.353	12166
704.471	12798
704.590	10705
704.708	11004
704.827	11269
704.946	11811
705.064	10955
705.183	11216
705.301	11783
705.420	11433
705.538	9811
705.656	9802
705.775	9974
705.893	10609
706.012	10685
706.130	10015
706.249	10580
706.367	10312
706.485	10012
706.604	9559
706.722	9177
706.840	10663
706.958	12385
707.077	9012
707.195	9892
707.313	9901
707.431	8947
707.549	8775
707.668	8655
707.786	10456
707.904	9240
708.022	8559
708.140	8425
708.258	8814
708.376	9821
708.494	8601
708.612	9363
708.730	9604
708.848	8847
708.966	8952
709.084	9017
709.202	8866
709.320	8647
709.438	7870
709.556	8816
709.674	8468
709.791	7593
709.909	6915
710.027	7569
710.145	7534
710.263	7864
710.380	7534
710.498	7019
710.616	7813
710.733	6589
710.851	7581
710.969	6402
711.086	6617
711.204	7117
711.322	7406
711.439	6602
711.557	6416
711.674	6873
711.792	6780
711.909	7191
712.027	6262
712.144	6634
712.262	6972
712.379	7103
712.497	6632
712.614	6625
712.732	7124
712.849	6573
712.966	7102
713.084	7477
713.201	5714
713.318	6673
713.436	7559
713.553	6059
713.670	7199
713.787	6576
713.905	7075
714.022	7095
714.139	7822
714.256	10651
714.373	14515
714.490	29199
714.608	84250
714.725	335964
714.842	280798
714.959	26901
715.076	11611
715.193	9813
715.310	8724
715.427	6143
715.544	7480
715.661	6685
715.778	6504
715.895	6401
716.011	7453
716.128	5721
716.245	5973
716.362	5567
716.479	4705
716.596	6130
716.713	4759
716.829	5646
716.946	4921
717.063	4533
717.180	5586
717.296	5323
717.413	5064
717.530	4279
717.646	5332
717.763	4943
717.880	5412
717.996	4090
718.113	4810
718.229	4441
718.346	5164
718.462	3495
718.579	4833
718.695	4517
718.812	4539
718.928	3372
719.045	4459
719.161	4445
719.277	6109
719.394	4937
719.510	5404
719.626	5642
719.743	8355
719.859	12364
719.975	29450
720.092	124725
720.208	241716
720.324	26095
720.440	7946
720.557	5632
720.673	5960
720.789	4529
720.905	4259
721.021	4893
721.137	4155
721.253	4013
721.369	3951
721.486	4107
721.602	3297
721.718	3556
721.834	3942
721.950	3976
722.066	3638
722.181	3583
722.297	4385
722.413	3774
722.529	3875
722.645	3714
722.761	4293
722.877	3123
722.993	4078
723.108	6030
723.224	5436
723.340	2903
723.456	4504
723.571	3319
723.687	2985
723.803	3066
723.918	3933
724.034	3222
724.150	3433
724.265	3239
724.381	3890
724.497	2475
724.612	4335
724.728	2263
724.843	2640
724.959	2782
725.074	3349
725.190	3415
725.305	3620
725.421	2908
725.536	3309
725.651	3525
725.767	3750
725.882	2975
725.997	2745
726.113	3279
726.228	2985
726.343	3564
726.459	2807
726.574	3193
726.689	3290
726.804	2946
726.920	3435
727.035	3472
727.150	3221
727.265	2983
727.380	3830
727.495	2401
727.610	3105
727.725	3027
727.841	3123
727.956	3143
728.071	3423
728.186	2511
728.301	2641
728.416	3090
728.531	3333
728.645	2771
728.760	2593
728.875	2765
728.990	3547
729.105	2190
729.220	3001
729.335	2881
729.449	3509
729.564	2342
729.679	2462
729.794	3394
729.908	3737
730.023	2856
730.138	3395
730.253	2759
730.367	3011
730.482	3304
730.596	3273
730.711	4198
730.826	7107
730.940	5599
731.055	3659
731.169	4134
731.284	4250
731.398	4546
731.513	4485
731.627	4633
731.742	7573
731.856	8916
731.970	8930
732.085	10533
732.199	15910
732.313	28185
732.428	81232
732.542	237742
732.656	121592
732.771	21682
732.885	12902
732.999	11913
733.113	12619
733.227	12983
733.342	11898
733.456	10618
733.570	11060
733.684	10945
733.798	10254
733.912	10357
734.026	9816
734.140	10217
734.254	9990
734.368	10377
734.482	9636
734.596	9080
734.710	9391
734.824	9425
734.938	9232
735.052	9260
735.166	9630
735.280	9148
735.393	8805
735.507	9291
735.621	8198
735.735	8509
735.849	9986
735.962	8541
736.076	8408
736.190	8459
736.303	8553
736.417	8665
736.531	8800
736.644	8557
736.758	7818
736.872	7869
736.985	7986
737.099	7336
737.212	7207
737.326	6867
737.439	8345
737.553	6979
737.666	7612
737.780	6672
737.893	8200
738.007	7383
738.120	7753
738.233	7142
738.347	7564
738.460	6859
738.573	7646
738.687	6481
738.800	7161
738.913	7515
739.026	7412
739.140	6030
739.253	6310
739.366	7153
739.479	6684
739.592	6282
739.705	5999
739.818	7261
739.932	5746
740.045	5620
740.158	6670
740.271	5705
740.384	6812
740.497	5725
740.610	7252
740.723	5600
740.836	6256
740.949	5940
741.062	7649
741.174	5791
741.287	6395
741.400	6389
741.513	5000
741.626	5495
741.739	5484
741.851	5397
741.964	6485
742.077	4792
742.189	5695
742.302	5959
742.415	5997
742.527	5311
742.640	5658
742.753	4737
742.865	5123
742.978	4443
743.090	5096
743.203	5666
743.316	5224
743.428	5230
743.541	5758
743.653	5015
743.766	5468
743.878	5596
743.990	4544
744.103	6484
744.215	6184
744.327	3699
744.440	6779
744.552	5458
744.664	5171
744.777	5706
744.889	4104
745.001	4820
745.113	5112
745.226	4482
745.338	5583
745.450	5133
745.562	4902
745.674	3755
745.786	4504
745.898	4214
746.010	4137
746.122	4559
746.234	4607
746.347	4512
746.459	4090
746.570	3796
746.682	6067
746.794	6761
746.906	3908
747.018	4046
747.130	5139
747.242	3695
747.354	4247
747.466	4365
747.577	3413
747.689	3978
747.801	4272
747.913	3349
748.024	3363
748.136	3412
748.248	3602
748.359	3540
748.471	3789
748.583	2801
748.694	2932
748.806	4345
748.918	3668
749.029	4071
749.141	4854
749.252	4623
749.364	3311
749.475	2821
749.587	3227
749.698	3655
749.809	2758
749.921	3162
750.032	2817
750.144	2675
750.255	2766
750.366	3118
750.478	4170
750.589	3408
750.700	2244
750.811	3939
750.923	2918
751.034	3249
751.145	4379
751.256	3348
751.367	3804
751.479	3075
751.590	2742
751.701	2769
751.812	3255
751.923	2345
752.034	3969
752.145	3264
752.256	3130
752.367	3265
752.478	2907
752.589	4029
752.700	3461
752.811	2461
752.922	3090
753.032	2946
753.143	3201
753.254	2541
753.365	3491
753.476	3435
753.586	3547
753.697	2752
753.808	3326
753.919	2474
754.029	2005
754.140	2271
754.251	2931
754.361	3033
754.472	4141
754.582	2755
754.693	2510
754.804	2922
754.914	2364
755.025	1587
755.135	2583
755.246	3048
755.356	2420
755.466	2681
755.577	2015
755.687	2497
755.798	2674
755.908	2224
756.018	2577
756.129	3045
756.239	2704
756.349	2575
756.460	2900
756.570	2747
756.680	1934
756.790	2916
756.900	3151
757.011	2784
757.121	1954
757.231	1387
757.341	2672
757.451	1579
757.561	2088
757.671	2484
757.781	1804
757.891	2414
758.001	2752
758.111	2215
758.221	2632
758.331	2469
758.441	2573
758.551	1647
758.661	3381
758.771	2712
758.880	2260
758.990	2449
759.100	2440
759.210	2584
759.320	2777
759.429	2576
759.539	3369
759.649	3534
759.758	4327
759.868	4059
759.978	3316
760.087	4142
760.197	4140
760.307	3702
760.416	3701
760.526	2521
760.635	3231
760.745	2907
760.854	4215
760.964	5227
761.073	4441
761.182	4001
761.292	3548
761.401	3008
761.511	2775
761.620	1916
761.729	2499
761.839	2682
761.948	2036
762.057	1359
762.166	1674
762.276	840
762.385	3575
762.494	1559
762.603	1990
762.712	2222
762.822	1918
762.931	1641
763.040	1220
763.149	1938
763.258	2189
763.367	1732
763.476	1477
763.585	996
763.694	1922
763.803	1935
763.912	1537
764.021	1370
764.130	1608
764.238	1485
764.347	1839
764.456	2040
764.565	2221
764.674	1208
764.783	1739
764.891	611
765.000	1871
765.109	1845
765.217	1014
765.326	1353
765.435	1785
765.543	1894
765.652	1847
765.761	1584
765.869	2334
765.978	1789
766.086	2853
766.195	3258
766.303	9436
766.412	36502
766.520	26648
766.629	2932
766.737	2498
766.846	1442
766.954	1477
767.062	2507
767.171	1396
767.279	2226
767.387	1198
767.496	1814
767.604	994
767.712	1214
767.820	925
767.928	1800
768.037	991
768.145	1461
768.253	2021
768.361	486
768.469	2116
768.577	1726
768.685	2648
768.793	1941
768.901	1355
769.009	1534
769.117	1719
769.225	624
769.333	1752
769.441	1937
769.549	2555
769.657	3749
769.765	11630
769.873	30318
769.981	6361
770.088	2216
770.196	2524
770.304	2002
770.412	2214
770.519	2746
770.627	2496
770.735	2693
770.842	2430
770.950	2777
771.058	3339
771.165	3409
771.273	3902
771.380	3774
771.488	5977
771.595	7347
771.703	6591
771.810	5064
771.918	6012
772.025	7469
772.133	8246
772.240	7467
772.348	9381
772.455	8354
772.562	7593
772.670	6283
772.777	8911
772.884	7266
772.991	7267
773.099	7843
773.206	6969
773.313	7573
773.420	7763
773.528	6819
773.635	7252
773.742	7771
773.849	7957
773.956	6761
774.063	6982
774.170	6939
774.277	7580
774.384	5756
774.491	5811
774.598	7189
774.705	6519
774.812	6518
774.919	6591
775.026	6728
775.133	6120
775.239	5895
775.346	5545
775.453	5666
775.560	6310
775.667	6028
775.773	6087
775.880	6546
775.987	6028
776.093	7188
776.200	6179
776.307	4439
776.413	6340
776.520	6130
776.627	5390
776.733	4174
776.840	5017
776.946	8077
777.053	8630
777.159	9765
777.266	6089
777.372	9913
777.478	8759
777.585	6226
777.691	5500
777.798	5996
777.904	5338
778.010	4267
778.117	5234
778.223	4804
778.329	5609
778.435	4113
778.542	4912
778.648	4561
778.754	3393
778.860	4427
778.966	5740
779.072	4532
779.178	4520
779.284	4327
779.391	4541
779.497	3920
779.603	5613
779.708	2637
779.815	4115
779.920	4929
780.026	4330
780.132	3557
780.238	3555
780.344	3521
780.450	5697
780.556	3270
780.661	3577
780.767	4869
780.873	3529
780.979	4326
781.085	4345
781.190	3189
781.296	3636
781.402	3793
781.507	3508
781.613	2661
781.719	3502
781.824	4184
781.930	3277
782.035	4482
782.141	4228
782.246	2754
782.352	3340
782.457	3372
782.563	3437
782.668	3893
782.773	3329
782.879	2665
782.984	3741
783.090	2914
783.195	4130
783.300	3773
783.405	3171
783.511	2552
783.616	3379
783.721	3206
783.826	2168
783.932	2745
784.037	2706
784.142	3254
784.247	2635
784.352	3512
784.457	2503
784.562	3367
784.667	3957
784.772	2198
784.877	1534
784.982	3581
785.087	3212
785.192	1982
785.297	2277
785.402	3045
785.507	2704
785.611	2976
785.716	2232
785.821	3488
785.926	2535
786.031	2445
786.135	2151
786.240	2766
786.345	1299
786.450	2028
786.554	2589
786.659	1788
786.763	2060
786.868	2544
786.973	3628
787.077	2589
787.182	1662
787.286	2910
787.391	2967
787.495	1898
787.600	2561
787.704	1743
787.809	3159
787.913	1645
788.017	2662
788.122	2654
788.226	1964
788.330	1005
788.435	2216
788.539	2427
788.643	1743
788.747	1379
788.852	2378
788.956	1815
789.060	2739
789.164	2049
789.268	1373
789.372	2721
789.476	2633
789.580	834
789.684	1007
789.788	2424
789.892	2246
789.996	2390
790.100	1768
790.204	1598
790.308	2178
790.412	1311
790.516	1668
790.620	1107
790.724	2423
790.828	1037
790.931	553
791.035	2395
791.139	1574
791.242	954
791.346	3131
791.450	1333
791.554	805
791.657	554
791.761	2575
791.864	2159
791.968	1767
792.072	1551
792.175	1839
792.279	1203
792.382	1797
792.486	674
792.589	1711
792.693	1705
792.796	1749
792.899	1559
793.003	1995
793.106	-163
793.209	819
793.313	1986
793.416	38
793.519	2611
793.623	3041
793.726	2061
793.829	1422
793.932	895
794.035	1069
794.138	1836
794.242	2640
794.345	752
794.448	899
794.551	104
794.654	2695
794.757	1879
794.860	1361
794.963	1964
795.066	1324
795.169	1616
795.272	689
795.375	3008
795.477	-333
795.580	1077
795.683	920
795.786	1790
795.889	482
795.991	1403
796.094	2010
796.197	-82
796.300	2637
796.402	1768
796.505	414
796.608	459
796.710	1776
796.813	1194
796.915	1634
797.018	754
797.120	1712
797.223	-221
797.326	2718
797.428	423
797.530	1394
797.633	1098
797.735	2456
797.838	1236
797.940	2117
798.042	761
798.145	1020
798.247	1827
798.349	-297
798.452	1820
798.554	2089
798.656	248
798.758	2009
798.860	1272
798.962	491
799.065	702
799.167	-638
799.269	2158
799.371	2171
799.473	1543
799.575	1927
799.677	577
799.779	2378
799.881	-904
799.983	1526
800.085	1542
800.187	1724
800.289	511
800.390	1401
800.492	1516
800.594	2241
800.696	464
800.798	1179
800.899	645
801.001	890
801.103	1167
801.205	1162
801.306	713
801.408	255
801.509	1111
801.611	1482
801.713	1063
801.814	624
801.916	66
802.017	1210
802.119	-101
802.220	2040
802.322	-184
802.423	2591
802.525	-707
802.626	792
802.727	784
802.829	867
802.930	-1631
803.031	1078
803.133	324
803.234	1051
803.335	296
803.436	630
803.538	961
803.639	-143
803.740	1069
803.841	-26
803.942	1454
804.043	1976
804.144	358
804.245	842
804.346	-227
804.447	551
804.548	276
804.649	1161
804.750	433
804.851	177
804.952	441
805.053	1167
805.154	217
805.255	1587
805.355	571
805.456	641
805.557	-164
805.658	-1113
805.758	1146
805.859	198
805.960	677
806.061	760
806.161	-359
806.262	758
806.362	0
806.463	-21
806.564	1193
806.664	1058
806.765	174
806.865	771
806.966	-262
807.066	-18
807.166	1052
807.267	1581
807.367	-8
807.468	917
807.568	-980
807.668	893
807.769	1709
807.869	-123
807.969	729
808.069	471
808.170	1112
808.270	-17
808.370	805
808.470	358
808.570	-60
808.670	-9
808.770	525
808.870	-53
808.970	511
809.070	-251
809.170	-510
809.271	1051
809.370	593
809.470	626
809.570	-40
809.670	168
809.770	879
809.870	1674
809.970	206
810.070	1016
810.169	-500
810.269	-593
810.369	1265
810.469	445
810.568	570
810.668	-561
810.768	27
810.867	589
810.967	-267
811.066	480
811.166	-2
811.265	1513
811.365	-527
811.464	83
811.564	154
811.663	445
811.763	13
811.862	1146
811.962	627
812.061	-729
812.160	-38
812.260	446
812.359	206
812.458	-500
812.557	381
812.657	194
812.756	439
812.855	533
812.954	-258
813.053	492
813.153	268
813.252	306
813.351	983
813.450	369
813.549	-11
813.648	832
813.747	449
813.846	557
813.945	696
814.044	1245
814.143	666
814.242	947
814.341	206
814.439	1128
814.538	247
814.637	1049
814.736	691
814.835	1441
814.933	273
815.032	2459
815.131	1724
815.229	5848
815.328	7581
815.427	5189
815.525	4457
815.624	4340
815.722	3963
815.821	4880
815.919	4406
816.018	4219
816.116	3802
816.215	4293
816.313	4311
816.412	6584
816.510	6313
816.609	7309
816.707	7636
816.805	5966
816.904	6161
817.002	6463
817.100	7182
817.198	7459
817.296	5187
817.395	5628
817.493	6144
817.591	4422
817.689	4865
817.787	5376
817.885	4604
817.983	5200
818.081	5692
818.179	6135
818.277	9142
818.375	7652
818.473	4916
818.571	4689
818.669	5552
818.767	5985
818.865	4072
818.963	4256
819.061	4382
819.158	4794
819.256	6952
819.354	6469
819.452	10956
819.549	6955
819.647	6279
819.745	5106
819.842	4377
819.940	5643
820.038	4472
820.135	4336
820.233	5894
820.330	4984
820.428	3270
820.525	4655
820.623	3863
820.720	3144
820.818	4104
820.915	4880
821.012	4381
821.110	3145
821.207	4337
821.304	3747
821.402	4210
821.499	4676
821.596	4532
821.693	4152
821.791	3558
821.888	4289
821.985	4996
822.082	2987
822.179	4820
822.276	5012
822.373	3213
822.470	3671
822.567	4032
822.664	3366
822.761	4545
822.858	3883
822.955	3451
823.052	2706
823.149	3441
823.246	3524
823.343	2929
823.440	3673
823.536	3497
823.633	3380
823.730	3011
823.827	3969
823.923	3794
824.020	4390
824.117	3980
824.213	3808
824.310	3701
824.407	2655
824.503	3534
824.600	3098
824.696	2138
824.793	4592
824.889	4140
824.986	2860
825.082	2165
825.179	3102
825.275	3720
825.371	3534
825.468	1827
825.564	1127
825.660	3817
825.757	4896
825.853	3592
825.949	2519
826.045	2674
826.142	2730
826.238	3465
826.334	3143
826.430	2141
826.526	2140
826.622	1778
826.718	3480
826.814	4015
826.910	3483
827.006	1472
827.102	2019
827.198	2907
827.294	3133
827.390	3526
827.486	2430
827.582	351
827.678	1322
827.774	4059
827.869	1448
827.965	3561
828.061	1669
828.157	4080
828.252	2449
828.348	2348
828.444	2340
828.539	1517
828.635	2440
828.731	2509
828.826	2252
828.922	2787
829.017	3652
829.113	2980
829.208	1955
829.304	1528
829.399	4380
829.495	2093
829.590	2672
829.685	1014
829.781	2787
829.876	1813
829.971	76
830.066	775
830.162	2051
830.257	2642
830.352	2173
830.447	1739
830.543	1347
830.638	1668
830.733	3561
830.828	1189
830.923	2604
831.018	1827
831.113	3066
831.208	782
831.303	1107
831.398	1900
831.493	2005
831.588	3350
831.683	1149
831.778	1386
831.873	1419
831.967	2975
832.062	2663
832.157	1392
832.252	2715
832.346	1166
832.441	2671
832.536	2058
832.631	2422
832.725	1245
832.820	1177
832.914	1070
833.009	871
833.104	740
833.198	1424
833.293	1898
833.387	1697
833.482	1688
833.576	530
833.670	2231
833.765	1208
833.859	1537
833.954	2374
834.048	1022
834.142	1696
834.237	561
834.331	1787
834.425	1309
834.519	422
834.613	1189
834.708	1173
834.802	986
834.896	966
834.990	1604
835.084	1323
835.178	715
835.272	1343
835.366	2291
835.460	3094
835.554	2064
835.648	893
835.742	232
835.836	1713
835.930	1459
836.024	1394
836.117	1798
836.211	1630
836.305	1219
836.399	346
836.493	-77
836.586	2052
836.680	1176
836.774	853
836.867	1174
836.961	862
837.055	-309
837.148	862
837.242	295
837.335	1806
837.429	668
837.522	1272
837.616	359
837.709	1741
837.803	432
837.896	2548
837.989	48
838.083	1385
838.176	703
838.269	-48
838.363	887
838.456	715
838.549	1747
838.642	842
838.735	1350
838.829	1543
838.922	258
839.015	861
839.108	-820
839.201	199
839.294	2299
839.387	1494
839.480	-80
839.573	1236
839.666	5
839.759	1288
839.852	416
839.945	1452
840.038	399
840.131	444
840.223	871
840.316	1875
840.409	494
840.502	1247
840.594	1361
840.687	-890
840.780	439
840.873	-245
840.965	444
841.058	1074
841.150	1455
841.243	-544
841.336	912
841.428	963
841.521	41
841.613	348
841.706	1205
841.798	429
841.890	892
841.983	-344
842.075	219
842.167	177
842.260	391
842.352	2023
842.444	634
842.537	539
842.629	958
842.721	43
842.813	294
842.905	985
842.997	1062
843.090	1166
843.182	930
843.274	-311
843.366	192
843.458	1261
843.550	2201
843.642	311
843.734	728
843.826	353
843.918	520
844.009	398
844.101	278
844.193	508
844.285	983
844.377	1433
844.469	1891
844.560	257
844.652	145
844.744	844
844.835	127
844.927	562
845.019	391
845.110	991
845.202	373
845.293	124
845.385	-536
845.476	554
845.568	1160
845.659	-286
845.751	899
845.842	505
845.934	-373
846.025	-923
846.116	383
846.208	893
846.299	373
846.390	450
846.482	489
846.573	555
846.664	1078
846.755	560
846.846	746
846.937	-642
847.029	-5
847.120	405
847.211	-931
847.302	2060
847.393	-215
847.484	584
847.575	-406
847.666	649
847.757	-1193
847.847	376
847.938	659
848.029	-53
848.120	548
848.211	-367
848.302	-154
848.392	866
848.483	442
848.574	219
848.664	1648
848.755	678
848.846	377
848.936	155
849.027	741
849.118	60
849.208	-313
849.299	1690
849.389	3446
849.480	4822
849.570	9622
849.661	19547
849.751	31137
849.841	8791
849.932	1114
850.022	357
850.112	370
850.203	1435
850.293	-551
850.383	123
850.474	-93
850.564	-64
850.654	-356
850.744	-123
850.834	-72
850.924	250
851.014	341
851.104	282
851.194	674
851.284	138
851.374	278
851.464	242
851.554	334
851.644	-136
851.734	707
851.824	530
851.914	-77
852.004	479
852.094	-483
852.183	-124
852.273	854
852.363	-432
852.452	638
852.542	346
852.632	-287
852.721	1089
852.811	-464
852.901	935
852.990	666
853.080	1191
853.169	576
853.259	810
853.348	732
853.438	1975
853.527	978
853.617	2097
853.706	5281
853.795	10433
853.885	23475
853.974	42811
854.063	79019
854.152	103714
854.242	35809
854.331	8636
854.420	3234
854.509	2125
854.598	1997
854.687	1134
854.777	1168
854.866	405
854.955	1017
855.044	478
855.133	253
855.222	1007
855.311	-267
855.400	70
855.488	206
855.577	-248
855.666	134
855.755	14
855.844	-294
855.933	-271
856.021	866
856.110	920
856.199	-816
856.288	-606
856.376	-772
856.465	79
856.554	627
856.642	-301
856.731	363
856.819	817
856.908	969
856.996	-285
857.085	-572
857.173	193
857.262	-437
857.350	162
857.438	-177
857.527	160
857.615	110
857.703	297
857.792	-122
857.880	310
857.968	-188
858.056	-157
858.145	-419
858.233	111
858.321	-336
858.409	710
858.497	275
858.585	-556
858.673	558
858.761	-465
858.849	-958
858.937	133
859.025	-741
859.113	329
859.201	-38
859.289	-25
859.377	-520
859.465	162
859.552	-534
859.640	-269
859.728	336
859.816	145
859.903	555
859.991	-266
860.079	-585
860.166	486
860.254	381
860.342	622
860.429	2
860.517	211
860.604	388
860.692	-499
860.779	-552
860.867	26
860.954	-130
861.042	540
861.129	351
861.216	149
861.304	-429
861.391	439
861.478	-151
861.565	984
861.653	382
861.740	-226
861.827	-636
861.914	43
862.001	-618
862.089	378
862.176	139
862.263	-288
862.350	306
862.437	631
862.524	272
862.611	362
862.698	687
862.785	1237
862.871	1133
862.958	281
863.045	-201
863.132	566
863.219	9
863.306	3
863.392	234
863.479	590
863.566	77
863.652	968
863.739	282
863.826	468
863.912	612
863.999	357
864.086	950
864.172	493
864.259	986
864.345	1629
864.432	918
864.518	1309
864.604	998
864.691	1284
864.777	899
864.863	2567
864.950	3210
865.036	5446
865.122	8252
865.209	9367
865.295	7456
865.381	7154
865.467	6546
865.553	7305
865.639	7254
865.726	10734
865.812	16646
865.898	28006
865.984	38112
866.070	68378
866.156	63853
866.242	21590
866.328	9151
866.414	7338
866.499	6427
866.585	6065
866.671	6184
866.757	6314
866.843	5304
866.928	6062
867.014	5575
867.100	6024
867.186	5520
867.271	4987
867.357	5447
867.442	5242
867.528	5790
867.614	5257
867.699	5439
867.785	6693
867.870	5058
867.956	5665
868.041	5367
868.127	4853
868.212	5455
868.297	5292
868.383	4681
868.468	5933
868.553	4628
868.639	4394
868.724	4769
868.809	5057
868.894	5023
868.979	5029
869.065	4312
869.150	3891
869.235	4155
869.320	4953
869.405	4219
869.490	4625
869.575	3983
869.660	3074
869.745	4999
869.830	5291
869.915	4304
870.000	4058
870.085	3256
870.169	6414
870.254	5348
870.339	3179
870.424	3128
870.509	3820
870.593	5114
870.678	4924
870.763	3443
870.847	3417
870.932	4391
871.016	4383
871.101	2826
871.186	4462
871.270	6006
871.355	2871
871.439	3284
871.523	5490
871.608	2052
871.692	3305
871.777	5310
871.861	4536
871.945	3779
872.030	4723
872.114	3608
872.198	2902
872.282	2808
872.367	2693
872.451	3921
872.535	3595
872.619	3693
872.703	3464
872.787	3583
872.871	3873
872.955	2541
873.039	2306
873.123	4059
873.207	3808
873.291	2100
873.375	3103
873.459	3863
873.543	3856
873.627	3234
873.711	2457
873.794	3674
873.878	3714
873.962	2752
874.045	3068
874.129	2741
874.137	2757
874.213	2916
874.245	2885
874.296	2834
874.352	2871
874.380	2892
874.460	2903
874.464	2902
874.547	2674
874.568	2907
874.631	3648
874.676	3089
874.714	2574
874.784	3852
874.798	4107
874.881	3328
874.892	3159
874.965	2120
874.999	2634
875.048	3256
875.107	2808
875.131	2623
875.215	1936
875.215	1936
875.298	2127
875.323	2270
875.381	2556
875.430	3689
875.465	4487
875.538	2785
875.548	2523
875.631	2439
875.646	2316
875.714	1935
875.753	1888
875.798	1917
875.861	2788
875.881	2972
875.964	2734
875.968	2702
876.047	2380
876.076	2409
876.130	2555
876.183	3181
876.213	3433
876.291	3830
876.296	3860
876.379	2586
876.398	2575
876.462	2416
876.506	1989
876.545	1723
876.613	2465
876.628	2645
876.711	2931
876.721	3055
876.794	3952
876.828	3768
876.877	3306
876.935	2409
876.960	2151
877.043	2420
877.043	2422
877.125	3136
877.150	3319
877.208	3513
877.258	2994
877.291	2680
877.365	2124
877.374	2066
877.456	2637
877.472	2585
877.539	2366
877.579	2661
877.622	3053
877.687	3206
877.704	3262
877.787	3177
877.794	3201
877.869	3210
877.901	2992
877.952	2578
878.008	2116
878.034	2016
878.115	2431
878.117	2442
878.199	2625
878.222	2900
878.282	3574
878.329	3529
878.364	3452
878.437	3964
878.447	3987
878.529	2433
878.544	2393
878.611	2484
878.651	2727
878.694	3215
878.758	3040
878.776	2909
878.858	3373
878.865	3317
878.941	2558
878.972	2461
879.023	2391
879.078	2423
879.105	2601
879.185	3658
879.187	3673
879.269	2807
879.292	2961
879.351	3260
879.399	2642
879.433	2237
879.506	3195
879.516	3361
879.598	2933
879.613	2947
879.680	2787
879.720	3097
879.762	3485
879.827	2968
879.844	2754
879.926	2536
879.933	2532
880.007	3244
880.040	3160
880.089	2583
880.147	2853
880.171	3164
880.253	4312
880.254	4309
880.335	3785
880.360	3964
880.417	5597
880.467	7130
880.499	7539
880.574	7413
880.580	7334
880.662	5372
880.680	4892
880.744	3016
880.787	2618
880.825	2901
880.893	2974
880.907	2895
880.989	2305
881.000	2304
881.070	3160
881.106	3420
881.152	3137
881.213	2593
881.233	2570
881.315	2676
881.319	2688
881.396	3189
881.426	3240
881.478	3308
881.532	3541
881.559	3599
881.639	3535
881.641	3518
881.722	2874
881.745	2671
881.803	3255
881.852	3218
881.885	2987
881.958	3275
881.966	3290
882.047	3193
882.064	3119
882.129	2935
882.171	2642
882.210	2125
882.277	2104
882.291	2337
882.372	2683
882.383	2894
882.454	4083
882.489	4044
882.535	3861
882.596	4469
882.616	4613
882.697	3720
882.702	3702
882.778	3316
882.808	3236
882.859	2917
882.914	2444
882.940	2590
883.020	3104
883.021	3115
883.102	3677
883.127	3836
883.183	4292
883.233	4451
883.264	3827
883.339	2235
883.345	2178
883.426	1756
883.445	1753
883.507	2435
883.551	2680
883.587	3104
883.657	3881
883.668	3917
883.749	4194
883.763	4100
883.830	2637
883.869	2120
883.910	2155
883.975	2394
883.991	2571
884.072	3291
884.081	3330
884.152	4100
884.187	4524
884.233	4664
884.292	4622
884.314	4183
884.394	2299
884.398	2215
884.475	1800
884.504	1755
884.555	1969
884.610	1850
884.636	2163
884.716	3671
884.716	3690
884.797	4833
884.821	5199
884.877	5165
884.927	5024
884.958	4490
885.033	3222
885.038	3177
885.118	2099
885.139	1888
885.199	2069
885.244	2236
885.279	2894
885.350	4347
885.359	4476
885.439	5336
885.456	5439
885.520	4698
885.561	4274
885.600	3657
885.667	2764
885.680	2964
885.760	3899
885.773	4035
885.840	3151
885.878	2657
885.920	2726
885.984	3042
886.000	3184
886.080	3617
886.089	3656
886.160	3663
886.195	3536
886.240	3293
886.300	3193
886.320	3376
886.400	4029
886.406	4058
886.480	2934
886.511	2491
886.560	3016
886.616	3451
886.640	3236
886.720	2788
886.722	2766
886.800	2743
886.827	2748
886.879	2935
886.932	3052
886.959	3674
887.038	5687
887.039	5690
887.119	4567
887.143	4251
887.198	4098
887.248	3925
887.278	3651
887.354	2899
887.358	2937
887.437	3540
887.459	3743
887.517	3914
887.564	3856
887.596	3552
887.669	2920
887.676	2878
887.755	2297
887.774	2171
887.835	2510
887.880	2746
887.914	3155
887.985	3828
887.994	3901
888.073	4623
888.090	4729
888.153	5632
888.195	6273
888.232	5386
888.300	3665
888.311	3573
888.391	2879
888.405	2732
888.470	2970
888.510	3122
888.549	3104
888.615	3210
888.628	3459
888.708	4750
888.720	4937
888.787	4519
888.825	4257
888.866	3540
888.930	2420
888.945	2498
889.024	2960
889.035	3005
889.103	4053
889.140	4592
889.182	3954
889.245	3041
889.261	3268
889.340	4288
889.349	4396
889.419	3938
889.454	3695
889.498	3066
889.559	2186
889.577	2596
889.656	4380
889.664	4548
889.735	4661
889.768	4694
889.814	4478
889.873	4162
889.978	3512
890.083	3604
890.187	3850
890.292	4922
890.397	3778
890.501	3922
890.606	2128
890.710	3172
890.815	5441
890.919	3385
891.024	4049
891.128	3178
891.233	3249
891.337	4355
891.442	5305
891.546	3708
891.650	2818
891.755	3478
891.859	3837
891.963	4284
892.068	3876
892.172	3745
892.276	2923
892.380	3078
892.484	4360
892.589	5135
892.693	3584
892.797	2509
892.901	2422
893.005	2165
893.109	5281
893.213	4584
893.317	4101
893.421	2380
893.525	1642
893.629	2245
893.733	3983
893.837	3978
893.941	2895
894.045	2964
894.148	1471
894.252	2941
894.356	4124
894.460	5411
894.564	2555
894.667	3903
894.771	1947
894.875	1781
894.978	3334
895.082	3294
895.186	4309
895.289	3224
895.393	2184
895.496	4487
895.600	3248
895.703	2744
895.807	2816
895.910	2769
896.014	3261
896.117	2289
896.221	2980
896.324	3630
896.427	3167
896.531	1867
896.634	3456
896.737	2189
896.840	2878
896.944	3774
897.047	4232
897.150	2765
897.253	2139
897.356	1842
897.460	2490
897.563	2561
897.666	3948
897.769	4429
897.872	1312
897.975	2669
898.078	3265
898.181	2210
898.284	2595
898.387	3646
898.490	4653
898.593	2382
898.695	2212
898.798	2170
898.901	3286
899.004	3769
899.107	2589
899.209	2957
899.312	5223
899.415	2260
899.518	2731
899.620	1513
899.723	2535
899.826	3447
899.928	1884
900.031	2436
900.133	3891
900.236	2540
900.338	2264
900.441	2197
900.543	3128
900.646	2366
900.748	3327
900.851	4240
900.953	2726
901.055	2068
901.158	2726
901.260	1762
901.362	2237
901.465	1020
901.567	3316
901.669	4412
901.771	2594
901.873	2529
901.976	2045
902.078	2993
902.180	1915
902.282	1754
902.384	3052
902.486	3783
902.588	3476
902.690	1913
902.792	1962
902.894	2897
902.996	3598
903.098	2545
903.200	1984
903.302	2652
903.404	2436
903.505	1695
903.607	2389
903.709	4047
903.811	3958
903.913	2598
904.014	1326
904.116	2404
904.218	2339
904.319	3622
904.421	4434
904.523	4290
904.624	2575
904.726	2375
904.827	1512
904.929	1910
905.030	2699
905.132	3972
905.233	4607
905.335	1990
905.436	1703
905.537	1377
905.639	1871
905.740	2492
905.841	3721
905.943	2898
906.044	2213
906.145	2352
906.247	2203
906.348	1805
906.449	2893
906.550	2987
906.651	2184
906.752	2142
906.854	2615
906.955	2428
907.056	2488
907.157	3618
907.258	4788
907.359	2155
907.460	1249
907.561	1334
907.662	2927
907.762	2413
907.863	2481
907.964	2654
908.065	3654
908.166	1672
908.267	2799
908.367	2162
908.468	2363
908.569	2877
908.670	3289
908.770	1967
908.871	2719
908.971	3438
909.072	2824
909.173	2613
909.273	2392
909.374	3014
909.474	2992
909.575	2714
909.675	2085
909.776	2689
909.876	2366
909.977	2241
910.077	3025
910.177	3466
910.278	2383
910.378	2234
910.478	1551
910.579	2967
910.679	2859
910.779	1977
910.879	3537
910.980	2779
911.080	2646
911.180	1812
911.280	1837
911.380	2359
911.480	1846
911.580	2423
911.680	2997
911.780	1865
911.880	4033
911.980	1654
912.080	2276
912.180	2765
912.280	2550
912.380	2161
912.480	1414
912.580	1994
912.679	1347
912.779	2671
912.879	3409
912.979	2611
913.078	2560
913.178	1985
913.278	1631
913.377	1692
913.477	1396
913.577	3410
913.676	2988
913.776	3179
913.875	2580
913.975	3340
914.074	2660
914.174	3830
914.273	1331
914.373	3183
914.472	1624
914.572	1470
914.671	1971
914.770	2811
914.870	1720
914.969	2212
915.068	3225
915.167	3173
915.267	2133
915.366	2637
915.465	2508
915.564	2719
915.663	3013
915.763	3344
915.862	2590
915.961	3844
916.060	2180
916.159	2033
916.258	2607
916.357	2355
916.456	3323
916.555	3070
916.654	2676
916.752	4560
916.851	4272
916.950	3418
917.049	1976
917.148	2208
917.247	2488
917.345	2710
917.444	1933
917.543	2787
917.642	1895
917.740	2711
917.839	4388
917.937	4733
918.036	4239
918.135	3344
918.233	1748
918.332	2120
918.430	2889
918.529	3180
918.627	2274
918.726	3912
918.824	3579
918.923	2272
919.021	2308
919.119	2147
919.218	2654
919.316	2193
919.414	2626
919.512	4081
919.611	3891
919.709	3246
919.807	4101
919.905	4651
920.003	4721
920.102	4123
920.200	2868
920.298	5161
920.396	3921
920.494	4710
920.592	3841
920.690	4417
920.788	4654
920.886	4532
920.984	5199
921.082	4595
921.180	5776
921.277	4933
921.375	6418
921.473	8182
921.571	7593
921.669	7184
921.766	6012
921.864	7065
921.962	7214
922.060	6889
922.157	7703
922.255	7451
922.352	6575
922.450	7927
922.548	8434
922.645	10121
922.743	12054
922.840	17899
922.938	22156
923.035	18404
923.133	18884
923.230	19686
923.327	25002
923.425	23259
923.522	22821
923.619	21069
923.717	19512
923.814	18231
923.911	18394
924.008	19327
924.106	17734
924.203	18730
924.300	18798
924.397	18360
924.494	18546
924.591	17855
924.688	17003
924.786	17691
924.883	18271
924.979	17878
925.077	17595
925.173	16449
925.270	17355
925.367	16693
925.464	18124
925.561	18344
925.658	20189
925.755	16316
925.852	19309
925.948	17121
926.045	17557
926.142	17910
926.239	18929
926.335	14285
926.432	17393
926.529	18375
926.625	20406
926.722	15838
926.818	14771
926.915	17892
927.011	15648
927.108	15846
927.204	16880
927.301	14005
927.397	17027
927.494	19529
927.590	12247
927.687	13028
927.783	18290
927.879	17649
927.976	15561
928.072	13169
928.168	16525
928.264	16446
928.361	14262
928.457	17517
928.553	13979
928.649	14409
928.745	16131
928.841	12578
928.937	14242
929.033	15861
929.129	13818
929.225	16756
929.321	15212
929.417	12346
929.513	15949
929.609	13396
929.705	12142
929.801	16028
929.897	13021
929.993	13039
930.089	14695
930.184	12320
930.280	14290
930.376	17322
930.471	12145
930.567	10543
930.663	14067
930.758	11182
930.854	12978
930.950	12190
931.045	11037
931.141	11223
931.236	15978
931.332	13359
931.427	10859
931.523	15461
931.618	13633
931.714	9889
931.809	11132
931.905	14848
932.000	10207
932.095	8514
932.191	14447
932.286	15750
932.381	13229
932.476	9586
932.572	11427
932.667	10382
932.762	10603
932.857	11626
932.952	15005
933.047	11318
933.142	9377
933.237	12110
933.332	13968
933.427	14339
933.522	11656
933.617	9572
933.712	10754
933.807	13333
933.902	14841
933.997	14114
934.092	10280
934.187	10883
934.282	11813
934.376	11720
934.471	13041
934.566	10192
934.661	9877
934.755	12374
934.850	13379
934.945	10042
935.039	9651
935.134	7658
935.228	10421
935.323	15316
935.417	10052
935.512	6977
935.606	8622
935.701	10285
935.795	12763
935.890	10618
935.984	9359
936.079	6955
936.173	10877
936.267	8891
936.362	8387
936.456	9555
936.550	13962
936.644	10774
936.738	7695
936.833	7438
936.927	6493
937.021	7798
937.115	10209
937.209	10598
937.303	10187
937.397	7184
937.491	9438
937.585	10453
937.679	10208
937.773	6844
937.867	7198
937.961	6779
938.055	13024
938.149	10659
938.243	6837
938.337	6575
938.430	7524
938.524	11711
938.618	9235
938.712	7004
938.805	8086
938.899	9887
938.993	12667
939.086	8852
939.180	5549
939.274	7864
939.367	9495
939.461	11628
939.554	8372
939.648	6513
939.741	7884
939.835	8551
939.928	13159
940.022	10200
940.115	8054
940.208	9330
940.302	10478
940.395	12220
940.488	7451
940.582	8081
940.675	6512
940.768	5935
940.861	9713
940.954	10763
941.048	5107
941.141	5189
941.234	6338
941.327	7306
941.420	8809
941.513	9498
941.606	6956
941.699	6925
941.792	8830
941.885	8078
941.978	8664
942.071	8487
942.164	5209
942.257	5812
942.349	7374
942.442	8869
942.535	6367
942.628	5508
942.721	6810
942.813	6181
942.906	8484
942.999	6494
943.091	5196
943.184	7269
943.277	6953
943.369	6034
943.462	4354
943.554	6745
943.647	6702
943.739	8389
943.832	9892
943.924	3133
944.017	4087
944.109	4770
944.201	6579
944.294	6093
944.386	6831
944.478	6335
944.571	4783
944.663	5301
944.755	5981
944.847	7571
944.940	6566
945.032	4005
945.124	4951
945.216	6344
945.308	6565
945.400	6487
945.492	5701
945.584	7225
945.676	8316
945.768	7544
945.860	8195
945.952	8486
946.044	6570
946.136	5785
946.228	5926
946.320	5647
946.412	6589
946.503	7547
946.595	8476
946.687	4907
946.779	4872
946.870	4763
946.962	4831
947.054	5543
947.145	7004
947.237	5051
947.329	6522
947.420	6475
947.512	5493
947.603	3755
947.695	4723
947.786	3896
947.878	4954
947.969	6145
948.061	6980
948.152	5811
948.243	4564
948.335	3646
948.426	4726
948.517	4754
948.609	7269
948.700	5849
948.791	5535
948.882	2604
948.973	2642
949.065	4604
949.156	5813
949.247	4087
949.338	4747
949.429	2268
949.520	3586
949.611	4638
949.702	6470
949.793	4078
949.884	4883
949.975	3831
950.066	3152
950.157	4066
950.247	4639
950.338	3501
950.429	3533
950.520	4521
950.611	3359
950.701	4968
950.792	6697
950.883	6428
950.973	5389
951.064	5200
951.155	5787
951.245	5962
951.336	6241
951.427	6380
951.517	7651
951.608	5876
951.698	5132
951.788	2715
951.879	3233
951.969	3420
952.060	4026
952.150	4484
952.240	6478
952.331	4830
952.421	6411
952.511	3349
952.602	3148
952.692	2836
952.782	4080
952.872	3756
952.962	5087
953.052	3958
953.143	3679
953.233	3648
953.323	4611
953.413	5044
953.503	6299
953.593	3754
953.683	5034
953.773	2273
953.863	2681
953.953	2311
954.042	4377
954.132	4700
954.222	5402
954.312	3293
954.402	3471
954.492	3676
954.581	3946
954.671	4636
954.761	3663
954.850	4769
954.940	2131
955.030	2709
955.119	3649
955.209	2752
955.298	3901
955.388	5494
955.477	5605
955.567	2624
955.656	3808
955.746	4309
955.835	2269
955.925	3702
956.014	4726
956.103	6018
956.193	6859
956.282	5513
956.371	3471
956.461	4007
956.550	4727
956.639	3190
956.728	2873
956.817	3868
956.906	3321
956.995	6269
957.085	3988
957.174	3918
957.263	3620
957.352	3140
957.441	4901
957.530	3730
957.619	3176
957.708	3191
957.796	3639
957.885	2485
957.974	2597
958.063	3390
958.152	1673
958.241	2846
958.329	2869
958.418	3273
958.507	3236
958.596	5014
958.684	3438
958.773	3914
958.861	2131
958.950	1819
959.039	2884
959.127	3006
959.216	3697
959.304	3237
959.393	2827
959.481	3691
959.570	2470
959.658	1803
959.746	1427
959.835	2742
959.923	2630
960.011	2384
960.100	2994
960.188	4286
960.276	2525
960.365	3125
960.453	2836
960.541	1546
960.629	2973
960.717	2103
960.805	1533
960.893	1824
960.981	3626
961.069	6128
961.158	5546
961.245	6370
961.333	5491
961.421	3501
961.509	2813
961.597	4061
961.685	3122
961.773	3449
961.861	3831
961.949	4538
962.036	3430
962.124	3151
962.212	3165
962.299	2028
962.387	2392
962.475	2602
962.562	2856
962.650	4176
962.738	2459
962.825	1514
962.913	2183
963.000	2268
963.088	3488
963.175	2861
963.263	2583
963.350	3332
963.438	3319
963.525	1967
963.612	2855
963.700	1449
963.787	3442
963.874	2661
963.962	2813
964.049	2415
964.136	2671
964.223	2279
964.310	2733
964.398	2670
964.485	2238
964.572	3579
964.659	3173
964.746	1931
964.833	1881
964.920	1698
965.007	2738
965.094	2427
965.181	2721
965.268	3831
965.355	3154
965.441	3303
965.528	2145
965.615	4355
965.702	2969
965.789	2265
965.875	3754
965.962	3638
966.049	3026
966.136	3547
966.222	3744
966.309	3644
966.395	2969
966.482	4087
966.569	3325
966.655	3496
966.742	2912
966.828	1490
966.915	2201
967.001	2457
967.087	1195
967.174	2300
967.260	2841
967.347	2903
967.433	2288
967.519	3314
967.605	2570
967.692	2117
967.778	3459
967.864	2006
967.950	3107
968.036	2952
968.123	3218
968.209	2331
968.295	902
968.381	3116
968.467	2129
968.553	1178
968.639	3263
968.725	2058
968.811	3009
968.897	3346
968.983	2021
969.069	1916
969.154	3038
969.240	2417
969.326	1856
969.412	1704
969.497	1791
969.583	1576
969.669	3447
969.755	3259
969.840	2234
969.926	5018
970.012	6376
970.097	7427
970.183	5110
970.268	3523
970.354	3524
970.439	1569
970.525	4145
970.610	2458
970.696	3669
970.781	2158
970.866	977
970.952	2656
971.037	2642
971.122	2669
971.208	2858
971.293	2195
971.378	2148
971.463	3073
971.549	2843
971.634	1649
971.719	3028
971.804	2524
971.889	2359
971.974	1848
972.059	3082
972.144	2670
972.229	2573
972.314	2606
972.399	3648
972.484	1383
972.569	1980
972.654	2116
972.739	2539
972.824	2142
972.908	1578
972.993	1233
973.078	1406
973.163	2582
973.247	3085
973.332	1568
973.417	3592
973.501	1612
973.586	2667
973.671	2334
973.755	2406
973.840	2573
973.924	3666
974.009	4408
974.093	4727
974.178	4787
974.262	3214
974.346	2591
974.431	2902
974.515	1787
974.600	3154
974.684	3089
974.768	2074
974.852	3939
974.937	1836
975.021	2985
975.105	2508
975.189	2297
975.273	3076
975.358	1392
975.442	1487
975.526	3219
975.610	2164
975.694	1517
975.778	3260
975.862	1283
975.946	678
976.030	3824
976.114	2328
976.198	2091
976.281	1883
976.365	3084
976.449	2767
976.533	2902
976.617	1885
976.700	1680
976.784	2249
976.868	1424
976.951	2243
977.035	2192
977.119	2943
977.202	1507
977.286	2060
977.369	3980
977.453	6308
977.536	5441
977.620	4017
977.703	4380
977.787	2401
977.870	3687
977.953	3709
978.037	1686
978.120	3441
978.203	2137
978.287	2650
978.370	3476
978.453	2081
978.536	2348
978.620	4425
978.703	2874
978.786	2979
978.869	2310
978.952	1573
979.035	3961
979.118	3674
979.201	2222
979.284	2389
979.367	2554
979.450	3393
979.533	2387
979.616	2000
979.699	2345
979.782	2899
979.865	2050
979.948	2234
980.030	2489
980.113	2596
980.196	2438
980.279	2934
980.361	2167
980.444	2289
980.526	4084
980.609	5547
980.692	6980
980.774	6245
980.857	3007
980.939	4708
981.022	3206
981.104	3142
981.187	3277
981.269	3425
981.352	3021
981.434	3514
981.516	3731
981.599	3530
981.681	3351
981.763	2643
981.846	3269
981.928	3578
982.010	3221
982.092	2421
982.174	4736
982.256	3779
982.339	2825
982.421	2716
982.503	3360
982.585	1881
982.667	3099
982.749	2804
982.831	2982
982.913	1839
982.995	2978
983.077	3229
983.158	4824
983.240	2831
983.322	4177
983.404	7683
983.486	6674
983.568	5950
983.649	4926
983.731	4589
983.813	4095
983.894	4396
983.976	4335
984.058	3914
984.139	4885
984.221	3092
984.302	5036
984.384	4438
984.465	3664
984.547	4412
984.628	3530
984.710	3902
984.791	4681
984.872	3953
984.954	4050
985.035	4303
985.116	3377
985.198	3923
985.279	4960
985.360	3965
985.441	4042
985.522	5501
985.604	4520
985.685	2732
985.766	5079
985.847	4469
985.928	3484
986.009	3803
986.090	4037
986.171	5563
986.252	4083
986.333	4312
986.414	4079
986.495	5270
986.576	5004
986.656	5861
986.737	5673
986.818	5562
986.899	4987
986.980	4041
987.060	4306
987.141	5958
987.222	5910
987.302	7007
987.383	6644
987.464	6554
987.544	6733
987.625	6481
987.705	6157
987.786	6694
987.866	5381
987.947	6259
988.027	6183
988.108	5047
988.188	5657
988.268	4839
988.349	6699
988.429	5898
988.509	4954
988.589	5622
988.670	4421
988.750	6182
988.830	5007
988.910	6361
988.990	5554
989.070	4615
989.151	4733
989.231	4598
989.311	6027
989.391	4787
989.471	5858
989.551	5021
989.631	4963
989.711	5780
989.791	5250
989.870	4438
989.950	4881
990.030	5016
990.110	5711
990.190	4001
990.269	3702
990.349	4827
990.429	4976
990.509	4234
990.588	3912
990.668	5068
990.747	4973
990.827	4090
990.907	4409
990.986	4280
991.066	4707
991.145	2806
991.225	4741
991.304	4286
991.383	4667
991.463	4018
991.542	4696
991.622	3547
991.701	3374
991.780	3280
991.859	4094
991.939	3712
992.018	4537
992.097	4340
992.176	3906
992.256	2850
992.335	3686
992.414	4734
992.493	3302
992.572	2600
992.651	4610
992.730	4603
992.809	3282
992.888	2425
992.967	3648
993.046	3529
993.125	2188
993.203	3235
993.282	3761
993.361	3060
993.440	2959
993.519	2772
993.597	2738
993.676	3094
993.755	3948
993.834	2830
993.912	933
993.991	4015
994.069	1623
994.148	2962
994.226	2083
994.305	2780
994.384	3247
994.462	3993
994.540	1257
994.619	1461
994.697	2746
994.776	2909
994.854	2750
994.932	2193
995.011	1853
995.089	2590
995.167	2195
995.245	2829
995.324	1985
995.402	2761
995.480	2135
995.558	2222
995.636	1140
995.714	1943
995.792	3314
995.870	1469
995.948	1539
996.026	3069
996.104	508
996.182	3040
996.260	1126
996.338	1172
996.416	1196
996.494	1990
996.572	3304
996.649	1525
996.727	1025
996.805	2956
996.883	2043
996.960	2960
997.038	2650
997.116	2636
997.193	1571
997.271	2311
997.348	1110
997.426	1818
997.504	2241
997.581	2741
997.658	1707
997.736	163
997.813	638
997.891	2511
997.968	852
998.046	1238
998.123	1333
998.200	2334
998.277	1217
998.355	1645
998.432	-84
998.509	760
998.586	1993
998.663	1611
998.741	1307
998.818	747
998.895	988
998.972	1015
999.049	1337
999.126	313
999.203	1475
999.280	1705
999.357	1330
999.434	840
999.511	1216
999.587	1986
999.664	84
999.741	484
999.818	1887
999.895	1408
999.971	508
1000.048	438
1000.125	2119
1000.202	961
1000.278	1219
1000.355	1889
1000.431	586
1000.508	-136
1000.584	538
1000.661	446
1000.738	101
1000.814	991
1000.890	1357
1000.967	978
1001.043	456
1001.120	-761
1001.196	280
1001.272	116
1001.349	597
1001.425	1104
1001.501	644
1001.577	970
1001.654	1019
1001.730	-475
1001.806	458
1001.882	-223
1001.958	1160
1002.034	1350
1002.110	-44
1002.186	-829
1002.262	-654
1002.338	-138
1002.414	236
1002.490	403
1002.566	-334
1002.642	87
1002.718	374
1002.794	454
1002.870	237
1002.945	32
1003.021	-445
1003.097	280
1003.173	719
1003.248	97
1003.324	-70
1003.400	381
1003.475	-555
1003.551	-246
1003.626	86
1003.702	314
1003.777	-676
1003.853	-143
1003.928	-697
1004.004	-324
1004.079	78
1004.155	579
1004.230	-883
1004.305	691
1004.381	22
1004.456	-426
1004.531	-319
1004.607	-260
1004.682	-314
1004.757	111
1004.832	-76
1004.907	-746
1004.982	-45
1005.057	100
1005.133	-461
1005.208	-652
1005.283	-1056
1005.358	-13
1005.433	-195
1005.508	-143
1005.583	-702
1005.657	588
1005.732	118
1005.807	-698
1005.882	-478
1005.957	-573
1006.032	530
1006.106	-151
1006.181	-131
1006.256	394
1006.331	-851
1006.405	130
1006.480	-461
1006.554	-656
1006.629	-33
1006.704	-460
1006.778	-512
1006.853	181
1006.927	-1361
1007.002	-566
1007.076	-1240
1007.150	-701
1007.225	-1318
1007.299	75
1007.373	-1688
1007.448	-412
1007.522	-563
1007.596	-61
1007.671	-379
1007.745	373
1007.819	-1341
1007.893	-114
1007.967	-253
1008.041	-1013
1008.115	112
1008.190	-553
1008.264	-296
1008.338	-1661
1008.412	-487
1008.486	-1272
1008.560	-878
1008.633	-440
1008.707	-876
1008.781	422
1008.855	405
1008.929	-555
1009.003	-890
1009.076	-1156
1009.150	-581
1009.224	-563
1009.298	2
1009.371	-756
1009.445	-1279
1009.519	11
1009.592	-1063
1009.666	-400
1009.739	-469
1009.813	-1384
1009.886	192
1009.960	-1913
1010.033	-863
1010.107	-856
1010.180	-1552
1010.253	-787
1010.327	-1047
1010.400	-294
1010.473	-1542
1010.547	-243
1010.620	-771
1010.693	227
1010.766	-1031
1010.840	-235
1010.913	-601
1010.986	-1019
1011.059	-1227
1011.132	-705
1011.205	-378
1011.278	-415
1011.351	-613
1011.424	-809
1011.497	-1109
1011.570	-724
1011.643	-412
1011.716	-678
1011.789	-790
1011.862	-586
1011.934	-380
1012.007	-1340
1012.080	-630
1012.153	-1102
1012.225	786
1012.298	-1397
1012.371	-773
1012.443	742
1012.516	-995
1012.588	-28
1012.661	-73
1012.733	-1528
1012.806	-430
1012.879	-868
1012.951	-1109
1013.023	-1205
1013.096	-687
1013.168	-929
1013.241	-336
1013.313	-791
1013.385	-777
1013.458	-916
1013.530	-1207
1013.602	-1852
1013.674	-289
1013.746	-1586
1013.819	-1837
1013.891	-703
1013.963	-904
1014.035	-302
1014.107	-93
1014.179	-531
1014.251	-1560
1014.323	-495
1014.395	-1113
1014.467	-1823
1014.539	-692
1014.611	-1115
1014.683	-1276
1014.754	-554
1014.826	-1672
1014.898	-114
1014.970	-2331
1015.042	-694
1015.113	-841
1015.185	-1251
1015.257	-1684
1015.328	-761
1015.400	-1462
1015.471	-568
1015.543	-1733
1015.615	-763
1015.686	-1575
1015.757	-1323
1015.829	-393
1015.901	-1702
1015.972	-1463
1016.043	-2233
1016.115	-1172
1016.186	-1482
1016.257	-1846
1016.328	-888
1016.400	-528
1016.471	-1156
1016.542	-1440
1016.613	-1522
1016.685	-1088
1016.756	-550
1016.827	-1399
1016.898	-2094
1016.969	-852
1017.040	-1716
1017.111	-1621
1017.182	-2329
1017.253	-1292
1017.324	-1342
1017.395	-1009
1017.466	-989
1017.537	-1483
1017.608	-808
1017.678	-1335
1017.749	-1047
1017.820	-1296
1017.891	-1402
1017.961	-1599
1018.032	-1668
1018.103	-829
1018.173	-1452
1018.244	-1971
1018.315	-1054
1018.385	-1358
1018.456	-1852
1018.526	-1819
1018.597	-1751
1018.667	-992
1018.738	-1041
1018.808	-2369
1018.878	-2365
1018.949	-1911
1019.019	-1619
1019.089	-1738
1019.160	-859
1019.230	-2143
1019.300	-808
1019.371	-2063
1019.441	-953
1019.511	-1607
1019.581	-1640
1019.651	-1898
1019.721	-1621
1019.791	-1754
1019.861	-1623
1019.931	-609
1020.001	-1133
1020.071	-1428
1020.141	-1859
1020.211	-2175
1020.281	-1870
1020.351	-2069
1020.421	-1575
1020.491	-1461
1020.560	-2232
1020.630	-2128
1020.700	-1896
1020.770	-1847
1020.839	-2504
1020.909	-1201
1020.979	-1776
1021.048	-2262
1021.118	-1571
1021.187	-1970
1021.257	-1672
1021.326	-1533
1021.396	-1483
1021.465	-2263
1021.535	-1653
1021.604	-2246
1021.674	-1128
1021.743	-905
1021.812	-2322
1021.882	-1477
1021.951	-1604
1022.020	-1316
1022.089	-765
1022.159	-1692
1022.228	-1063
1022.297	-1314
1022.366	-1462
1022.435	-1380
1022.504	-1377
1022.573	-2227
1022.642	-1680
1022.711	-1931
1022.781	-1374
1022.849	-1785
1022.918	-1761
1022.987	-1668
1023.056	-1944
1023.125	-1188
1023.194	-1245
1023.263	-1271
1023.331	-1368
1023.400	-2594
1023.469	-1559
1023.538	-1623
1023.606	-1994
1023.675	-1835
1023.744	-2269
1023.812	-1486
1023.881	-1510
1023.949	-1450
1024.018	-1975
1024.086	-3068
1024.155	-2354
1024.223	-2975
1024.292	-1325
1024.360	-2036
1024.429	-2636
1024.497	-2031
1024.565	-2205
1024.634	-2402
1024.702	-1501
1024.770	-2104
1024.838	-2202
1024.907	-1550
1024.975	-2574
1025.043	-1714
1025.111	-2086
1025.179	-1527
1025.247	-1912
1025.315	-1197
1025.383	-2389
1025.451	-1960
1025.519	-1753
1025.587	-1939
1025.655	-1856
1025.723	-1707
1025.791	-1437
1025.859	-1973
1025.927	-1169
1025.995	-2393
1026.062	-1417
1026.130	-2125
1026.198	-2172
1026.266	-2656
1026.333	-1666
1026.401	-1032
1026.469	-1498
1026.536	-985
1026.604	-1328
1026.671	-1688
1026.739	-960
1026.806	-1850
1026.874	-2086
1026.941	-1949
1027.009	-2622
1027.076	-1803
1027.144	-2036
1027.211	-1675
1027.278	-2684
1027.345	-1802
1027.413	-1286
1027.480	-1499
1027.547	-2102
1027.614	-1865
1027.682	-2073
1027.749	-1884
1027.816	-2113
1027.883	-1565
1027.950	-1926
1028.017	-2722
1028.084	-1660
1028.151	-2655
1028.218	-2041
1028.285	-1847
1028.352	-2182
1028.419	-1972
1028.486	-2124
1028.553	-1936
1028.619	-1899
1028.686	-2272
1028.753	-1863
1028.820	-1755
1028.886	-2171
1028.953	-1810
1029.020	-1802
1029.086	-1922
1029.153	-1568
1029.220	-2825
1029.286	-2202
1029.353	-1853
1029.419	-2168
1029.486	-1500
1029.552	-1943
1029.619	-2034
1029.685	-2543
1029.751	-2348
1029.818	-1501
1029.884	-2266
1029.951	-1811
1030.017	-1701
1030.083	-2547
1030.149	-2151
1030.216	-1961
1030.282	-1669
1030.348	-2075
1030.414	-2494
1030.480	-2017
1030.546	-2616
1030.612	-2134
1030.678	-3128
1030.744	-1694
1030.810	-2082
1030.876	-1761
1030.942	-2095
1031.008	-2374
1031.074	-2361
1031.140	-2351
1031.206	-2100
1031.272	-2185
1031.337	-2538
1031.403	-1127
1031.469	-2223
1031.534	-2507
1031.600	-1787
1031.666	-1960
1031.731	-2771
1031.797	-1574
1031.863	-1892
1031.928	-1386
1031.994	-1986
1032.059	-1464
1032.125	-1334
1032.190	-2144
1032.256	-2361
1032.321	-1979
1032.386	-2380
1032.452	-884
1032.517	-1899
1032.582	-2584
1032.647	-2097
1032.713	-1712
1032.778	-1610
1032.843	-1549
1032.908	-2211
1032.974	-1665
1033.039	-2845
1033.104	-1857
1033.169	-2007
1033.234	-1505
1033.299	-2099
1033.364	-1305
1033.429	-2103
1033.494	-2306
1033.559	-2681
1033.624	-1798
1033.688	-1894
1033.753	-2127
1033.818	-1795
1033.883	-1659
1033.948	-1641
1034.013	-876
1034.077	-908
1034.142	459
1034.207	-525
1034.271	1654
1034.336	1828
1034.400	1015
1034.465	-1119
1034.530	-1410
1034.594	-1219
1034.658	-1100
1034.723	-2271
1034.787	-1946
1034.852	-921
1034.916	-2129
1034.981	-2225
1035.045	-1329
1035.109	-2131
1035.173	-2276
1035.238	-1604
1035.302	-1657
1035.366	-2343
1035.430	-2407
1035.495	-2136
1035.559	-1710
1035.623	-1646
1035.687	-2936
1035.751	-1692
1035.815	-2600
1035.879	-1618
1035.943	-1676
1036.007	-2203
1036.071	-1911
1036.135	-2072
1036.198	-2229
1036.262	-2694
1036.326	-2070
1036.390	-2158
1036.454	-1230
1036.517	-2043
1036.581	-1403
1036.645	-2144
1036.709	-1358
1036.772	-2198
1036.836	-2561
1036.900	-1646
1036.963	-1639
1037.026	-1574
1037.090	-2162
1037.154	-1985
1037.217	-2390
1037.280	-2547
1037.344	-2588
1037.407	-1756
1037.471	-2003
1037.534	-1887
1037.597	-2070
1037.661	-1700
1037.724	-1790
1037.787	-2588
1037.850	-1846
1037.913	-1150
1037.977	-1899
1038.040	-2191
1038.103	-2027
1038.166	-2074
1038.229	-2433
1038.292	-1695
1038.355	-2063
1038.418	-2768
1038.481	-1168
1038.544	-2303
1038.607	-1606
1038.670	-2134
1038.732	-1467
1038.795	-1821
1038.858	-1840
1038.921	-1704
1038.984	-1794
1039.046	-2072
1039.109	-2645
1039.172	-1967
1039.234	-2248
1039.297	-1643
1039.360	-1633
1039.422	-1974
1039.485	-1979
1039.547	-2586
1039.610	-1052
1039.672	-1783
1039.734	-1691
1039.797	-1542
1039.859	-1103
1039.922	-2475
1039.984	-1918
1040.046	-2007
1040.109	-1542
1040.171	-2390
1040.233	-2376
1040.295	-2818
1040.358	-2003
1040.420	-2387
1040.482	-1479
1040.544	-1638
1040.606	-2184
1040.668	-2155
1040.730	-1630
1040.792	-2547
1040.854	-2758
1040.916	-1192
1040.978	-1110
1041.040	-1463
1041.102	-1373
1041.164	-3029
1041.225	-2012
1041.287	-2157
1041.349	-1552
1041.411	-1587
1041.472	-1765
1041.534	-2149
1041.596	-1935
1041.657	-1695
1041.719	-1591
1041.781	-1706
1041.842	-2115
1041.904	-2470
1041.965	-2337
1042.027	-2029
1042.088	-2422
1042.150	-2190
1042.211	-1597
1042.272	-1941
1042.334	-1481
1042.395	-2660
1042.456	-2335
1042.518	-2030
1042.579	-1571
1042.640	-2251
1042.701	-2087
1042.763	-1586
1042.824	-2316
1042.885	-1634
1042.946	-1552
1043.007	-1875
1043.068	-2308
1043.129	-1650
1043.190	-2172
1043.251	-1798
1043.312	-1555
1043.373	-1059
1043.434	-1792
1043.495	-1992
1043.556	-1908
1043.616	-1358
1043.677	-1415
1043.738	-1386
1043.799	-1700
1043.859	-1604
1043.920	-2001
1043.981	-2203
1044.041	-1661
1044.102	-2128
1044.162	-2137
1044.223	-2656
1044.284	-1808
1044.344	-1354
1044.405	-2530
1044.465	-2297
1044.525	-1589
1044.586	-1903
1044.646	-1627
1044.707	-1636
1044.767	-1490
1044.827	-2442
1044.887	-1411
1044.948	-1319
1045.008	-1475
1045.068	-2307
1045.128	-1516
1045.188	-1558
1045.249	-2061
1045.309	-2162
1045.369	-1133
1045.429	-2182
1045.489	-1766
1045.549	-2634
1045.609	-1174
1045.669	-1576
1045.729	-894
1045.789	-2684
1045.848	-1187
1045.908	-1646
1045.968	-2178
1046.028	-1956
1046.088	-1317
1046.147	-1890
1046.207	-1943
1046.267	-1064
1046.326	-1437
1046.386	-1045
1046.446	-1507
1046.505	-1638
1046.565	-752
1046.624	-1185
1046.684	-701
1046.743	-386
1046.803	-920
1046.862	-266
1046.922	0
