'Start Wavelength	183.907
'End Wavelength	1046.922
'Gate Delay	5.000
'Gate Width (ms)	1.050
'Laser Output Level	0.000
'X Position	0.000
'Y Position	0.000
'Z Position	0.000
'Grid Point Number	1.000
'Shot Number	100.000
183.907	189.000
183.977	763.000
184.047	-371
184.116	273
184.186	151
184.256	172
184.325	-124
184.395	-809
184.465	295
184.534	376
184.604	-405
184.674	1569
184.743	-505
184.813	438
184.883	154
184.952	156
185.022	-87
185.092	356
185.161	308
185.231	625
185.301	-434
185.370	689
185.440	191
185.509	947
185.579	-271
185.649	261
185.718	25
185.788	610
185.857	-682
185.927	-121
185.996	-578
186.066	137
186.136	-345
186.205	951
186.275	-116
186.344	740
186.414	-128
186.483	-84
186.553	994
186.622	1153
186.692	-53
186.761	589
186.831	-309
186.900	-214
186.970	31
187.039	476
187.109	491
187.178	447
187.248	389
187.317	1204
187.387	86
187.456	599
187.526	209
187.595	354
187.664	-325
187.734	1066
187.803	18
187.873	526
187.942	216
188.012	1053
188.081	-107
188.150	732
188.220	230
188.289	1192
188.358	317
188.428	1672
188.497	-883
188.567	554
188.636	-434
188.705	455
188.775	312
188.844	450
188.913	570
188.983	709
189.052	518
189.121	1367
189.191	-387
189.260	748
189.329	-29
189.399	-180
189.468	847
189.537	742
189.606	-256
189.676	581
189.745	28
189.814	506
189.883	-106
189.953	729
190.022	494
190.091	1206
190.161	687
190.230	385
190.299	245
190.368	639
190.437	-672
190.507	310
190.576	-705
190.645	518
190.714	-831
190.783	269
190.853	275
190.922	1124
190.991	-830
191.060	1198
191.129	-525
191.198	67
191.268	505
191.337	535
191.406	410
191.475	186
191.544	-785
191.613	341
191.682	-43
191.752	666
191.821	-810
191.890	1067
191.959	152
192.028	482
192.097	469
192.166	375
192.235	-996
192.304	77
192.373	-626
192.442	-188
192.511	-56
192.580	32
192.650	216
192.719	754
192.788	-286
192.857	1169
192.926	-306
192.995	1022
193.064	-129
193.133	700
193.202	312
193.271	1156
193.340	-284
193.409	595
193.478	1281
193.547	1729
193.615	1103
193.684	2312
193.753	1379
193.822	1551
193.891	-86
193.960	631
194.029	-326
194.098	809
194.167	-109
194.236	761
194.305	-827
194.374	610
194.443	73
194.512	1921
194.580	683
194.649	887
194.718	581
194.787	1188
194.856	85
194.925	956
194.994	180
195.062	762
195.131	695
195.200	1030
195.269	929
195.338	915
195.407	1053
195.475	587
195.544	226
195.613	1392
195.682	-785
195.751	1394
195.819	1093
195.888	934
195.957	1273
196.026	1959
196.094	1210
196.163	1007
196.232	1253
196.301	1712
196.369	633
196.438	600
196.507	361
196.576	340
196.644	306
196.713	609
196.782	532
196.850	631
196.919	-256
196.988	1477
197.056	-92
197.125	494
197.194	551
197.262	1069
197.331	884
197.400	810
197.468	18
197.537	983
197.606	57
197.674	841
197.743	449
197.812	1105
197.880	537
197.949	1396
198.017	1224
198.086	562
198.155	899
198.223	785
198.292	1471
198.360	1704
198.429	-116
198.497	926
198.566	988
198.635	2255
198.703	587
198.772	908
198.840	1071
198.909	1364
198.977	820
199.046	1410
199.114	-12
199.183	1234
199.251	5
199.320	1395
199.388	363
199.457	816
199.525	502
199.594	1350
199.662	-582
199.731	1424
199.799	744
199.867	992
199.936	-82
200.004	1298
200.073	-33
200.141	404
200.210	284
200.278	795
200.346	567
200.415	2160
200.483	1101
200.552	1410
200.620	543
200.688	175
200.757	278
200.825	546
200.893	350
200.962	814
201.030	202
201.098	110
201.167	593
201.235	1443
201.303	313
201.372	1779
201.440	933
201.508	943
201.577	1590
201.645	1705
201.713	747
201.781	849
201.850	834
201.918	1361
201.986	1049
202.055	1886
202.123	776
202.191	955
202.259	709
202.327	1520
202.396	558
202.464	1169
202.532	81
202.600	2187
202.669	852
202.737	890
202.805	382
202.873	1199
202.941	625
203.009	1697
203.078	996
203.146	1703
203.214	491
203.282	754
203.350	626
203.418	1321
203.487	1281
203.555	1061
203.623	886
203.691	1855
203.759	710
203.827	225
203.895	1426
203.963	1185
204.031	0
204.099	1408
204.168	938
204.236	1272
204.304	170
204.372	1012
204.440	284
204.508	712
204.576	28
204.644	1153
204.712	1183
204.780	641
204.848	126
204.916	757
204.984	1276
205.052	1550
205.120	574
205.188	1015
205.256	294
205.324	1028
205.392	634
205.460	1590
205.528	204
205.596	1461
205.664	804
205.732	1095
205.799	1495
205.867	2815
205.935	845
206.003	1761
206.071	1025
206.139	1238
206.207	1104
206.275	1204
206.343	380
206.411	1383
206.478	838
206.546	1505
206.614	774
206.682	1176
206.750	-723
206.818	2093
206.885	1284
206.953	999
207.021	1707
207.089	2034
207.157	57
207.225	1290
207.292	375
207.360	1332
207.428	1137
207.496	937
207.563	601
207.631	1340
207.699	828
207.767	1618
207.834	195
207.902	1492
207.970	783
208.038	976
208.105	488
208.173	1141
208.241	245
208.309	1890
208.376	1739
208.444	2577
208.512	951
208.579	363
208.647	1089
208.715	2120
208.782	384
208.850	1772
208.918	946
208.985	1711
209.053	1702
209.120	2058
209.188	964
209.256	2490
209.323	418
209.391	1929
209.459	1116
209.526	1330
209.594	669
209.661	2209
209.729	1020
209.796	2361
209.864	1843
209.932	1539
209.999	2156
210.067	2255
210.134	1715
210.202	1664
210.269	1420
210.337	2690
210.404	1709
210.472	1478
210.539	649
210.607	1035
210.674	1500
210.742	1517
210.809	1231
210.877	1552
210.944	2309
211.012	1059
211.079	2149
211.146	2156
211.214	1377
211.281	2245
211.349	2283
211.416	2126
211.484	1470
211.551	1525
211.618	1505
211.686	1349
211.753	1110
211.821	2806
211.888	808
211.955	1843
212.023	982
212.090	1667
212.157	1375
212.225	1979
212.292	1537
212.359	3839
212.427	5293
212.494	4529
212.561	1634
212.629	2546
212.696	1581
212.763	2761
212.831	896
212.898	2846
212.965	1480
213.032	2001
213.100	1764
213.167	1822
213.234	1728
213.301	2476
213.369	1082
213.436	1636
213.503	1325
213.570	2322
213.638	1545
213.705	1756
213.772	771
213.839	1851
213.906	2549
213.973	3039
214.041	1964
214.108	2026
214.175	1473
214.242	1472
214.309	1411
214.376	2426
214.444	1692
214.511	2740
214.578	1477
214.645	2069
214.712	1562
214.779	2625
214.846	1755
214.913	2453
214.980	2388
215.048	3319
215.115	2778
215.182	3356
215.249	1940
215.316	2125
215.383	1900
215.450	2695
215.517	762
215.584	1812
215.651	1417
215.718	2187
215.785	1906
215.852	1526
215.919	2141
215.986	2460
216.053	1236
216.120	1968
216.187	2559
216.254	2755
216.321	1703
216.388	2722
216.455	2254
216.522	2599
216.589	2128
216.656	3893
216.722	4208
216.789	3086
216.856	2489
216.923	2556
216.990	2048
217.057	3129
217.124	2535
217.191	3318
217.258	4003
217.324	4424
217.391	4703
217.458	4201
217.525	2587
217.592	2874
217.659	1024
217.725	2888
217.792	2470
217.859	3512
217.926	1658
217.993	1813
218.059	2013
218.126	2412
218.193	1708
218.260	2183
218.327	1799
218.393	1697
218.460	567
218.527	1193
218.594	1246
218.660	2681
218.727	2665
218.794	1464
218.860	2342
218.927	1261
218.994	1246
219.061	864
219.127	2212
219.194	3100
219.261	1769
219.327	1781
219.394	1445
219.461	890
219.527	616
219.594	2375
219.661	1132
219.727	1719
219.794	1648
219.860	1364
219.927	1685
219.994	2657
220.060	4328
220.127	5133
220.193	3187
220.260	3065
220.326	4118
220.393	5397
220.460	6471
220.526	5553
220.593	3424
220.659	4689
220.726	3464
220.792	5220
220.859	6068
220.925	8990
220.992	10776
221.058	9391
221.125	7459
221.191	5658
221.258	2942
221.324	3073
221.391	2645
221.457	1856
221.524	1719
221.590	2305
221.657	5369
221.723	4052
221.789	3496
221.856	4383
221.922	1583
221.989	3034
222.055	2256
222.121	817
222.188	3650
222.254	2877
222.321	1380
222.387	1553
222.453	1255
222.520	752
222.586	1008
222.652	1237
222.719	528
222.785	2197
222.851	904
222.918	1491
222.984	1179
223.050	1655
223.116	474
223.183	2944
223.249	702
223.315	1179
223.382	1028
223.448	1597
223.514	830
223.580	797
223.647	157
223.713	1526
223.779	148
223.845	1926
223.911	995
223.978	877
224.044	2216
224.110	1469
224.176	1343
224.242	1210
224.309	-150
224.375	1594
224.441	79
224.507	920
224.573	-488
224.639	1896
224.705	-158
224.772	1704
224.838	345
224.904	2406
224.970	982
225.036	1454
225.102	21
225.168	2983
225.234	1096
225.300	1428
225.366	254
225.432	1400
225.499	1135
225.565	1553
225.631	1059
225.697	1981
225.763	2188
225.829	2412
225.895	3038
225.961	3387
226.027	2257
226.093	2950
226.159	3521
226.225	5741
226.291	10664
226.357	16407
226.423	10137
226.489	6846
226.554	4074
226.620	4230
226.686	4711
226.752	7430
226.818	9852
226.884	18471
226.950	17184
227.016	8836
227.082	5626
227.148	3973
227.214	4438
227.279	4416
227.345	3916
227.411	4414
227.477	3652
227.543	7889
227.609	8143
227.674	5713
227.740	2991
227.806	3853
227.872	1721
227.938	3069
228.003	3990
228.069	2820
228.135	1664
228.201	1769
228.267	1647
228.332	2495
228.398	1897
228.464	2331
228.530	878
228.595	1910
228.661	271
228.727	2639
228.792	2764
228.858	2205
228.924	177
228.990	3648
229.055	1498
229.121	2972
229.187	1865
229.252	1773
229.318	693
229.384	1461
229.449	2704
229.515	674
229.581	-672
229.646	2834
229.712	1614
229.777	3884
229.843	3139
229.909	3327
229.974	3486
230.040	4388
230.105	1429
230.171	2652
230.236	2481
230.302	4467
230.368	3805
230.433	2477
230.499	2110
230.564	3394
230.630	922
230.695	1324
230.761	1904
230.826	1369
230.892	3278
230.957	1874
231.023	646
231.088	1877
231.154	1677
231.219	2329
231.284	2178
231.350	3136
231.415	1349
231.481	2238
231.546	1197
231.612	2211
231.677	766
231.742	855
231.808	2480
231.873	1425
231.939	-766
232.004	3378
232.069	2384
232.135	1893
232.200	943
232.265	1760
232.331	1605
232.396	597
232.461	366
232.527	586
232.592	996
232.657	2200
232.723	1048
232.788	2518
232.853	1675
232.918	1849
232.984	804
233.049	1125
233.114	789
233.179	2797
233.245	2678
233.310	2806
233.375	244
233.440	2065
233.506	1340
233.571	1514
233.636	1032
233.701	2407
233.766	1173
233.832	2323
233.897	1445
233.962	1310
234.027	2744
234.092	3115
234.157	1115
234.222	1775
234.288	2886
234.353	5174
234.418	4833
234.483	5067
234.548	3377
234.613	2870
234.678	2958
234.743	2430
234.808	6030
234.873	3100
234.938	3171
235.004	2535
235.069	2538
235.134	1698
235.199	1938
235.264	2754
235.329	-207
235.394	3450
235.459	1748
235.524	1763
235.589	1722
235.654	2080
235.719	442
235.784	2934
235.849	1369
235.913	3162
235.978	3082
236.043	3184
236.108	1882
236.173	2010
236.238	2619
236.303	1261
236.368	1058
236.433	4690
236.498	3525
236.563	5014
236.627	7588
236.692	22603
236.757	21594
236.822	9717
236.887	5675
236.952	5917
237.017	3143
237.081	6769
237.146	5700
237.211	13689
237.276	21736
237.341	32481
237.405	19715
237.470	9462
237.535	5513
237.600	3931
237.664	4040
237.729	2708
237.794	2811
237.859	10170
237.923	4497
237.988	2949
238.053	3623
238.118	3051
238.182	6029
238.247	6712
238.312	2949
238.376	3082
238.441	857
238.506	3787
238.570	858
238.635	3833
238.700	1812
238.764	1850
238.829	2717
238.893	4139
238.958	3643
239.023	3043
239.087	1835
239.152	2744
239.216	1431
239.281	2157
239.346	1692
239.410	2437
239.475	1332
239.539	6411
239.604	3661
239.668	4150
239.733	1923
239.797	5512
239.862	13302
239.926	12103
239.991	4381
240.055	3427
240.120	1282
240.184	2253
240.249	1717
240.313	2494
240.378	448
240.442	3287
240.507	5197
240.571	2716
240.635	2459
240.700	3979
240.764	1749
240.829	2297
240.893	1200
240.957	2334
241.022	2839
241.086	5829
241.151	2291
241.215	1220
241.279	2619
241.344	3713
241.408	2750
241.472	3284
241.537	4090
241.601	3253
241.665	1013
241.730	2489
241.794	3338
241.858	3205
241.922	2656
241.987	2965
242.051	2165
242.115	1959
242.179	3416
242.244	2023
242.308	2298
242.372	2658
242.436	1717
242.501	3536
242.565	744
242.629	1500
242.693	3021
242.757	1871
242.822	1305
242.886	2928
242.950	2244
243.014	2340
243.078	2778
243.142	3164
243.206	1824
243.271	3007
243.335	1478
243.399	3996
243.463	7685
243.527	25208
243.591	9722
243.655	5081
243.719	2512
243.783	4201
243.847	5111
243.911	6517
243.975	7007
244.040	5418
244.104	3994
244.168	3068
244.232	3926
244.296	5876
244.360	4994
244.424	3206
244.488	2739
244.552	3603
244.615	563
244.679	2902
244.743	2939
244.807	4007
244.871	2285
244.935	2683
244.999	465
245.063	1721
245.127	2789
245.191	4224
245.255	3373
245.319	4640
245.383	2493
245.446	3706
245.510	1460
245.574	3316
245.638	2957
245.702	2829
245.766	5319
245.829	5463
245.893	1724
245.957	2948
246.021	3434
246.085	2866
246.149	3645
246.212	8607
246.276	12186
246.340	6937
246.404	4177
246.467	4197
246.531	6175
246.595	5480
246.659	4625
246.722	3020
246.786	5934
246.850	5452
246.913	6321
246.977	2948
247.041	3400
247.104	4002
247.168	3622
247.232	8533
247.295	16772
247.359	11192
247.423	3644
247.486	8233
247.550	5670
247.614	5140
247.677	5387
247.741	4745
247.804	2139
247.868	4648
247.932	6339
247.995	17830
248.059	6519
248.122	2992
248.186	5321
248.249	8906
248.313	22900
248.376	29075
248.440	19459
248.503	7314
248.567	7611
248.630	8464
248.694	12537
248.757	16823
248.821	26760
248.884	21106
248.948	15395
249.011	23401
249.075	29175
249.138	29406
249.202	13488
249.265	7248
249.328	7779
249.392	6276
249.455	6924
249.519	5150
249.582	6090
249.645	9862
249.709	7227
249.772	6065
249.835	4946
249.899	5189
249.962	5239
250.025	4372
250.089	9436
250.152	16287
250.215	7655
250.279	5834
250.342	5329
250.405	5914
250.468	5200
250.532	6644
250.595	9020
250.658	22484
250.721	40594
250.785	18161
250.848	10221
250.911	6686
250.974	7035
251.038	7829
251.101	17122
251.164	10006
251.227	8803
251.290	9015
251.354	9767
251.417	31493
251.480	36010
251.543	24237
251.606	54072
251.669	49711
251.732	21837
251.795	22066
251.859	21607
251.922	37444
251.985	26881
252.048	11499
252.111	8771
252.174	8096
252.237	15904
252.300	32625
252.363	30475
252.426	51343
252.489	25499
252.552	14516
252.615	8871
252.678	10260
252.741	22596
252.804	27069
252.867	50490
252.930	38535
252.993	20680
253.056	14186
253.119	9455
253.182	8249
253.245	9977
253.308	9936
253.371	8140
253.434	9153
253.497	8056
253.559	15500
253.622	12122
253.685	14139
253.748	16476
253.811	7926
253.874	7507
253.937	7706
254.000	6885
254.062	11234
254.125	16621
254.188	16407
254.251	14613
254.314	6494
254.376	10572
254.439	15201
254.502	12049
254.565	11444
254.628	20806
254.690	14098
254.753	7934
254.816	6853
254.878	5899
254.941	11263
255.004	13098
255.067	5672
255.129	6565
255.192	5079
255.255	2795
255.317	5371
255.380	3296
255.443	2746
255.505	3104
255.568	3189
255.631	2944
255.693	3836
255.756	1572
255.819	3965
255.881	1806
255.944	2817
256.006	2050
256.069	3064
256.132	2993
256.194	4424
256.257	5498
256.319	4910
256.382	4178
256.444	5158
256.507	3615
256.569	3812
256.632	3766
256.694	5339
256.757	13300
256.819	42058
256.882	19576
256.944	8254
257.007	6347
257.069	7367
257.132	3818
257.194	5400
257.257	3413
257.319	4338
257.381	4704
257.444	11791
257.506	41239
257.569	56757
257.631	25999
257.693	15000
257.756	6899
257.818	5817
257.880	4380
257.943	5095
258.005	3595
258.067	4219
258.130	3653
258.192	4499
258.254	7384
258.317	5333
258.379	3676
258.441	9438
258.503	9157
258.566	7288
258.628	10387
258.690	3707
258.753	4951
258.815	9121
258.877	5682
258.939	3432
259.001	2789
259.064	3590
259.126	2325
259.188	4961
259.250	4009
259.312	3673
259.375	8463
259.437	7600
259.499	3363
259.561	3423
259.623	3862
259.685	4269
259.747	3232
259.809	5981
259.872	11477
259.934	18309
259.996	23388
260.058	7823
260.120	3412
260.182	3191
260.244	2688
260.306	2556
260.368	3535
260.430	2185
260.492	6616
260.554	12911
260.616	7344
260.678	10993
260.740	14645
260.802	5782
260.864	3577
260.926	2995
260.988	4061
261.050	4103
261.112	8592
261.174	18758
261.236	11061
261.298	6028
261.359	5254
261.421	8815
261.483	4104
261.545	4998
261.607	1394
261.669	3307
261.731	3689
261.793	10432
261.854	6371
261.916	5503
261.978	4414
262.040	4796
262.102	2457
262.164	4289
262.225	3711
262.287	3787
262.349	8402
262.411	7459
262.472	3622
262.534	3524
262.596	7239
262.658	4055
262.719	2421
262.781	3741
262.843	6521
262.904	5373
262.966	2868
263.028	4534
263.090	11772
263.151	36073
263.213	16651
263.275	12293
263.336	4151
263.398	4004
263.459	2197
263.521	3408
263.583	7886
263.644	7143
263.706	2926
263.767	1945
263.829	2420
263.891	2125
263.952	1669
264.014	1478
264.075	2734
264.137	13773
264.198	7469
264.260	3163
264.321	2552
264.383	5964
264.444	19452
264.506	7368
264.567	4440
264.629	6022
264.690	15105
264.752	7042
264.813	4771
264.875	2814
264.936	3119
264.998	2141
265.059	2837
265.120	4052
265.182	4612
265.243	22422
265.305	28133
265.366	7861
265.427	3732
265.489	4339
265.550	1878
265.611	3464
265.673	3332
265.734	3634
265.795	2274
265.857	2791
265.918	2585
265.979	7171
266.040	33526
266.102	36443
266.163	10908
266.224	8876
266.286	5826
266.347	3291
266.408	3406
266.469	3546
266.530	2492
266.592	2210
266.653	5436
266.714	11888
266.775	3795
266.836	3007
266.898	2066
266.959	5143
267.020	4266
267.081	4037
267.142	2071
267.203	2660
267.264	1030
267.326	4118
267.387	2092
267.448	2251
267.509	2262
267.570	3547
267.631	1738
267.692	2344
267.753	2523
267.814	2319
267.875	4236
267.936	12657
267.997	6911
268.058	6181
268.119	3304
268.180	2698
268.241	1967
268.302	3843
268.363	1930
268.424	3278
268.485	2511
268.546	2077
268.607	1566
268.668	2432
268.729	2013
268.790	2988
268.851	3205
268.912	8144
268.972	10604
269.033	5835
269.094	2279
269.155	2794
269.216	2005
269.277	2535
269.338	2223
269.398	3278
269.459	2492
269.520	5464
269.581	5545
269.642	7950
269.702	5281
269.763	3802
269.824	2737
269.885	4470
269.945	6383
270.006	3222
270.067	1971
270.128	1839
270.188	2750
270.249	2584
270.310	1267
270.370	3329
270.431	2062
270.492	1933
270.553	2231
270.613	5861
270.674	12300
270.734	6716
270.795	2694
270.856	4452
270.916	3714
270.977	3357
271.038	3936
271.098	4432
271.159	5436
271.219	7400
271.280	2394
271.340	3508
271.401	1176
271.462	5183
271.522	3709
271.583	3300
271.643	2827
271.704	3370
271.764	3605
271.825	8459
271.885	26261
271.946	39982
272.006	15358
272.066	15794
272.127	29152
272.187	13245
272.248	6443
272.308	6522
272.369	16667
272.429	13329
272.489	8730
272.550	9989
272.610	10319
272.671	9061
272.731	4931
272.791	7746
272.852	6612
272.912	5905
272.972	3347
273.033	3896
273.093	3918
273.153	6539
273.214	4246
273.274	4538
273.334	12038
273.394	28322
273.455	13899
273.515	12560
273.575	24896
273.635	11921
273.696	11707
273.756	24319
273.816	12301
273.876	7019
273.936	7269
273.997	14250
274.057	6261
274.117	4860
274.177	6598
274.237	29779
274.297	29196
274.358	14729
274.418	20014
274.478	18909
274.538	6905
274.598	5115
274.658	8830
274.718	13427
274.778	7896
274.838	5125
274.898	5157
274.958	15599
275.018	20654
275.078	18234
275.138	7589
275.198	4209
275.258	3217
275.318	3800
275.378	8557
275.438	12398
275.498	6981
275.558	8471
275.618	18811
275.678	19698
275.738	12338
275.798	11476
275.858	5753
275.918	3238
275.978	3806
276.038	5543
276.098	3708
276.157	6800
276.217	20865
276.277	11420
276.337	7900
276.397	4428
276.457	5571
276.517	4088
276.576	2926
276.636	2972
276.696	5629
276.756	12032
276.815	9994
276.875	4611
276.935	4574
276.995	5894
277.055	3894
277.114	4434
277.174	4378
277.234	16161
277.293	8335
277.353	5103
277.413	3379
277.472	3507
277.532	4177
277.592	4311
277.651	11331
277.711	26386
277.771	9978
277.830	29005
277.890	28091
277.950	14838
278.009	40970
278.069	19937
278.128	16431
278.188	27597
278.248	12643
278.307	26375
278.367	18942
278.426	6477
278.486	4253
278.545	3664
278.605	3420
278.664	3938
278.724	3553
278.783	9057
278.843	24799
278.902	9405
278.962	5211
279.021	6610
279.081	4070
279.140	5495
279.199	4862
279.259	6127
279.318	5750
279.378	7551
279.437	10330
279.496	35614
279.556	78041
279.615	71499
279.675	21018
279.734	12711
279.793	17149
279.853	31507
279.912	13976
279.971	8298
280.031	6818
280.090	11826
280.149	24030
280.208	14879
280.268	50937
280.327	64028
280.386	16544
280.445	13967
280.505	14995
280.564	7020
280.623	6726
280.682	8876
280.742	15270
280.801	5713
280.860	4187
280.919	3952
280.978	3859
281.037	3213
281.097	2213
281.156	3832
281.215	2630
281.274	4420
281.333	13882
281.392	13679
281.451	3237
281.510	3178
281.569	2814
281.628	2953
281.688	2362
281.747	3249
281.806	3784
281.865	2995
281.924	2170
281.983	3552
282.042	1661
282.101	2306
282.160	3030
282.219	2671
282.278	3157
282.337	10845
282.396	8816
282.454	3604
282.513	4206
282.572	16984
282.631	12089
282.690	5160
282.749	2704
282.808	5319
282.867	4246
282.926	5065
282.985	2511
283.043	2926
283.102	2666
283.161	3384
283.220	6260
283.279	18127
283.338	8093
283.396	4651
283.455	4195
283.514	4777
283.573	7058
283.631	6418
283.690	4450
283.749	3932
283.808	7140
283.866	11333
283.925	4152
283.984	4533
284.043	5965
284.101	7445
284.160	4457
284.219	5556
284.277	5009
284.336	8137
284.395	22326
284.453	20770
284.512	9165
284.570	12316
284.629	11224
284.688	10360
284.746	11555
284.805	13447
284.863	16184
284.922	22218
284.981	26430
285.039	38723
285.098	59821
285.156	109536
285.215	119761
285.273	117078
285.332	124051
285.390	79398
285.449	49963
285.507	35240
285.566	24561
285.624	20355
285.683	16117
285.741	14470
285.799	11037
285.858	10509
285.916	8527
285.975	8406
286.033	6212
286.091	6320
286.150	4417
286.208	5750
286.267	5236
286.325	6534
286.383	8872
286.442	9015
286.500	4125
286.558	4410
286.616	3320
286.675	5960
286.733	5252
286.791	4380
286.850	4442
286.908	6261
286.966	10830
287.024	6658
287.083	3153
287.141	3677
287.199	3480
287.257	6350
287.315	5242
287.374	4938
287.432	10632
287.490	9089
287.548	4117
287.606	4224
287.664	3257
287.723	5048
287.781	6174
287.839	3749
287.897	3922
287.955	5006
288.013	6991
288.071	12805
288.129	40327
288.187	120054
288.245	63347
288.303	20549
288.361	10221
288.419	8538
288.477	6549
288.535	5638
288.593	4478
288.651	3693
288.709	2107
288.767	3868
288.825	2412
288.883	2099
288.941	1645
288.999	3086
289.057	2013
289.115	1191
289.173	2083
289.231	4047
289.289	3327
289.346	3128
289.404	3988
289.462	6422
289.520	7185
289.578	4445
289.636	1548
289.694	2598
289.751	2277
289.809	2452
289.867	2163
289.925	3373
289.983	3902
290.040	2593
290.098	2050
290.156	3507
290.214	3812
290.271	2905
290.329	2201
290.387	2305
290.444	2146
290.502	1139
290.560	1993
290.617	2580
290.675	2206
290.733	2126
290.790	2958
290.848	2622
290.906	2345
290.963	2956
291.021	2143
291.078	2957
291.136	2118
291.194	8057
291.251	20691
291.309	7323
291.366	2884
291.424	2670
291.481	3422
291.539	3594
291.596	3189
291.654	2104
291.711	1816
291.769	2861
291.826	5985
291.884	5095
291.941	1896
291.999	2722
292.056	2793
292.114	3779
292.171	2000
292.228	2909
292.286	3872
292.343	6873
292.401	9581
292.458	6635
292.515	2583
292.573	5564
292.630	3516
292.687	4570
292.745	2010
292.802	4841
292.859	10564
292.917	18481
292.974	12873
293.031	5545
293.089	2698
293.146	3018
293.203	1618
293.260	2214
293.318	1711
293.375	5202
293.432	3127
293.489	3139
293.546	2806
293.604	4556
293.661	9093
293.718	28982
293.775	17005
293.832	8482
293.889	5656
293.947	5868
294.004	4065
294.061	4840
294.118	8513
294.175	19132
294.232	26775
294.289	11462
294.346	6248
294.403	5862
294.460	4192
294.517	3863
294.574	3608
294.631	3753
294.688	3798
294.745	8269
294.802	29711
294.859	40802
294.916	15231
294.973	7719
295.030	6258
295.087	6472
295.144	4917
295.201	3908
295.258	2808
295.315	4085
295.372	10732
295.429	23822
295.486	12458
295.542	6982
295.599	14123
295.656	28582
295.713	17851
295.770	23648
295.827	10577
295.883	5650
295.940	4980
295.997	8522
296.054	8779
296.111	4549
296.167	3583
296.224	4181
296.281	2741
296.338	3706
296.394	3013
296.451	4515
296.508	9011
296.564	20619
296.621	14933
296.678	25393
296.734	39928
296.791	17525
296.848	9346
296.904	8953
296.961	19188
297.018	26364
297.074	20702
297.131	9500
297.187	6565
297.244	8980
297.301	20122
297.357	43362
297.414	17814
297.470	8599
297.527	5091
297.583	5282
297.640	4667
297.696	4339
297.753	3100
297.809	3811
297.866	1461
297.922	2811
297.979	2692
298.035	3049
298.092	5738
298.148	14472
298.204	16314
298.261	8023
298.317	11604
298.374	31613
298.430	20764
298.486	8621
298.543	6117
298.599	6516
298.656	7171
298.712	10598
298.768	22962
298.824	15901
298.881	6559
298.937	5049
298.993	2903
299.050	6025
299.106	4959
299.162	4274
299.218	5076
299.275	3877
299.331	3550
299.387	7721
299.443	26230
299.500	38138
299.556	18379
299.612	8106
299.668	7840
299.724	12086
299.780	15405
299.837	8319
299.893	9015
299.949	25228
300.005	36197
300.061	26079
300.117	42958
300.173	23514
300.229	10503
300.285	11271
300.341	14939
300.397	9232
300.453	4796
300.510	6087
300.566	5471
300.622	7844
300.678	21502
300.734	40587
300.790	27911
300.845	29645
300.901	21619
300.957	32732
301.013	24262
301.069	10370
301.125	6450
301.181	7310
301.237	5633
301.293	4497
301.349	3097
301.405	4284
301.461	4185
301.516	6646
301.572	5600
301.628	9738
301.684	8274
301.740	11217
301.796	18866
301.851	13467
301.907	20350
301.963	21985
302.019	25260
302.074	68524
302.130	76325
302.186	39496
302.242	15964
302.297	11198
302.353	9845
302.409	17551
302.464	16008
302.520	12508
302.576	26972
302.631	35858
302.687	20799
302.743	10084
302.798	5315
302.854	4732
302.910	4885
302.965	6668
303.021	10923
303.076	11534
303.132	13030
303.187	17762
303.243	9078
303.299	4415
303.354	3539
303.410	4133
303.465	3477
303.521	3306
303.576	3884
303.632	5028
303.687	7623
303.743	23358
303.798	22778
303.853	9817
303.909	5022
303.964	5769
304.020	7156
304.075	12868
304.130	11534
304.186	19960
304.241	20858
304.297	18362
304.352	8787
304.358	8537
304.407	6503
304.449	5796
304.463	5558
304.518	6809
304.539	6242
304.573	5306
304.629	5661
304.630	5679
304.684	7111
304.720	14609
304.739	18244
304.794	30234
304.811	26678
304.850	17482
304.902	7759
304.905	7178
304.960	5885
304.992	5369
305.015	5005
305.071	6319
305.083	6072
305.126	4956
305.173	3459
305.181	3274
305.236	3084
305.264	3671
305.292	4324
305.347	5885
305.354	6075
305.402	7049
305.445	7069
305.457	7117
305.512	8467
305.535	8670
305.567	8851
305.622	9629
305.626	9782
305.678	16355
305.716	27238
305.733	30028
305.788	35737
305.807	31238
305.843	24834
305.897	29508
305.898	29515
305.953	30718
305.988	21318
306.008	16733
306.063	13534
306.078	12313
306.118	9233
306.168	6027
306.173	5808
306.228	4248
306.259	4330
306.283	4456
306.338	3774
306.349	3890
306.393	5023
306.440	6028
306.448	6095
306.503	6504
306.530	6475
306.558	9311
306.613	19678
306.620	21226
306.668	30968
306.711	39272
306.723	38791
306.778	29426
306.801	22881
306.833	16391
306.888	7287
306.892	7001
306.943	6937
306.982	6008
306.997	5734
307.052	5361
307.072	5415
307.107	6231
307.162	7912
307.163	7919
307.217	10484
307.253	12393
307.272	12592
307.327	12813
307.343	12539
307.381	11982
307.434	11085
307.436	11527
307.491	22703
307.524	32003
307.546	33441
307.600	36307
307.614	33816
307.655	21954
307.704	11315
307.710	11266
307.765	12551
307.795	14889
307.819	17788
307.874	25747
307.885	26559
307.929	23337
307.975	19486
307.984	20557
308.038	30019
308.065	35502
308.093	61264
308.148	122201
308.156	133486
308.202	193204
308.246	240984
308.257	231643
308.312	137719
308.336	97864
308.366	77445
308.421	50210
308.426	47446
308.475	31453
308.517	20788
308.530	19739
308.585	17449
308.607	16403
308.639	16276
308.694	17645
308.697	17667
308.748	28203
308.787	38930
308.803	38227
308.857	30416
308.877	27405
308.912	27095
308.967	27760
308.967	27729
309.021	40627
309.058	49950
309.076	63422
309.130	108512
309.148	124196
309.185	193643
309.238	302313
309.239	303615
309.293	323771
309.328	319886
309.348	282702
309.402	160045
309.418	126394
309.457	94598
309.508	59321
309.511	59009
309.566	55258
309.598	54251
309.620	63985
309.674	91204
309.688	98157
309.729	94638
309.778	85304
309.783	83655
309.837	59357
309.868	46640
309.892	53862
309.946	72804
309.959	78067
310.001	97673
310.049	117341
310.055	112872
310.109	65060
310.139	37856
310.163	31200
310.218	19899
310.229	17813
310.272	14774
310.319	11717
310.326	11555
310.381	10044
310.409	9538
310.435	9366
310.489	8670
310.499	8590
310.543	8938
310.589	8965
310.598	9096
310.652	10207
310.679	10614
310.706	9874
310.760	8365
310.769	8054
310.814	7983
310.859	8078
310.868	8017
310.923	7603
310.948	7341
310.977	8729
311.031	11555
311.038	11913
311.085	10607
311.128	9014
311.139	9043
311.193	9244
311.218	9206
311.247	8606
311.301	7767
311.308	7611
311.356	7901
311.398	8186
311.410	8014
311.464	7049
311.488	6606
311.518	7388
311.572	8733
311.578	8875
311.626	12935
311.668	16341
311.680	15961
311.734	13923
311.758	12973
311.788	13171
311.842	13490
311.847	13475
311.896	17405
311.937	20736
311.950	20569
312.004	19497
312.027	18936
312.058	16009
312.112	10677
312.117	10113
312.165	9328
312.207	8607
312.297	15249
312.386	11540
312.476	11646
312.566	28063
312.656	13571
312.745	8345
312.835	9413
312.925	10970
313.015	9514
313.104	10192
313.194	8775
313.284	8803
313.374	14109
313.463	12289
313.553	8930
313.643	8160
313.732	7749
313.822	7430
313.912	9661
314.001	12242
314.091	13195
314.180	18072
314.270	15643
314.360	16920
314.449	15112
314.539	9741
314.628	9248
314.718	10900
314.808	13317
314.897	10170
314.987	10300
315.076	14014
315.166	17506
315.255	13940
315.345	15796
315.434	14441
315.524	13428
315.613	16230
315.703	22903
315.792	29273
315.881	75530
315.971	31282
316.060	28134
316.150	30756
316.239	30426
316.328	13464
316.418	9593
316.507	12171
316.597	16757
316.686	14503
316.775	16929
316.865	30931
316.954	10499
317.043	8296
317.133	11629
317.222	9737
317.311	8753
317.400	8898
317.490	15757
317.579	17967
317.668	12915
317.757	20852
317.847	42789
317.936	134162
318.025	64674
318.114	37049
318.203	26299
318.293	41069
318.382	93380
318.471	60638
318.560	71634
318.649	96627
318.738	23769
318.828	18249
318.917	19767
319.006	18582
319.095	39829
319.184	116495
319.273	75698
319.362	43194
319.451	17025
319.540	15345
319.629	36034
319.718	61722
319.807	26827
319.896	41466
319.985	143787
320.074	60019
320.163	17212
320.252	25998
320.341	22308
320.430	22362
320.519	32678
320.608	20206
320.697	17118
320.786	17534
320.875	22437
320.964	28762
321.053	44933
321.142	62255
321.230	64473
321.319	46202
321.408	107487
321.497	43852
321.586	43619
321.675	38944
321.764	41035
321.852	29277
321.941	63798
322.030	43111
322.119	43779
322.207	106550
322.296	56444
322.385	36639
322.474	44005
322.562	133167
322.651	66755
322.740	48037
322.829	62994
322.917	49021
323.006	36330
323.095	34291
323.183	20740
323.272	29136
323.361	47321
323.449	113840
323.538	40514
323.626	83804
323.715	51684
323.804	23079
323.892	77483
323.981	51661
324.069	16923
324.158	38161
324.246	36762
324.335	23567
324.424	40512
324.512	13636
324.601	17285
324.689	18425
324.778	22370
324.866	32363
324.954	12150
325.043	13606
325.131	21914
325.220	31857
325.308	37303
325.397	30765
325.485	20147
325.574	10750
325.662	10105
325.750	13538
325.839	10626
325.927	8874
326.015	12997
326.104	14107
326.192	19254
326.280	9677
326.369	10524
326.457	18509
326.545	32797
326.634	14254
326.722	8195
326.810	9587
326.898	10030
326.987	13647
327.075	29886
327.163	25794
327.251	10986
327.340	11860
327.428	12301
327.516	9608
327.604	11113
327.692	9886
327.781	10355
327.869	15810
327.957	13092
328.045	15094
328.133	8399
328.221	9611
328.309	11032
328.397	10420
328.485	13565
328.574	19343
328.662	69515
328.750	33043
328.838	12135
328.926	8789
329.014	8096
329.102	14731
329.190	36798
329.278	26383
329.366	7424
329.454	7145
329.542	7388
329.630	7050
329.718	8666
329.806	12154
329.893	11121
329.981	10254
330.069	12786
330.157	40876
330.245	117063
330.333	60402
330.421	15297
330.509	20000
330.597	82494
330.684	52815
330.772	18195
330.860	21809
330.948	28914
331.036	14467
331.123	7356
331.211	8384
331.299	11318
331.387	25258
331.475	44920
331.562	13925
331.650	8454
331.738	9993
331.825	11874
331.913	8215
332.001	8121
332.089	10214
332.176	18594
332.264	38633
332.352	32604
332.439	14500
332.527	11059
332.614	8597
332.702	10968
332.790	8552
332.877	21178
332.965	42019
333.052	17962
333.140	18465
333.228	45444
333.315	15133
333.403	11553
333.490	24710
333.578	27141
333.665	60106
333.753	30072
333.840	11834
333.928	13325
334.015	26867
334.103	40588
334.190	131329
334.278	40163
334.365	23363
334.452	20097
334.540	16010
334.627	17287
334.715	23632
334.802	36918
334.889	132288
334.977	137587
335.064	33854
335.151	19332
335.239	17510
335.326	21907
335.413	68999
335.501	95903
335.588	20430
335.675	17283
335.762	21074
335.850	34258
335.937	30344
336.024	55993
336.111	168815
336.199	87535
336.286	29024
336.373	17551
336.460	12280
336.547	11087
336.635	14102
336.722	13221
336.809	11318
336.896	18224
336.983	47531
337.070	108055
337.157	136996
337.245	85158
337.332	58362
337.419	11946
337.506	9872
337.593	12833
337.680	35444
337.767	109117
337.854	33272
337.941	36482
338.028	36026
338.115	14982
338.202	17676
338.289	26979
338.376	88588
338.463	31610
338.550	61106
338.637	64976
338.724	19832
338.811	28049
338.898	9301
338.984	9072
339.071	11595
339.158	13480
339.245	39392
339.332	23507
339.419	22455
339.506	20770
339.593	7049
339.679	10202
339.766	8730
339.853	13363
339.940	30872
340.027	11235
340.113	11967
340.200	16888
340.287	11295
340.374	16299
340.460	27710
340.547	12049
340.634	20113
340.720	73848
340.807	42596
340.894	8565
340.980	8953
341.067	9246
341.154	11761
341.240	17385
341.327	41690
341.414	12001
341.500	12145
341.587	10826
341.674	9633
341.760	26565
341.847	33627
341.933	11050
342.020	5813
342.106	6477
342.193	10989
342.279	21921
342.366	15027
342.452	27733
342.539	15717
342.625	34101
342.712	83586
342.798	36289
342.885	15550
342.971	6949
343.058	5731
343.144	7205
343.230	7973
343.317	8007
343.403	7483
343.490	5187
343.576	6155
343.662	8151
343.749	9558
343.835	12460
343.921	20753
344.008	103065
344.094	237906
344.180	56311
344.267	25083
344.353	70351
344.439	73613
344.525	40513
344.612	17160
344.698	16271
344.784	12034
344.870	7620
344.957	8911
345.043	16946
345.129	11879
345.215	26585
345.301	14715
345.387	9217
345.474	5829
345.560	6025
345.646	7658
345.732	7424
345.818	10135
345.904	9254
345.990	11777
346.076	10295
346.162	15097
346.249	8748
346.335	6679
346.421	8949
346.507	28232
346.593	97307
346.679	25844
346.765	10797
346.851	10635
346.937	11859
347.023	9480
347.108	11979
347.194	10332
347.280	8915
347.366	11879
347.452	32401
347.538	121726
347.624	90244
347.710	74975
347.796	13639
347.882	9610
347.967	8385
348.053	12716
348.139	8780
348.225	7259
348.311	7935
348.397	6749
348.482	11897
348.568	14722
348.654	8782
348.740	16009
348.825	19950
348.911	18596
348.997	53305
349.083	103814
349.168	19678
349.254	9187
349.340	10282
349.425	6868
349.511	12950
349.597	14059
349.682	27140
349.768	80493
349.854	37309
349.939	9502
350.025	7981
350.110	9043
350.196	7646
350.282	5490
350.367	5409
350.453	11452
350.538	12138
350.624	13107
350.709	12571
350.795	6395
350.880	8417
350.966	8645
351.051	11797
351.137	8791
351.222	9251
351.308	27149
351.393	76946
351.479	18866
351.564	8189
351.649	9248
351.735	6731
351.820	6333
351.906	8299
351.991	10187
352.076	47665
352.162	73114
352.247	16707
352.332	11903
352.418	21715
352.503	24811
352.588	113174
352.673	95112
352.759	22775
352.844	11971
352.929	14335
353.014	18957
353.100	12675
353.185	23627
353.270	35060
353.355	32986
353.441	10683
353.526	10523
353.611	28688
353.696	34225
353.781	19656
353.866	10815
353.952	11885
354.037	27812
354.122	64965
354.207	58639
354.292	23022
354.377	11063
354.462	10064
354.547	14816
354.632	12351
354.717	19352
354.802	28514
354.887	12017
354.972	7869
355.057	8035
355.142	6976
355.227	11142
355.312	20273
355.397	42710
355.482	103339
355.567	49977
355.652	35576
355.737	34462
355.822	90547
355.907	75065
355.991	15505
356.076	9503
356.161	9315
356.246	8423
356.331	11462
356.416	19231
356.501	123305
356.585	131815
356.670	25755
356.755	18957
356.840	26488
356.924	100540
357.009	323550
357.094	130840
357.179	39261
357.263	26271
357.348	24916
357.433	25785
357.517	23601
357.602	19488
357.687	16697
357.771	26632
357.856	76500
357.941	46465
358.025	73013
358.110	295049
358.195	151170
358.279	32161
358.364	25113
358.448	71288
358.533	186619
358.617	135597
358.702	129678
358.787	51190
358.871	34984
358.956	29185
359.040	11722
359.125	9024
359.209	10335
359.294	34733
359.378	62547
359.462	30203
359.547	15693
359.631	9934
359.716	8145
359.800	9291
359.885	15616
359.969	11478
360.053	8292
360.138	8691
360.222	16155
360.306	31857
360.391	23407
360.475	43031
360.559	95419
360.644	75676
360.728	52364
360.812	69692
360.896	191117
360.981	94159
361.065	56441
361.149	16956
361.233	17664
361.318	14581
361.402	16929
361.486	14132
361.570	11351
361.654	15583
361.739	36257
361.823	127290
361.907	189172
361.991	40174
362.075	29426
362.159	66264
362.243	51007
362.327	59773
362.411	70587
362.495	35712
362.580	20306
362.664	16332
362.748	18264
362.832	26744
362.916	47472
363.000	124040
363.084	241420
363.168	254799
363.252	72844
363.336	31923
363.420	35665
363.503	96183
363.587	116176
363.671	29222
363.755	23938
363.839	34564
363.923	22605
364.007	41907
364.091	43336
364.175	51804
364.258	181310
364.342	190272
364.426	249184
364.510	135688
364.594	59909
364.677	48635
364.761	167583
364.845	120831
364.929	56057
365.013	45870
365.096	36787
365.180	44306
365.264	39029
365.347	143382
365.431	66666
365.515	23718
365.598	14620
365.682	12517
365.766	20664
365.849	25934
365.933	16041
366.017	18474
366.100	15168
366.184	7231
366.267	9581
366.351	9601
366.435	9034
366.518	7912
366.602	8544
366.685	10055
366.769	12689
366.852	19944
366.936	37745
367.019	22982
367.103	16526
367.186	28936
367.270	11121
367.353	6884
367.436	9905
367.520	9810
367.603	14891
367.687	19411
367.770	39289
367.853	20497
367.937	51465
368.020	89355
368.104	25182
368.187	27524
368.270	43042
368.353	42680
368.437	37990
368.520	59508
368.603	47942
368.687	65509
368.770	128387
368.853	36608
368.936	35573
369.020	35566
369.103	15880
369.186	11823
369.269	13860
369.352	25034
369.436	34714
369.519	23833
369.602	14198
369.685	13313
369.768	14835
369.851	11257
369.934	8350
370.018	13074
370.101	31494
370.184	24345
370.267	17789
370.350	38561
370.433	50815
370.516	96552
370.599	120314
370.682	43951
370.765	79165
370.848	83436
370.931	141843
371.014	55671
371.097	14693
371.180	12179
371.263	8114
371.346	6280
371.429	8487
371.511	8718
371.594	20653
371.677	30124
371.760	30846
371.843	27246
371.926	107268
372.009	251750
372.091	87328
372.174	55770
372.257	122471
372.340	50144
372.423	45066
372.505	50791
372.588	22054
372.671	45539
372.754	143275
372.836	71787
372.919	47556
373.002	98447
373.085	35062
373.167	28424
373.250	67111
373.332	129357
373.415	160292
373.498	332208
373.580	133313
373.663	166424
373.746	224887
373.828	59539
373.911	28201
373.993	28005
374.076	89924
374.159	84001
374.241	39473
374.324	128659
374.406	85081
374.489	89874
374.571	263761
374.654	113812
374.736	53740
374.819	158761
374.901	228680
374.983	240571
375.066	49871
375.148	20554
375.231	69163
375.313	139582
375.395	59081
375.478	16547
375.560	12956
375.643	17879
375.725	48216
375.807	198557
375.890	151680
375.972	61581
376.054	39625
376.136	48954
376.219	24447
376.301	55578
376.383	173753
376.465	70154
376.548	54521
376.630	54945
376.712	151671
376.794	70952
376.877	12381
376.959	8565
377.041	11225
377.123	22308
377.205	26556
377.287	7135
377.369	7293
377.452	8363
377.534	8770
377.616	8588
377.698	9198
377.780	7424
377.862	10199
377.944	10473
378.026	5735
378.108	7294
378.190	7380
378.272	7210
378.354	6112
378.436	5989
378.518	14652
378.600	51510
378.682	42233
378.764	91255
378.846	71570
378.928	22192
379.010	36476
379.091	18901
379.173	9726
379.255	8652
379.337	13608
379.419	41122
379.501	126978
379.583	50355
379.664	14880
379.746	35906
379.828	92108
379.910	121626
379.991	105638
380.073	19634
380.155	14595
380.237	11620
380.318	9447
380.400	10861
380.482	23729
380.564	37282
380.645	38665
380.727	37808
380.809	22256
380.890	16608
380.972	11795
381.053	11049
381.135	14118
381.217	31989
381.298	100939
381.380	51562
381.461	36493
381.543	147995
381.624	187706
381.706	40127
381.787	26203
381.869	28021
381.951	65122
382.032	242635
382.113	166946
382.195	47131
382.276	32786
382.358	59484
382.439	143479
382.521	147142
382.602	233625
382.684	117890
382.765	220784
382.846	287500
382.928	436361
383.009	252151
383.090	193451
383.172	568229
383.253	775517
383.334	291787
383.416	246437
383.497	139049
383.578	94601
383.659	172458
383.741	500284
383.822	1023917
383.903	568062
383.984	219386
384.066	296576
384.147	190953
384.228	50097
384.309	41095
384.390	32814
384.471	25542
384.553	25585
384.634	33642
384.715	34200
384.796	19326
384.877	22942
384.958	83473
385.039	106849
385.120	43369
385.201	20985
385.282	25355
385.363	26173
385.444	25460
385.525	44510
385.606	121639
385.687	95277
385.768	28541
385.849	33728
385.930	121198
386.011	204088
386.092	61028
386.173	20802
386.254	15892
386.335	16639
386.416	18965
386.496	60933
386.577	98082
386.658	36879
386.739	25210
386.820	22214
386.901	17920
386.981	17291
387.062	14151
387.143	24351
387.224	90990
387.304	85962
387.385	35551
387.466	27750
387.547	32408
387.627	25512
387.708	35778
387.789	143060
387.869	174975
387.950	49855
388.031	13957
388.111	13520
388.192	30444
388.273	42916
388.353	27672
388.434	18627
388.514	30092
388.595	117949
388.676	169064
388.756	91792
388.837	92504
388.917	59746
388.998	15988
389.078	14772
389.159	12643
389.239	12501
389.320	22051
389.400	19088
389.480	31655
389.561	89917
389.641	45748
389.722	20298
389.802	33886
389.883	37282
389.963	99256
390.043	62432
390.124	23097
390.204	38340
390.284	112123
390.365	68468
390.445	67148
390.525	147645
390.605	129626
390.686	58085
390.766	26825
390.846	15103
390.927	10966
391.007	12938
391.087	15096
391.167	21298
391.247	15215
391.328	17283
391.408	25791
391.488	20740
391.568	9226
391.648	17209
391.728	25259
391.808	23061
391.888	25744
391.969	51737
392.049	86002
392.129	39598
392.209	41429
392.289	101599
392.369	59581
392.449	52648
392.529	37731
392.609	33546
392.689	38416
392.769	102488
392.849	94210
392.929	71917
393.009	155620
393.089	141086
393.169	153426
393.248	389236
393.328	950940
393.408	1005883
393.488	423056
393.568	157462
393.648	82370
393.728	52645
393.807	37696
393.887	32285
393.967	27717
394.047	30118
394.127	34916
394.206	48402
394.286	127359
394.366	493292
394.446	562323
394.525	164948
394.605	50303
394.685	37614
394.764	67239
394.844	113919
394.924	86834
395.003	33535
395.083	23003
395.163	20562
395.242	18957
395.322	20255
395.402	16086
395.481	19826
395.561	46703
395.640	134310
395.720	120533
395.799	135847
395.879	105060
395.958	66712
396.038	192012
396.117	629751
396.197	719160
396.276	274840
396.356	105608
396.435	77762
396.515	60800
396.594	74441
396.673	130561
396.753	367425
396.832	888255
396.912	736975
396.991	242049
397.070	81105
397.150	47145
397.229	34032
397.308	48763
397.388	91151
397.467	49030
397.546	21247
397.625	14533
397.705	21046
397.784	21912
397.863	13224
397.942	10205
398.022	11279
398.101	33808
398.180	103155
398.259	54559
398.338	18072
398.417	14988
398.497	10342
398.576	11457
398.655	8641
398.734	7807
398.813	8011
398.892	29149
398.971	107422
399.050	53901
399.129	9911
399.208	7457
399.287	8181
399.366	7169
399.445	6929
399.524	7250
399.603	7562
399.682	16636
399.761	39554
399.840	111231
399.919	85175
399.998	13101
400.077	6333
400.156	5614
400.235	8882
400.313	6790
400.392	9862
400.471	49244
400.550	84877
400.629	23697
400.708	11130
400.786	9885
400.865	25509
400.944	31176
401.023	15259
401.102	4889
401.180	4359
401.259	4974
401.338	7904
401.416	12246
401.495	10549
401.574	8192
401.652	7296
401.731	11374
401.810	11475
401.888	6602
401.967	4244
402.046	10500
402.124	11941
402.203	15197
402.281	9610
402.360	14816
402.438	36129
402.517	24533
402.596	8945
402.674	7999
402.753	5949
402.831	5739
402.910	7422
402.988	30086
403.066	114278
403.145	64798
403.223	35120
403.302	97761
403.380	71923
403.459	75594
403.537	30194
403.615	12799
403.694	5313
403.772	4634
403.850	4664
403.929	4568
404.007	5345
404.085	16384
404.164	20547
404.242	8180
404.320	14368
404.398	45395
404.477	61829
404.555	184821
404.633	165144
404.711	44788
404.789	21944
404.868	11083
404.946	7305
405.024	4286
405.102	4752
405.180	4541
405.258	4026
405.336	5807
405.415	5360
405.493	15401
405.571	14674
405.649	5716
405.727	9362
405.805	19015
405.883	11656
405.961	9762
406.039	11585
406.117	6259
406.195	11376
406.273	43618
406.351	168102
406.429	98722
406.507	18842
406.585	8830
406.663	8632
406.740	12839
406.818	11236
406.896	6613
406.974	6995
407.052	14952
407.130	98792
407.208	143732
407.285	28086
407.363	6405
407.441	7774
407.519	6058
407.596	9111
407.674	27681
407.752	102185
407.830	91196
407.907	27391
407.985	11156
408.063	5470
408.141	4633
408.218	10657
408.296	12755
408.373	10421
408.451	10152
408.529	10201
408.606	4664
408.684	4249
408.762	3715
408.839	3306
408.917	3774
408.994	4657
409.072	6986
409.149	7055
409.227	14069
409.304	18343
409.382	14728
409.459	15282
409.537	22966
409.614	21883
409.692	16418
409.769	15099
409.846	21829
409.924	31644
410.001	28360
410.079	18627
410.156	13504
410.233	11201
410.311	8924
410.388	7698
410.465	12589
410.543	13983
410.620	6852
410.697	8955
410.775	11489
410.852	6038
410.929	12001
411.006	16918
411.083	11136
411.161	30412
411.238	28060
411.315	11092
411.392	6563
411.469	14644
411.547	17691
411.624	9285
411.701	7692
411.778	7951
411.855	19761
411.932	10706
412.009	5508
412.086	5023
412.163	6699
412.240	7808
412.317	11657
412.394	11961
412.471	4307
412.548	3681
412.625	5031
412.702	7034
412.779	18087
412.856	12396
412.933	3793
413.010	3977
413.087	9042
413.164	51087
413.241	73852
413.318	18735
413.395	12097
413.471	20673
413.548	8469
413.625	5179
413.702	6622
413.779	5035
413.855	2102
413.932	1595
414.009	2361
414.086	3185
414.162	3182
414.239	7597
414.316	42957
414.393	103644
414.469	35745
414.546	4210
414.623	3316
414.699	3921
414.776	6891
414.853	4431
414.929	4612
415.006	4738
415.082	5771
415.159	5188
415.236	4383
415.312	5199
415.389	11578
415.465	17479
415.542	9380
415.618	4686
415.695	11033
415.771	7120
415.848	6700
415.924	5599
416.000	4319
416.077	4023
416.153	903
416.230	994
416.306	1599
416.383	2317
416.459	2500
416.535	1564
416.612	1852
416.688	2828
416.764	2927
416.841	2933
416.917	3408
416.993	3677
417.069	5117
417.146	8939
417.222	12312
417.298	7135
417.374	3779
417.451	5287
417.527	8195
417.603	9437
417.679	5710
417.755	4706
417.831	2521
417.908	2340
417.984	2717
418.060	2845
418.136	14441
418.212	19684
418.288	7418
418.364	3531
418.440	4724
418.516	9314
418.592	10561
418.668	23367
418.744	36731
418.820	26976
418.896	6552
418.972	2757
419.048	4587
419.124	15078
419.200	13377
419.276	4393
419.352	2398
419.428	2832
419.504	4519
419.579	7659
419.655	5120
419.731	6255
419.807	22202
419.883	42456
419.959	28584
420.034	7645
420.110	14541
420.186	64609
420.262	48529
420.337	10978
420.413	8120
420.489	4482
420.565	4298
420.640	4263
420.716	6382
420.792	3625
420.867	6589
420.943	6149
421.019	12635
421.094	10380
421.170	5837
421.245	4964
421.321	7169
421.397	8855
421.472	20162
421.548	61321
421.623	41320
421.699	14902
421.774	14274
421.850	13808
421.925	22265
422.001	21898
422.076	20408
422.152	25414
422.227	39267
422.302	48768
422.378	71415
422.453	127428
422.529	263249
422.604	497822
422.679	549407
422.755	529216
422.830	301161
422.905	137994
422.981	79766
423.056	52471
423.131	37807
423.207	28985
423.282	27542
423.357	36121
423.432	26746
423.508	23161
423.583	43480
423.658	33267
423.733	13569
423.808	14912
423.883	16736
423.959	15043
424.034	12908
424.109	11146
424.184	7338
424.259	6390
424.334	5768
424.409	5238
424.484	5246
424.559	6588
424.634	6097
424.709	9369
424.784	10518
424.859	7492
424.934	11440
425.009	46489
425.084	78910
425.159	27170
425.234	6004
425.309	3652
425.384	17947
425.459	31989
425.534	10350
425.609	4643
425.683	3999
425.758	3633
425.833	4542
425.908	6893
425.983	27369
426.058	85195
426.132	35911
426.207	7241
426.282	9694
426.357	10040
426.431	3459
426.506	3212
426.581	3902
426.655	3724
426.730	3811
426.805	4727
426.879	6072
426.954	5055
427.029	11684
427.103	62954
427.178	151417
427.253	63281
427.327	8935
427.402	11490
427.476	35964
427.551	16961
427.625	5445
427.700	6296
427.774	3293
427.849	5597
427.923	3754
427.998	4196
428.072	5849
428.147	13999
428.221	62815
428.296	189332
428.370	99064
428.444	15420
428.519	13193
428.593	27217
428.667	22148
428.742	27961
428.816	29819
428.890	118034
428.965	191280
429.039	58618
429.113	31668
429.188	13457
429.262	5334
429.336	12011
429.410	37509
429.485	23649
429.559	21883
429.633	17718
429.707	8237
429.781	23400
429.855	128734
429.930	198502
430.004	87006
430.078	113390
430.152	111576
430.226	221230
430.300	222465
430.374	41499
430.448	15169
430.522	37877
430.596	104684
430.670	68046
430.744	177845
430.818	244528
430.892	49191
430.966	10528
431.040	5655
431.114	3128
431.188	2921
431.262	3446
431.336	3043
431.410	10872
431.484	33819
431.557	23052
431.631	4981
431.705	7331
431.779	35563
431.853	162069
431.927	111884
432.000	14772
432.074	4626
432.148	5777
432.222	4634
432.295	2362
432.369	3225
432.443	7827
432.516	52434
432.590	137292
432.664	49998
432.737	6872
432.811	1986
432.885	978
432.958	2448
433.032	2020
433.106	804
433.179	986
433.253	2398
433.326	1943
433.400	994
433.473	1645
433.547	302
433.620	1576
433.694	8676
433.767	7576
433.841	1643
433.914	1209
433.988	1801
434.061	3456
434.134	2985
434.208	708
434.281	494
434.355	1877
434.428	2311
434.501	1877
434.575	1779
434.648	1991
434.721	1363
434.795	1359
434.868	777
434.941	1060
435.014	1527
435.088	2430
435.161	4840
435.234	10775
435.307	12974
435.381	7591
435.454	6978
435.527	7762
435.600	9172
435.673	9104
435.746	5953
435.819	4950
435.892	4821
435.966	3061
436.039	2888
436.112	2996
436.185	1139
436.258	1571
436.331	911
436.404	1257
436.477	999
436.550	636
436.623	1503
436.696	730
436.769	3541
436.842	2585
436.915	2527
436.987	5792
437.060	1844
437.133	1209
437.206	1212
437.279	2225
437.352	1024
437.425	1455
437.498	2448
437.570	10051
437.643	9191
437.716	2032
437.789	2179
437.861	12170
437.934	39546
438.007	15871
438.080	2417
438.152	3930
438.225	8619
438.298	63194
438.370	177276
438.443	81745
438.516	30752
438.588	6516
438.661	1690
438.734	2633
438.806	3635
438.879	4222
438.951	9060
439.024	19142
439.096	5214
439.169	884
439.241	1043
439.314	1861
439.386	3929
439.459	7528
439.531	15535
439.604	6117
439.676	1924
439.749	1019
439.821	507
439.893	1018
439.966	1879
440.038	5049
440.110	6221
440.183	3069
440.255	930
440.327	4678
440.400	27674
440.472	121943
440.544	74506
440.617	11620
440.689	13317
440.761	18713
440.833	31632
440.905	17650
440.978	2508
441.050	1426
441.122	1449
441.194	1167
441.266	1361
441.338	2227
441.411	5479
441.483	43813
441.555	64447
441.627	13317
441.699	7898
441.771	6531
441.843	2802
441.915	1346
441.987	2342
442.059	2762
442.131	4709
442.203	8401
442.275	10887
442.347	10486
442.419	19569
442.491	96114
442.563	228634
442.635	91721
442.706	40312
442.778	27476
442.850	7468
442.922	4179
442.994	5605
443.066	10201
443.137	9347
443.209	8373
443.281	14914
443.353	32891
443.425	116512
443.496	370381
443.568	365126
443.640	135569
443.711	28044
443.783	13784
443.855	8194
443.926	5154
443.998	6055
444.070	6622
444.141	7045
444.213	10877
444.285	11615
444.356	8029
444.428	6794
444.499	4926
444.571	3076
444.642	3432
444.714	4121
444.785	9703
444.857	9932
444.928	21971
445.000	12704
445.071	16522
445.143	20462
445.214	18602
445.285	29292
445.357	78967
445.428	239562
445.500	482315
445.571	334408
445.642	191031
445.714	66646
445.785	45041
445.856	16436
445.928	16065
445.999	15846
446.070	13102
446.141	9504
446.213	11491
446.284	6574
446.355	6326
446.426	3317
446.497	3855
446.569	6988
446.640	12349
446.711	8880
446.782	2823
446.853	3721
446.924	4642
446.995	4607
447.066	3544
447.138	7096
447.209	3874
447.280	1152
447.351	1220
447.422	1316
447.493	3768
447.564	5446
447.635	7839
447.706	2088
447.777	1474
447.847	199
447.918	591
447.989	3747
448.060	5434
448.131	12603
448.202	12415
448.273	8948
448.344	2452
448.414	2015
448.485	1519
448.556	865
448.627	708
448.698	427
448.768	490
448.839	1503
448.910	7369
448.981	5965
449.051	2697
449.122	1433
449.193	838
449.263	489
449.334	1079
449.405	3547
449.475	11624
449.546	5442
449.616	7322
449.687	6531
449.758	913
449.828	853
449.899	610
449.969	727
450.040	16
450.110	1798
450.181	2308
450.251	1565
450.322	1010
450.392	1374
450.463	1615
450.533	284
450.604	1499
450.674	1441
450.744	1892
450.815	1009
450.885	2209
450.955	1620
451.026	1400
451.096	1030
451.166	2202
451.237	7616
451.307	20458
451.377	6196
451.447	2182
451.518	855
451.588	1658
451.658	1245
451.728	3850
451.799	21756
451.869	22153
451.939	4103
452.009	1449
452.079	1369
452.149	1926
452.219	5115
452.289	24381
452.360	15975
452.430	3415
452.500	3407
452.570	6346
452.640	9600
452.710	28391
452.780	37353
452.850	27273
452.920	22303
452.990	7397
453.060	4860
453.129	6563
453.199	7734
453.269	24712
453.339	49884
453.409	75101
453.479	82592
453.549	116970
453.619	125963
453.688	40472
453.758	6171
453.828	2797
453.898	1816
453.968	1973
454.037	1505
454.087	1077
454.107	889
454.168	1358
454.177	1420
454.247	1306
454.249	1312
454.316	1141
454.330	1297
454.386	1857
454.411	5278
454.456	10956
454.492	14072
454.525	16898
454.574	8009
454.595	4124
454.655	1506
454.665	1094
454.734	1631
454.736	1746
454.804	5423
454.817	8278
454.873	20055
454.898	20583
454.943	21464
454.979	13149
455.013	5661
455.060	3566
455.082	2764
455.141	3874
455.152	4034
455.221	15265
455.222	15459
455.291	30407
455.303	30955
455.360	32114
455.384	49933
455.430	82010
455.465	59423
455.499	38082
455.546	26667
455.569	21361
455.627	12676
455.638	11115
455.707	2467
455.708	2477
455.777	1688
455.789	1767
455.846	2117
455.869	1778
455.916	1103
455.950	1521
455.985	1880
456.031	1836
456.054	1792
456.112	1607
456.124	1598
456.193	1143
456.193	1122
456.262	1323
456.274	1512
456.332	2459
456.355	2594
456.401	2789
456.436	2646
456.470	2397
456.516	1306
456.540	854
456.597	605
456.609	548
456.678	1401
456.678	1392
456.747	705
456.759	812
456.817	1427
456.840	1366
456.886	1103
456.920	1331
456.955	1624
457.001	1796
457.024	1836
457.082	2205
457.093	2301
457.162	3594
457.163	3607
457.232	3462
457.243	3258
457.301	2437
457.324	2323
457.370	2225
457.405	2497
457.439	2639
457.485	2165
457.508	2124
457.566	3231
457.577	3436
457.646	3859
457.647	3897
457.715	7799
457.727	8671
457.784	13921
457.808	18965
457.853	26788
457.889	32847
457.922	35613
457.969	24467
457.991	22166
458.050	23523
458.060	23778
458.129	41352
458.130	41855
458.198	53313
458.211	48479
458.267	26521
458.292	18953
458.336	10532
458.372	9350
458.405	10941
458.453	15256
458.474	18883
458.533	35945
458.543	37699
458.611	73566
458.614	73869
458.680	57657
458.694	47783
458.749	19670
458.775	14182
458.818	7726
458.855	5899
458.887	4673
458.936	3496
458.955	3070
459.016	2672
459.024	2730
459.093	3621
459.097	3673
459.162	3913
459.177	3931
459.230	4040
459.257	4523
459.299	5393
459.338	5337
459.368	5065
459.418	6239
459.437	6329
459.499	4973
459.505	4918
459.574	2932
459.579	2924
459.643	2714
459.659	2594
459.711	2731
459.740	3110
459.780	3297
459.820	3597
459.849	3938
459.900	3659
459.917	3528
459.981	4149
459.986	4171
460.054	3475
460.061	3469
460.123	3529
460.141	3534
460.191	3948
460.222	4315
460.260	4786
460.302	6026
460.328	6147
460.382	4836
460.397	4762
460.462	4338
460.465	4457
460.534	8301
460.543	8867
460.602	27433
460.623	34695
460.671	52544
460.703	73974
460.739	76157
460.783	66095
460.808	57033
460.864	13492
460.876	8897
460.944	3956
460.945	3904
461.013	3764
461.024	3723
461.081	3852
461.104	4221
461.150	4544
461.184	4223
461.218	3496
461.264	3040
461.286	3386
461.345	3744
461.355	3643
461.423	3739
461.425	3719
461.491	3345
461.505	3404
461.559	5524
461.585	6577
461.628	9344
461.665	12899
461.696	14785
461.745	20412
461.764	19952
461.825	8393
461.832	7760
461.901	4201
461.905	4181
461.969	4369
461.985	4321
462.037	4395
462.065	4345
462.105	4023
462.145	4013
462.173	5199
462.225	7250
462.241	7887
462.305	12849
462.310	12721
462.378	9298
462.385	8420
462.446	5170
462.465	5065
462.514	4823
462.545	4598
462.582	4370
462.625	4349
462.650	4247
462.705	3689
462.718	3677
462.785	4021
462.786	4048
462.854	5315
462.865	5608
462.922	6738
462.945	7325
462.990	6557
463.025	4906
463.058	4490
463.104	4361
463.126	4002
463.184	3620
463.194	3755
463.262	4318
463.264	4352
463.330	4361
463.344	4218
463.398	4713
463.424	5088
463.466	4790
463.504	4663
463.533	5019
463.583	5238
463.601	5201
463.663	4966
463.669	4995
463.737	5724
463.743	5796
463.805	9017
463.823	9976
463.873	13592
463.903	15996
463.940	17097
463.982	19299
464.008	17138
464.062	8979
464.076	8272
464.142	5147
464.144	5108
464.211	4938
464.221	4936
464.279	4610
464.301	4529
464.347	5082
464.381	5438
464.414	5481
464.461	5661
464.482	6153
464.540	7472
464.550	7399
464.617	6736
464.620	6706
464.685	7005
464.699	6979
464.753	7775
464.779	8359
464.820	8896
464.859	9208
464.888	8776
464.938	7965
464.956	8335
465.018	9937
465.023	9789
465.091	7383
465.098	7134
465.158	7770
465.177	7995
465.226	7740
465.257	7490
465.293	7276
465.336	6928
465.361	7383
465.416	8584
465.428	9059
465.495	11763
465.496	11813
465.563	16690
465.575	17651
465.631	21505
465.654	23406
465.698	16780
465.734	9813
465.765	8432
465.813	6885
465.833	6872
465.893	7381
465.900	7347
465.968	6796
465.972	6761
466.035	6700
466.052	6615
466.102	7321
466.131	7765
466.170	7362
466.210	6889
466.237	7392
466.290	8387
466.304	8307
466.369	7791
466.372	7801
466.439	7742
466.449	7709
466.506	7551
466.528	7503
466.573	10626
466.607	12942
466.641	17543
466.687	23938
466.708	26642
466.766	34427
466.775	32186
466.842	14606
466.845	13744
466.909	10653
466.925	10028
466.977	9741
467.004	9612
467.044	9970
467.083	10325
467.111	11326
467.163	13124
467.178	13316
467.242	14030
467.245	13976
467.312	12367
467.321	12135
467.379	11881
467.400	11753
467.446	12002
467.480	12147
467.559	11719
467.638	10745
467.717	11586
467.796	11883
467.875	12437
467.955	11778
468.034	15801
468.113	29428
468.192	41954
468.271	17540
468.350	13533
468.429	15551
468.508	16927
468.588	13488
468.667	11192
468.746	10954
468.825	10752
468.904	9705
468.983	10931
469.062	14193
469.141	17984
469.220	9771
469.299	8406
469.378	9528
469.456	13775
469.535	11703
469.614	11090
469.693	10769
469.772	12722
469.851	15676
469.930	14324
470.009	10714
470.088	10143
470.166	11692
470.245	14081
470.324	16268
470.403	13841
470.482	11794
470.560	10944
470.639	10914
470.718	12277
470.797	10180
470.875	11647
470.954	13419
471.033	14391
471.111	9051
471.190	8350
471.269	7556
471.347	8940
471.426	8967
471.505	11271
471.583	10983
471.662	11277
471.740	9829
471.819	9959
471.898	8803
471.976	9887
472.055	8476
472.133	11897
472.212	13488
472.290	13796
472.369	8696
472.447	8717
472.526	8423
472.604	9771
472.683	9745
472.761	10469
472.839	9621
472.918	8803
472.996	8830
473.075	10069
473.153	10694
473.231	9337
473.310	9880
473.388	10562
473.466	9911
473.545	10808
473.623	13759
473.701	13208
473.780	10094
473.858	8336
473.936	10318
474.014	9218
474.093	11042
474.171	13911
474.249	16358
474.327	12647
474.405	8127
474.484	8726
474.562	8455
474.640	8662
474.718	9300
474.796	9068
474.874	8212
474.952	7779
475.030	7824
475.108	7602
475.187	8181
475.265	10142
475.343	13070
475.421	15695
475.499	8491
475.577	10265
475.655	10325
475.733	17112
475.811	25625
475.889	24525
475.966	18929
476.044	8853
476.122	10797
476.200	13572
476.278	11535
476.356	8065
476.434	8993
476.512	11623
476.590	13025
476.667	12219
476.745	8671
476.823	9562
476.901	9075
476.979	9528
477.056	9107
477.134	8802
477.212	8898
477.290	8773
477.367	6731
477.445	7693
477.523	7059
477.601	7936
477.678	8820
477.756	9852
477.834	10155
477.911	8333
477.989	7907
478.066	8988
478.144	8776
478.222	10910
478.299	15657
478.377	15884
478.454	9435
478.532	8299
478.609	8031
478.687	9793
478.764	8250
478.842	8997
478.919	8905
478.997	8892
479.074	7396
479.152	9123
479.229	10063
479.307	7721
479.384	8032
479.461	8003
479.539	7878
479.616	8885
479.694	8364
479.771	8417
479.848	7598
479.926	10377
480.003	12702
480.080	8370
480.157	6702
480.235	7322
480.312	8160
480.389	8264
480.467	10768
480.544	13450
480.621	8965
480.698	9722
480.775	9726
480.853	9560
480.930	7904
481.007	9459
481.084	11100
481.161	14212
481.238	11916
481.315	8025
481.392	7562
481.470	7029
481.547	7714
481.624	7669
481.701	7374
481.778	7856
481.855	7774
481.932	11956
482.009	17585
482.086	14964
482.163	9359
482.240	11634
482.317	19642
482.393	17702
482.470	10003
482.547	9257
482.624	8653
482.701	10471
482.778	8685
482.855	7956
482.932	7734
483.009	7869
483.085	9405
483.162	14445
483.239	13230
483.316	8857
483.393	9064
483.469	8844
483.546	9418
483.623	9536
483.699	7776
483.776	8808
483.853	8920
483.930	10887
484.006	23723
484.083	41871
484.160	28680
484.236	39269
484.313	30872
484.389	25266
484.466	21491
484.543	20845
484.619	20984
484.696	24318
484.772	22086
484.849	22609
484.925	20112
485.002	19656
485.078	21002
485.155	22724
485.231	19206
485.308	17874
485.384	17713
485.461	20870
485.537	29023
485.614	35715
485.690	19706
485.766	18285
485.843	19310
485.919	24658
485.995	25194
486.072	17174
486.148	17111
486.224	15759
486.301	17237
486.377	21415
486.453	22246
486.530	21473
486.606	23527
486.682	27700
486.758	28018
486.835	33038
486.911	25985
486.987	37232
487.063	44456
487.139	54332
487.215	43328
487.292	27280
487.368	21093
487.444	24906
487.520	32662
487.596	34442
487.672	48248
487.748	127596
487.824	207912
487.900	95343
487.976	33508
488.052	27494
488.128	31554
488.204	25216
488.280	18989
488.356	19956
488.432	32768
488.508	48295
488.584	23166
488.660	17946
488.736	17169
488.812	17425
488.888	21231
488.964	25236
489.039	46860
489.115	76596
489.191	54557
489.267	19397
489.343	15957
489.418	15756
489.494	14703
489.570	13209
489.646	15865
489.722	14226
489.797	14836
489.873	19704
489.949	34418
490.024	34804
490.100	14251
490.176	13840
490.251	17515
490.327	21068
490.403	14979
490.478	15123
490.554	11500
490.629	13001
490.705	12152
490.781	14017
490.856	13398
490.932	14823
491.007	14982
491.083	12877
491.158	13105
491.234	15072
491.309	27304
491.385	30801
491.460	13854
491.536	14131
491.611	13643
491.686	13080
491.762	17458
491.837	30654
491.913	53026
491.988	69237
492.063	94214
492.139	32316
492.214	18087
492.289	13618
492.365	11210
492.440	13695
492.515	12510
492.590	14089
492.666	11472
492.741	13849
492.816	17911
492.891	14184
492.967	12768
493.042	12058
493.117	11995
493.192	13903
493.267	23309
493.342	80212
493.418	128434
493.493	28905
493.568	10855
493.643	10949
493.718	12935
493.793	17062
493.868	19861
493.943	15368
494.018	12313
494.093	10548
494.168	10547
494.243	10283
494.318	9944
494.393	9317
494.468	9401
494.543	10152
494.618	10276
494.693	10277
494.768	9540
494.842	10139
494.917	9720
494.992	10109
495.067	9322
495.142	9228
495.217	10246
495.292	9977
495.366	11485
495.441	12515
495.516	16305
495.591	19605
495.665	60618
495.740	150047
495.815	87002
495.890	17240
495.964	11433
496.039	15388
496.114	13633
496.188	17522
496.263	17600
496.338	12718
496.412	12915
496.487	15289
496.561	14552
496.636	16327
496.710	13556
496.785	14012
496.860	15666
496.934	13489
497.009	13146
497.083	13011
497.158	12715
497.232	14484
497.307	16448
497.381	15336
497.455	15348
497.530	20028
497.604	16229
497.679	16200
497.753	21426
497.827	27075
497.902	22115
497.976	24611
498.050	50132
498.125	186765
498.199	241417
498.273	43926
498.348	27534
498.422	23882
498.496	23430
498.570	22905
498.645	17433
498.719	15499
498.793	17723
498.867	23464
498.941	31332
499.016	75727
499.090	218027
499.164	115680
499.238	16532
499.312	14088
499.386	17371
499.460	16800
499.534	15166
499.609	17631
499.683	21106
499.757	20866
499.831	34769
499.905	138594
499.979	170802
500.053	30691
500.127	27635
500.201	21633
500.275	14966
500.349	14915
500.422	15403
500.496	20169
500.570	39312
500.644	88028
500.718	165486
500.792	57960
500.866	14328
500.940	16521
501.013	15610
501.087	14490
501.161	23351
501.235	29792
501.309	47553
501.382	135756
501.456	151689
501.530	34592
501.603	48475
501.677	28808
501.751	10350
501.825	14291
501.898	21146
501.972	56590
502.046	49283
502.119	13729
502.193	26122
502.266	62405
502.340	41728
502.413	27660
502.487	55843
502.561	35973
502.634	14795
502.708	12084
502.781	10441
502.855	11768
502.928	7718
503.002	9365
503.075	8528
503.149	9149
503.222	9830
503.295	11119
503.369	11839
503.442	13438
503.516	38955
503.589	106824
503.662	85017
503.736	28457
503.809	50283
503.882	53374
503.956	63890
504.029	80756
504.102	80101
504.175	123921
504.249	58228
504.322	25889
504.395	17701
504.468	13113
504.542	10385
504.615	8776
504.688	9075
504.761	7889
504.834	10400
504.907	12201
504.980	20459
505.053	13018
505.127	12235
505.200	17611
505.273	11862
505.346	10478
505.419	7310
505.492	9023
505.565	6788
505.638	7155
505.711	7072
505.784	6525
505.857	5943
505.930	9128
506.003	6607
506.076	9743
506.149	8625
506.221	10401
506.294	12259
506.367	21366
506.440	77523
506.513	60224
506.586	13231
506.659	8582
506.731	7771
506.804	8976
506.877	11305
506.950	10703
507.022	8072
507.095	7613
507.168	10833
507.241	8875
507.313	6242
507.386	8177
507.459	10653
507.531	7732
507.604	6487
507.677	7432
507.749	6586
507.822	9434
507.894	15523
507.967	23053
508.040	13635
508.112	13329
508.185	11880
508.257	10119
508.330	17314
508.402	12517
508.475	10216
508.547	11162
508.620	10915
508.692	15164
508.765	11995
508.837	7885
508.909	8958
508.982	8828
509.054	9755
509.127	8760
509.199	7503
509.271	8563
509.344	7659
509.416	8429
509.488	8700
509.560	9273
509.633	8530
509.705	10278
509.777	9872
509.849	13490
509.922	10834
509.994	9851
510.066	9216
510.138	9186
510.210	18483
510.283	17152
510.355	14530
510.427	12424
510.499	11751
510.571	11551
510.643	11641
510.715	19136
510.787	15822
510.859	12240
510.931	13430
511.003	18476
511.076	18588
511.148	10064
511.219	9302
511.291	14598
511.363	18214
511.435	11434
511.507	9533
511.579	10005
511.651	10021
511.723	9458
511.795	9237
511.867	9488
511.939	10679
512.010	17143
512.082	18366
512.154	9265
512.226	11120
512.298	14329
512.369	21738
512.441	17261
512.513	15135
512.585	11378
512.656	13775
512.728	13822
512.800	12335
512.871	12236
512.943	11651
513.015	9994
513.086	11828
513.158	11609
513.230	11116
513.301	14547
513.373	17525
513.444	12781
513.516	10234
513.588	10296
513.659	11043
513.731	12626
513.802	12084
513.874	21329
513.945	38696
514.016	18543
514.088	10225
514.159	10946
514.231	14973
514.302	20117
514.374	15590
514.445	11895
514.516	23094
514.588	20563
514.659	13333
514.730	19944
514.802	20595
514.873	13095
514.944	15007
515.016	14203
515.087	14108
515.158	16991
515.229	23813
515.301	13476
515.372	16107
515.443	12634
515.514	11169
515.585	10363
515.656	12481
515.728	11738
515.799	10303
515.870	13088
515.941	13547
516.012	12636
516.083	16912
516.154	16943
516.225	20043
516.296	21474
516.367	17991
516.438	19800
516.509	22236
516.580	32026
516.651	86620
516.722	310898
516.793	209973
516.864	38960
516.935	33089
517.006	33545
517.077	41568
517.148	89230
517.219	293232
517.289	577783
517.360	181293
517.431	65801
517.502	22056
517.573	21383
517.643	18763
517.714	21614
517.785	21736
517.856	22750
517.926	27751
517.997	30307
518.068	31223
518.138	40405
518.209	55671
518.280	185178
518.350	707426
518.421	419836
518.492	60778
518.562	35830
518.633	33533
518.703	36287
518.774	62976
518.845	142867
518.915	166788
518.986	60541
519.056	33708
519.127	39934
519.197	52981
519.268	100842
519.338	86548
519.408	25875
519.479	28894
519.549	24335
519.620	17982
519.690	14598
519.760	13639
519.831	14383
519.901	15212
519.971	14053
520.042	14231
520.112	16390
520.182	17428
520.253	19729
520.323	14913
520.393	19226
520.463	32188
520.534	20497
520.604	40612
520.674	24486
520.744	18395
520.814	41658
520.885	44365
520.955	33162
521.025	106881
521.095	66315
521.165	16516
521.235	13380
521.305	12069
521.375	12605
521.445	14285
521.515	17064
521.585	19783
521.655	19724
521.725	15536
521.795	16014
521.865	10350
521.935	17336
522.005	15882
522.075	11374
522.145	13847
522.215	15180
522.285	17395
522.355	20930
522.424	32554
522.494	32987
522.564	20136
522.634	29628
522.704	90457
522.774	52561
522.843	14215
522.913	14679
522.983	16712
523.053	14297
523.122	13813
523.192	16381
523.262	42891
523.331	56775
523.401	17349
523.471	11786
523.540	11835
523.610	10998
523.680	10744
523.749	11944
523.819	14732
523.888	14549
523.958	12097
524.027	11748
524.097	12947
524.166	11086
524.236	11029
524.305	14123
524.375	10390
524.444	10600
524.514	13914
524.583	12298
524.653	12477
524.722	15043
524.791	11045
524.861	12782
524.930	10579
524.999	11809
525.069	15627
525.138	14409
525.207	14141
525.277	13605
525.346	13095
525.415	13467
525.484	13032
525.554	14886
525.623	16713
525.692	18255
525.761	19274
525.830	20188
525.900	23053
525.969	31509
526.038	54776
526.107	98982
526.176	312542
526.245	313725
526.314	94552
526.383	149681
526.452	244401
526.522	316808
526.591	411584
526.660	100306
526.729	48499
526.797	47086
526.867	78999
526.935	305736
527.004	662700
527.073	496739
527.142	63135
527.211	26677
527.280	20181
527.349	20227
527.418	12631
527.487	14065
527.555	10801
527.624	11299
527.693	10248
527.762	11831
527.831	9007
527.899	11343
527.968	10245
528.037	9474
528.106	11690
528.174	18549
528.243	17630
528.312	18630
528.380	27974
528.449	13307
528.518	11773
528.586	9144
528.655	11366
528.723	10415
528.792	10643
528.861	10868
528.929	10927
528.998	13932
529.066	19625
529.135	37248
529.203	35224
529.272	45640
529.340	63811
529.409	56619
529.477	50179
529.545	50443
529.614	54662
529.682	63860
529.751	74491
529.819	73940
529.887	87796
529.956	79729
530.024	74902
530.092	69002
530.161	68166
530.229	71584
530.297	79388
530.365	75430
530.434	80169
530.502	85167
530.570	73346
530.638	63493
530.707	60249
530.775	58117
530.843	57498
530.911	68725
530.979	64958
531.047	77742
531.115	75662
531.183	66401
531.252	63505
531.320	59878
531.388	59119
531.456	68506
531.524	74871
531.592	76536
531.660	88252
531.728	79970
531.796	75733
531.864	73330
531.932	72580
532.000	72491
532.067	79269
532.135	87994
532.203	89653
532.271	96637
532.339	95584
532.407	112864
532.475	103044
532.542	85614
532.610	84052
532.678	93893
532.746	141748
532.814	278144
532.881	152343
532.949	93259
533.017	84256
533.084	81625
533.152	77075
533.220	76273
533.287	80408
533.355	84026
533.423	81685
533.490	86760
533.558	81030
533.625	77150
533.693	75401
533.761	72226
533.828	69663
533.896	70109
533.963	82784
534.031	86916
534.098	98593
534.166	82537
534.233	69339
534.300	67864
534.368	64457
534.435	63377
534.503	62761
534.570	67878
534.637	69005
534.705	71569
534.772	72462
534.840	79223
534.907	170651
534.974	264978
535.041	77301
535.109	56321
535.176	50886
535.243	54976
535.310	53918
535.378	55652
535.445	49971
535.512	48861
535.579	46321
535.646	44277
535.714	42886
535.781	44525
535.848	45767
535.915	50116
535.982	48274
536.049	49031
536.116	44759
536.183	40600
536.250	38753
536.317	38638
536.384	39949
536.451	42670
536.518	44191
536.585	41872
536.652	45531
536.719	48503
536.786	41566
536.853	38294
536.920	40324
536.987	48775
537.053	46810
537.120	112126
537.187	131390
537.254	39396
537.321	36051
537.388	35650
537.454	30590
537.521	29028
537.588	28254
537.654	29492
537.721	30655
537.788	30141
537.855	28134
537.921	29789
537.988	30206
538.055	30393
538.121	26818
538.188	26818
538.254	28203
538.321	38051
538.388	33642
538.454	26699
538.521	25797
538.587	26686
538.654	25450
538.720	25912
538.787	24550
538.853	24180
538.920	24907
538.986	24971
539.053	22887
539.119	23606
539.185	23352
539.252	25675
539.318	30445
539.385	30870
539.451	25294
539.517	26523
539.583	26878
539.650	39480
539.716	92043
539.782	44007
539.849	21929
539.915	21982
539.981	21335
540.047	24310
540.114	23000
540.180	24477
540.246	21727
540.312	24890
540.378	32764
540.444	36519
540.510	37216
540.576	97381
540.643	48460
540.709	20152
540.775	20752
540.841	19130
540.907	20962
540.973	29416
541.039	25301
541.105	26096
541.171	19963
541.237	18509
541.303	19432
541.369	21407
541.435	22689
541.500	31049
541.566	24089
541.632	17434
541.698	17156
541.764	17870
541.830	16338
541.896	16260
541.961	16437
542.027	17765
542.093	17566
542.159	17806
542.224	18202
542.290	22876
542.356	28277
542.421	33526
542.487	23222
542.553	18812
542.618	19386
542.684	17548
542.750	17529
542.815	19568
542.881	26485
542.947	78151
543.012	78005
543.078	18989
543.143	15368
543.209	17109
543.274	16159
543.340	18982
543.405	32350
543.471	59563
543.536	21779
543.602	16697
543.667	15698
543.732	17092
543.798	14196
543.863	16474
543.928	15001
543.994	14131
544.059	15013
544.124	15516
544.190	15420
544.255	17098
544.320	16146
544.386	16582
544.451	20250
544.516	22204
544.581	21490
544.646	47516
544.712	93195
544.777	28568
544.842	18966
544.907	19292
544.972	19008
545.037	18257
545.102	19080
545.168	19479
545.233	19878
545.298	21360
545.363	20658
545.428	23883
545.493	32610
545.558	69591
545.623	41510
545.688	20091
545.753	19557
545.818	19440
545.883	21185
545.947	19712
546.012	21445
546.077	22250
546.142	22884
546.207	22260
546.272	25431
546.337	26797
546.401	24505
546.466	24161
546.531	23255
546.596	26123
546.661	26244
546.725	26506
546.790	25576
546.855	29191
546.919	29165
546.984	34113
547.049	35598
547.113	40233
547.178	40449
547.243	44722
547.307	51353
547.372	57527
547.436	60154
547.501	57183
547.565	61475
547.630	61061
547.695	57616
547.759	57679
547.823	58492
547.888	56032
547.952	57819
548.017	60404
548.081	66664
548.146	67247
548.210	66156
548.274	65601
548.339	66072
548.403	62229
548.468	56000
548.532	55640
548.596	57467
548.660	58374
548.725	62235
548.789	69126
548.853	68813
548.917	63172
548.982	66603
549.046	62255
549.110	51746
549.174	51412
549.238	57850
549.303	63516
549.367	66183
549.431	64018
549.495	59997
549.559	59890
549.623	66317
549.687	77375
549.751	80982
549.815	87139
549.879	89216
549.943	82820
550.007	87063
550.071	87752
550.135	84032
550.199	77381
550.263	74150
550.327	71731
550.391	76554
550.455	81982
550.519	82807
550.582	86899
550.646	102350
550.710	109660
550.774	98656
550.838	98426
550.901	100644
550.965	107187
551.029	111734
551.093	119546
551.156	133305
551.220	159186
551.284	182430
551.347	137848
551.411	132981
551.475	137526
551.538	107541
551.602	98930
551.666	93089
551.729	86509
551.793	83568
551.856	83708
551.920	82827
551.983	83857
552.047	80781
552.110	80549
552.174	81130
552.237	85590
552.301	77319
552.364	73427
552.428	72609
552.491	74280
552.554	76047
552.618	75790
552.681	79215
552.745	76585
552.808	86782
552.871	100976
552.934	89154
552.998	79889
553.061	77018
553.124	76152
553.187	73613
553.251	77497
553.314	77985
553.377	80909
553.440	95126
553.503	165994
553.567	284116
553.630	112431
553.693	80909
553.756	78703
553.819	74306
553.882	71973
553.945	71285
554.008	71267
554.071	72266
554.134	72010
554.197	67271
554.260	65413
554.323	67380
554.386	67109
554.449	71033
554.512	70980
554.575	66743
554.638	67261
554.701	66168
554.764	67292
554.827	63776
554.889	61629
554.952	56642
555.015	56485
555.078	57788
555.141	58719
555.203	57074
555.266	57442
555.329	57309
555.391	55955
555.454	54374
555.517	53991
555.580	51761
555.642	50153
555.705	48485
555.768	48678
555.830	48427
555.893	45132
555.955	44071
556.018	43796
556.080	44803
556.143	47315
556.206	45158
556.268	45357
556.330	44477
556.393	43869
556.455	43530
556.518	46155
556.580	46940
556.643	39382
556.705	38727
556.767	37449
556.830	38219
556.892	38574
556.955	45329
557.017	41753
557.079	35967
557.142	36397
557.204	36747
557.266	48629
557.328	47296
557.391	33269
557.453	32070
557.515	32032
557.577	35265
557.639	36900
557.701	33655
557.764	33239
557.826	33556
557.888	35194
557.950	37118
558.012	39158
558.074	49973
558.136	97415
558.198	273094
558.260	131279
558.322	44247
558.384	42824
558.446	45608
558.508	50414
558.570	57529
558.632	73888
558.694	105112
558.756	132616
558.818	345554
558.880	928248
558.942	415797
559.003	287730
559.065	179164
559.127	61184
559.189	55015
559.251	60833
559.312	83556
559.374	181638
559.436	621772
559.498	417543
559.559	76367
559.621	56814
559.683	62287
559.744	98084
559.806	290090
559.868	539305
559.929	136526
559.991	63098
560.052	85715
560.114	250251
560.176	202513
560.237	135318
560.299	264448
560.360	79340
560.422	29241
560.483	26123
560.545	23490
560.606	23605
560.667	21041
560.729	20845
560.790	20252
560.852	19153
560.913	20202
560.974	19932
561.036	18899
561.097	20457
561.158	18567
561.220	19732
561.281	19597
561.342	19264
561.403	21085
561.465	23967
561.526	40234
561.587	58721
561.648	25446
561.709	18877
561.771	18322
561.832	18781
561.893	18139
561.954	18432
562.015	17367
562.076	16075
562.137	17494
562.198	18200
562.259	18224
562.320	17778
562.381	18639
562.442	24427
562.503	22826
562.564	18965
562.625	17477
562.686	16715
562.747	20388
562.808	19094
562.869	17461
562.930	19622
562.991	19180
563.051	18535
563.112	18204
563.173	17243
563.234	15945
563.294	16592
563.355	16131
563.416	16988
563.477	16615
563.537	16799
563.598	17386
563.659	16580
563.720	16344
563.780	16091
563.841	17465
563.901	17346
563.962	17585
564.023	16161
564.083	16656
564.144	16643
564.204	15769
564.265	17310
564.325	17629
564.386	26110
564.446	25849
564.507	16231
564.567	15549
564.628	16992
564.688	15619
564.749	15581
564.809	17562
564.869	19532
564.930	17041
564.990	16995
565.050	14968
565.111	16521
565.171	15278
565.231	16030
565.292	16117
565.352	15956
565.412	16549
565.472	15878
565.532	16895
565.593	16284
565.653	15877
565.713	16455
565.773	17296
565.833	18316
565.893	22964
565.953	17331
566.013	15593
566.074	16694
566.134	19561
566.194	24645
566.254	27021
566.314	20315
566.374	16931
566.434	17282
566.494	16464
566.554	16610
566.614	15769
566.673	17000
566.733	18244
566.793	18277
566.853	19144
566.913	18735
566.973	18918
567.033	20602
567.092	20775
567.152	19663
567.212	20026
567.272	18607
567.331	20258
567.391	18952
567.451	20571
567.511	23396
567.570	24130
567.630	19214
567.690	17207
567.749	17683
567.809	17910
567.868	20913
567.928	19656
567.988	22366
568.047	23001
568.107	25290
568.166	29087
568.226	39301
568.285	51674
568.345	48420
568.404	39909
568.464	37295
568.523	32219
568.582	33700
568.642	35998
568.701	41270
568.761	52423
568.820	74724
568.879	81205
568.939	65481
568.998	51032
569.057	40705
569.116	33329
569.176	29330
569.235	25442
569.294	24694
569.353	21641
569.413	21886
569.472	20812
569.531	19864
569.590	18305
569.649	18191
569.708	17927
569.767	19307
569.827	22390
569.886	21525
569.945	16366
570.004	17627
570.063	16992
570.122	17932
570.181	18264
570.240	19330
570.299	19985
570.358	22690
570.417	17785
570.475	16200
570.534	16188
570.593	16809
570.652	18224
570.711	19448
570.770	15519
570.829	17245
570.887	15862
570.946	19103
571.005	16324
571.064	16210
571.122	16250
571.181	16868
571.240	15528
571.299	15221
571.357	14610
571.416	15670
571.475	16274
571.533	18306
571.592	15766
571.650	15034
571.709	14858
571.768	16383
571.826	16213
571.885	15660
571.943	14591
572.002	13852
572.060	13853
572.119	13575
572.177	13497
572.236	13486
572.294	13294
572.352	14210
572.411	13596
572.469	13638
572.528	14067
572.586	15477
572.644	16179
572.703	22514
572.761	16184
572.819	12890
572.877	13323
572.936	11962
572.994	12943
573.052	12709
573.110	13520
573.169	13744
573.227	12843
573.285	13321
573.343	12888
573.401	12492
573.459	12896
573.517	12595
573.576	12338
573.634	13431
573.692	13773
573.750	13458
573.808	12814
573.866	13299
573.924	13864
573.982	14729
574.040	12102
574.098	12393
574.155	11766
574.213	13120
574.271	11958
574.329	13784
574.387	12563
574.445	11667
574.503	12389
574.560	10473
574.618	11423
574.676	11357
574.734	12072
574.792	12273
574.849	11201
574.907	10991
574.965	10933
575.022	10826
575.080	10468
575.138	10696
575.195	11395
575.253	11483
575.311	11082
575.368	10625
575.426	9576
575.483	11738
575.541	10276
575.598	10546
575.656	11184
575.713	11137
575.771	12340
575.828	10400
575.886	11027
575.943	12266
576.001	10974
576.058	11394
576.115	12261
576.173	12445
576.230	14033
576.287	15163
576.345	13810
576.402	10957
576.459	12598
576.517	11503
576.574	12877
576.631	12258
576.688	11604
576.746	11164
576.803	10952
576.860	10174
576.917	11229
576.974	11739
577.031	10991
577.089	11268
577.146	11231
577.203	12326
577.260	11521
577.317	12485
577.374	12650
577.431	12577
577.488	11422
577.545	11844
577.602	12554
577.659	12516
577.716	13810
577.773	15487
577.830	13555
577.886	11930
577.943	11390
578.000	10993
578.057	11219
578.114	12746
578.171	12894
578.227	14313
578.284	13866
578.341	13675
578.398	12705
578.454	13187
578.511	13210
578.568	14142
578.625	12987
578.681	12888
578.738	12008
578.794	12470
578.851	11718
578.908	12802
578.964	13015
579.021	14381
579.077	12596
579.134	12920
579.190	12000
579.247	12794
579.303	11950
579.360	12042
579.416	11888
579.473	11740
579.529	13365
579.586	13145
579.642	11951
579.698	12887
579.755	13142
579.811	13765
579.867	14251
579.924	14636
579.980	14615
580.036	16419
580.093	17281
580.149	19840
580.205	22794
580.261	18977
580.317	17397
580.374	16863
580.430	18282
580.486	17348
580.542	17511
580.598	17240
580.619	17253
580.654	17294
580.692	17002
580.710	16882
580.765	17771
580.767	17817
580.823	17756
580.838	17665
580.879	17465
580.911	17340
580.935	17283
580.984	17447
580.991	17489
581.047	19051
581.057	19049
581.103	19093
581.130	19156
581.159	19266
581.203	20314
581.215	20612
581.270	20483
581.276	20346
581.326	19193
581.349	19241
581.382	19335
581.422	19879
581.438	20123
581.494	20600
581.494	20581
581.550	19980
581.567	20284
581.606	20925
581.640	21173
581.661	21336
581.713	22173
581.717	22260
581.773	22106
581.786	22156
581.829	22281
581.859	22679
581.885	23128
581.932	23286
581.940	23298
581.996	23687
582.004	23734
582.052	23973
582.077	23915
582.107	23968
582.150	24549
582.163	24756
582.219	24737
582.223	24813
582.274	25593
582.296	25481
582.330	25452
582.368	26569
582.386	27096
582.441	26340
582.441	26345
582.497	28188
582.514	27981
582.552	27733
582.587	29248
582.608	30057
582.659	30381
582.663	30413
582.719	29687
582.732	29738
582.774	30177
582.805	30758
582.830	31285
582.877	33546
582.885	33971
582.941	37181
582.950	37783
582.996	40754
583.023	44429
583.052	48615
583.095	48947
583.107	48767
583.162	45339
583.168	45018
583.218	42135
583.240	40904
583.273	39155
583.313	36742
583.328	35874
583.384	34183
583.385	34136
583.439	32593
583.458	32121
583.494	31396
583.531	30938
583.549	30739
583.603	30463
583.605	30447
583.660	29933
583.676	29783
583.715	29733
583.748	29159
583.770	28645
583.820	29938
583.825	30061
583.881	30027
583.893	29620
583.936	28357
583.965	28823
583.991	29235
584.038	29803
584.046	29889
584.101	29139
584.110	29413
584.156	30960
584.183	31140
584.211	31217
584.255	30976
584.266	30929
584.321	31064
584.328	31347
584.376	33419
584.400	32687
584.431	31792
584.472	32173
584.486	32439
584.541	34741
584.545	34871
584.596	36309
584.617	35633
584.651	34801
584.689	35258
584.706	35348
584.761	36271
584.762	36279
584.816	37019
584.834	37103
584.871	37420
584.906	37164
584.926	36859
584.978	37423
584.980	37473
585.035	38546
585.051	38522
585.090	38221
585.123	39165
585.145	39857
585.195	40062
585.200	40229
585.254	43103
585.267	44190
585.309	48361
585.340	52238
585.364	54242
585.412	53773
585.419	53930
585.473	59422
585.484	60819
585.528	71315
585.556	82811
585.583	107501
585.628	161341
585.637	182919
585.692	350772
585.700	383831
585.747	506551
585.772	465023
585.801	321542
585.845	132099
585.856	109259
585.910	66809
585.917	62523
585.965	53528
585.989	50559
586.019	48850
586.061	46678
586.074	46376
586.128	46191
586.133	46057
586.183	43996
586.205	43289
586.237	42195
586.277	40196
586.292	39606
586.346	38594
586.349	38498
586.401	37173
586.421	37132
586.455	37401
586.493	37182
586.509	38385
586.564	43047
586.565	43228
586.618	55248
586.637	57279
586.672	51689
586.709	43530
586.727	41513
586.781	40026
586.781	40040
586.835	35840
586.853	34805
586.889	33297
586.925	31693
586.944	31478
586.996	32588
586.998	32610
587.052	31437
587.068	31333
587.106	31854
587.140	31845
587.161	31923
587.212	32567
587.215	32601
587.269	33279
587.284	33195
587.323	33384
587.356	33684
587.377	33948
587.427	35437
587.431	35541
587.485	35574
587.499	35700
587.539	36598
587.571	37417
587.593	38228
587.643	39339
587.648	39441
587.702	40689
587.715	41103
587.755	43511
587.786	45074
587.810	45611
587.858	46361
587.864	46644
587.917	50333
587.930	50979
587.971	54179
588.001	56756
588.025	58175
588.073	60691
588.079	61386
588.133	67351
588.145	68983
588.187	75695
588.217	79981
588.241	84390
588.288	93987
588.295	95534
588.348	108355
588.360	111283
588.402	124364
588.431	133426
588.456	143057
588.503	163131
588.510	166822
588.564	198425
588.575	205522
588.617	240700
588.646	267298
588.671	303158
588.718	379984
588.725	401171
588.778	580669
588.789	622169
588.832	918175
588.861	1136390
588.886	1356057
588.932	1760474
588.939	1771178
588.993	1691149
589.004	1681529
589.047	1473748
589.075	1270468
589.100	1038983
589.147	617834
589.154	591300
589.207	428079
589.218	398601
589.261	366810
589.290	351586
589.314	365609
589.361	404290
589.368	424315
589.421	603495
589.433	646439
589.475	979719
589.504	1230327
589.528	1389923
589.576	1628801
589.582	1599196
589.635	1255312
589.647	1164760
589.689	745796
589.718	466529
589.742	378612
589.790	232514
589.795	225795
589.849	171848
589.861	160480
589.902	142112
589.932	128518
589.955	117381
590.004	94066
590.009	92986
590.062	82409
590.075	79774
590.115	73725
590.146	68917
590.168	66902
590.218	62950
590.222	62770
590.275	59549
590.289	58549
590.328	56461
590.360	54735
590.381	53778
590.431	51536
590.435	51447
590.488	48568
590.503	47737
590.541	47628
590.574	47550
590.594	46904
590.645	45042
590.647	45055
590.700	43702
590.716	43155
590.753	42907
590.787	42833
590.806	42512
590.859	41493
590.859	41542
590.912	40855
590.930	40710
590.965	41040
591.001	41157
591.018	41051
591.071	40577
591.072	40508
591.124	40594
591.143	40424
591.177	40472
591.214	40598
591.230	40809
591.283	41219
591.285	41164
591.336	41517
591.356	41586
591.389	41345
591.427	40804
591.442	40234
591.495	37947
591.498	37705
591.547	37198
591.569	37013
591.600	37543
591.640	37922
591.653	37939
591.706	37850
591.711	37777
591.759	39542
591.782	40326
591.811	41421
591.853	42916
591.864	42501
591.917	39834
591.924	39383
591.969	38298
591.995	37611
592.022	38258
592.066	39117
592.075	39720
592.127	43137
592.137	43677
592.180	45919
592.208	47248
592.233	45040
592.279	40485
592.285	40376
592.338	38984
592.350	38592
592.390	38670
592.421	38652
592.443	38850
592.491	39039
592.495	39150
592.548	39764
592.562	39860
592.600	39997
592.633	39994
592.653	39880
592.704	39192
592.705	39442
592.775	40739
592.846	41035
592.916	42789
592.987	44462
593.058	43640
593.128	41074
593.199	41834
593.270	41153
593.341	41753
593.411	43372
593.482	43927
593.553	44693
593.623	43223
593.694	44781
593.764	46482
593.835	43142
593.906	43917
593.976	44254
594.047	46936
594.117	51872
594.188	51364
594.258	46844
594.329	47079
594.399	47299
594.470	47738
594.540	48912
594.611	49293
594.681	50562
594.751	49692
594.822	52902
594.892	53577
594.963	53935
595.033	55426
595.103	57459
595.174	59715
595.244	71079
595.314	79697
595.384	62510
595.455	60660
595.525	61239
595.595	64880
595.665	65666
595.736	63850
595.806	65673
595.876	64001
595.946	66464
596.016	66680
596.087	69884
596.157	69114
596.227	70507
596.297	73612
596.367	78014
596.437	83635
596.507	92608
596.577	99970
596.647	86427
596.717	86312
596.787	88178
596.857	89328
596.927	90018
596.997	91923
597.067	94361
597.137	99432
597.207	97005
597.277	95891
597.347	94090
597.417	93337
597.487	95783
597.557	97727
597.626	101156
597.696	103676
597.766	108890
597.836	113680
597.906	100051
597.975	97362
598.045	99071
598.115	102350
598.185	106953
598.254	116538
598.324	125279
598.394	127609
598.464	127793
598.533	124999
598.603	121818
598.672	121834
598.742	123559
598.812	125842
598.881	127667
598.951	128714
599.020	130909
599.090	137509
599.159	139900
599.229	137609
599.299	138198
599.368	142834
599.437	144256
599.507	139346
599.576	143026
599.646	145897
599.715	146088
599.785	147033
599.854	148806
599.924	150696
599.993	153452
600.062	154094
600.132	160242
600.201	166753
600.270	180589
600.340	187588
600.409	186736
600.478	190171
600.547	194692
600.617	191784
600.686	181131
600.755	181308
600.824	184854
600.894	185838
600.963	187572
601.032	190194
601.101	194327
601.170	198135
601.239	201885
601.308	208219
601.378	211838
601.447	217224
601.516	221892
601.585	228444
601.654	239037
601.723	239421
601.792	247702
601.861	258740
601.930	274614
601.999	283656
602.068	281265
602.137	283184
602.206	283845
602.275	286750
602.343	292415
602.412	291399
602.481	292329
602.550	289546
602.619	296536
602.688	294599
602.756	301384
602.825	295990
602.894	304198
602.963	299031
603.032	305506
603.100	303894
603.169	296244
603.238	311743
603.307	293187
603.375	294557
603.444	313890
603.513	282508
603.581	296424
603.650	316680
603.719	253002
603.787	236907
603.856	242494
603.924	250090
603.993	254806
604.061	257893
604.130	265964
604.198	272078
604.267	273975
604.335	281352
604.404	279666
604.472	292579
604.541	290193
604.609	304124
604.678	316400
604.746	322431
604.815	339448
604.883	316801
604.951	307582
605.020	316349
605.088	282800
605.156	262090
605.225	262465
605.293	257939
605.361	261681
605.429	255800
605.498	266422
605.566	256691
605.634	269657
605.702	262420
605.771	266571
605.839	277578
605.907	246361
605.975	269018
606.043	250318
606.111	237200
606.180	274066
606.248	237258
606.316	233651
606.384	258923
606.452	188576
606.520	142403
606.588	133130
606.656	130692
606.724	127365
606.792	120745
606.860	112254
606.928	103203
606.996	102322
607.064	98986
607.132	103022
607.200	108140
607.267	111197
607.335	113171
607.403	116640
607.471	110915
607.539	108603
607.607	110241
607.674	99345
607.742	100588
607.810	100172
607.878	98825
607.946	98837
608.013	102936
608.081	104574
608.149	106756
608.216	105767
608.284	107895
608.352	105197
608.419	105750
608.487	109286
608.555	99650
608.622	100008
608.690	103220
608.757	110186
608.825	110613
608.893	110615
608.960	113808
609.028	112425
609.095	109177
609.163	99049
609.230	89135
609.298	82450
609.365	85066
609.432	91760
609.500	99562
609.567	114080
609.635	127997
609.702	136116
609.769	129017
609.837	105364
609.904	91281
609.971	96686
610.039	115437
610.106	170823
610.173	369458
610.241	885813
610.308	497777
610.375	147680
610.442	105550
610.509	94355
610.577	91962
610.644	92558
610.711	95104
610.778	97852
610.845	101879
610.912	108034
610.980	116718
611.047	127187
611.114	116049
611.181	107527
611.248	102969
611.315	110482
611.382	112699
611.449	116056
611.516	118395
611.583	117911
611.650	119510
611.717	123811
611.784	127064
611.851	137053
611.918	158233
611.984	193557
612.051	310510
612.118	695771
612.185	1704729
612.252	1105005
612.319	266155
612.386	179763
612.452	154722
612.519	143993
612.586	145387
612.653	141562
612.719	140746
612.786	132264
612.853	123284
612.919	119422
612.986	122407
613.053	113565
613.120	107032
613.186	102423
613.253	104967
613.319	103244
613.386	104346
613.453	108118
613.519	113843
613.586	118627
613.652	135542
613.719	124520
613.785	118420
613.852	109147
613.918	109637
613.985	115157
614.051	136974
614.118	189113
614.184	178057
614.250	113812
614.317	111082
614.383	108397
614.449	109059
614.516	109702
614.582	110744
614.648	106023
614.715	105482
614.781	103361
614.847	103833
614.914	104808
614.980	103379
615.046	102368
615.112	104770
615.179	106310
615.245	107873
615.311	109132
615.377	117507
615.443	122242
615.509	116073
615.575	119551
615.642	116630
615.708	121971
615.774	132445
615.840	144907
615.906	168119
615.972	226889
616.038	391473
616.104	864795
616.170	1980770
616.236	1711636
616.302	437914
616.368	277781
616.434	190286
616.500	166940
616.565	186748
616.631	243594
616.697	197369
616.763	201285
616.829	326577
616.895	612424
616.961	603149
617.026	250939
617.092	146000
617.158	127525
617.224	119454
617.289	109662
617.355	102580
617.421	100819
617.487	101398
617.552	94675
617.618	93649
617.684	93404
617.749	96707
617.815	91018
617.880	89528
617.946	89759
618.012	93193
618.077	92081
618.143	88269
618.208	89088
618.274	94901
618.339	94976
618.405	80808
618.470	80819
618.536	81668
618.601	81527
618.667	74867
618.732	72359
618.798	72321
618.863	73132
618.928	71960
618.994	75540
619.059	78442
619.124	92319
619.190	78878
619.255	71904
619.320	71976
619.386	71731
619.451	70527
619.516	68864
619.581	71832
619.647	70682
619.712	71290
619.777	69220
619.842	72366
619.907	74519
619.972	73534
620.038	72688
620.103	70694
620.168	69384
620.233	71210
620.298	70270
620.363	71889
620.428	75078
620.493	76522
620.558	77710
620.623	78264
620.688	77983
620.753	77983
620.818	78836
620.883	79595
620.948	79083
621.013	77909
621.078	76990
621.143	76650
621.207	80663
621.272	78924
621.337	80170
621.402	79916
621.467	83439
621.532	85513
621.596	82033
621.661	77982
621.726	73639
621.791	76889
621.855	77407
621.920	79344
621.985	78472
622.049	83368
622.114	82798
622.179	81025
622.243	82595
622.308	82840
622.373	87199
622.437	85751
622.502	80766
622.566	79513
622.631	79393
622.695	81646
622.760	81373
622.824	80727
622.889	82556
622.953	87563
623.018	109550
623.082	105287
623.147	87309
623.211	85256
623.276	85040
623.340	78581
623.404	77520
623.469	77785
623.533	80073
623.597	76183
623.662	74846
623.726	71140
623.790	68431
623.854	67640
623.919	70945
623.983	69142
624.047	69637
624.111	70396
624.176	73647
624.240	79552
624.304	83275
624.368	70646
624.432	70786
624.496	72011
624.560	80121
624.625	81630
624.689	75482
624.753	77148
624.817	71205
624.881	70063
624.945	66319
625.009	65351
625.073	66562
625.137	71785
625.201	81283
625.265	77838
625.329	69538
625.393	71905
625.456	67986
625.520	70941
625.584	74144
625.648	81689
625.712	98156
625.776	153443
625.839	159723
625.903	82962
625.967	63482
626.031	84114
626.095	111366
626.158	68603
626.222	52092
626.286	49741
626.349	48214
626.413	46742
626.477	49270
626.540	45852
626.604	45553
626.668	45678
626.731	44194
626.795	45042
626.858	45289
626.922	43357
626.986	42128
627.049	41473
627.113	43794
627.176	42845
627.240	41047
627.303	41406
627.366	40776
627.430	42329
627.493	42071
627.557	40555
627.620	43621
627.684	42171
627.747	42122
627.810	36598
627.874	36182
627.937	35120
628.000	39744
628.064	36714
628.127	31019
628.190	31713
628.253	30828
628.317	30135
628.380	29445
628.443	29684
628.506	30752
628.569	26981
628.632	24693
628.696	26024
628.759	25120
628.822	24786
628.885	23232
628.948	24405
629.011	24403
629.074	23678
629.137	23136
629.200	23599
629.263	26884
629.326	21712
629.389	23301
629.452	23106
629.515	22844
629.578	23657
629.641	25517
629.704	23206
629.767	23795
629.830	21420
629.892	21434
629.955	20240
630.018	25140
630.081	25986
630.144	30498
630.207	23425
630.269	25675
630.332	23993
630.395	22130
630.458	20704
630.520	20616
630.583	21390
630.646	20709
630.708	19866
630.771	19933
630.834	22126
630.896	20583
630.959	21050
631.021	20236
631.084	21506
631.146	22733
631.209	25249
631.272	21945
631.334	21745
631.397	22777
631.459	23146
631.522	26043
631.584	25725
631.646	27914
631.709	29961
631.771	35622
631.834	29693
631.896	25558
631.958	22728
632.021	22528
632.083	21066
632.145	21496
632.208	21167
632.270	22378
632.332	20349
632.395	19993
632.457	20857
632.519	19508
632.581	20579
632.643	19144
632.706	20884
632.768	19159
632.830	20909
632.892	18893
632.954	18708
633.016	20629
633.078	19554
633.141	19474
633.203	20133
633.265	20860
633.327	20540
633.389	20026
633.451	23274
633.513	26187
633.575	24819
633.637	25247
633.698	23299
633.760	24027
633.822	23405
633.884	24562
633.946	23808
634.008	25678
634.070	28576
634.132	34731
634.193	33363
634.255	34570
634.317	34391
634.379	35441
634.441	30119
634.502	27645
634.564	25230
634.626	23101
634.687	22206
634.749	21062
634.811	20566
634.873	19214
634.934	21127
634.996	20716
635.057	19402
635.119	19747
635.181	20426
635.242	21796
635.304	19309
635.365	24012
635.427	20496
635.488	22758
635.550	21035
635.611	21205
635.673	19938
635.734	24599
635.796	26033
635.857	30467
635.918	29289
635.980	35607
636.041	35849
636.102	40333
636.164	39769
636.225	38351
636.286	32049
636.348	29427
636.409	26212
636.470	23983
636.531	21906
636.593	21907
636.654	21742
636.715	19065
636.776	17668
636.838	17590
636.899	17993
636.960	17034
637.021	16368
637.082	15847
637.143	16136
637.204	15688
637.265	15026
637.326	16697
637.387	16888
637.448	14917
637.509	16958
637.570	15763
637.631	15944
637.692	14827
637.753	13687
637.814	15633
637.875	14727
637.936	15430
637.997	14769
638.058	15758
638.119	15357
638.179	15137
638.240	14000
638.301	15245
638.362	13536
638.423	14753
638.483	15320
638.544	13103
638.605	14301
638.666	13028
638.726	13766
638.787	14420
638.848	13773
638.908	13578
638.969	13649
639.030	13304
639.090	13038
639.151	13878
639.211	15660
639.272	19378
639.332	30118
639.393	19454
639.453	15997
639.514	16545
639.574	14720
639.635	13599
639.695	13661
639.756	12432
639.816	14631
639.877	17024
639.937	27932
639.997	34571
640.058	15097
640.118	12724
640.178	13091
640.239	12951
640.299	12419
640.359	13634
640.420	13786
640.480	16720
640.540	19396
640.600	19275
640.661	18570
640.721	18393
640.781	24619
640.841	20482
640.901	14190
640.961	14489
641.021	15808
641.082	18519
641.142	23212
641.202	16326
641.262	11014
641.322	12545
641.382	10173
641.442	12063
641.502	11666
641.562	12475
641.622	12587
641.682	15232
641.742	16217
641.802	15466
641.861	14526
641.921	13726
641.981	14218
642.041	14896
642.101	18334
642.161	12967
642.221	11105
642.280	10831
642.340	11058
642.400	10806
642.460	12023
642.519	12181
642.579	12183
642.639	12972
642.698	9525
642.758	14418
642.818	12809
642.877	11931
642.937	12650
642.997	15601
643.056	20982
643.116	13552
643.175	14454
643.235	13156
643.294	13412
643.354	15351
643.414	16864
643.473	20156
643.532	25745
643.592	38356
643.651	63219
643.711	116502
643.770	239462
643.830	590426
643.889	1145399
643.948	279650
644.008	52942
644.067	31448
644.126	22483
644.186	19363
644.245	17510
644.304	13617
644.363	16545
644.423	13127
644.482	13371
644.541	14561
644.600	14220
644.659	20570
644.719	26266
644.778	42533
644.837	76572
644.896	165211
644.955	378337
645.014	116472
645.073	29114
645.132	18744
645.191	16931
645.250	14787
645.309	16298
645.368	17320
645.427	25073
645.486	43736
645.545	74542
645.604	21465
645.663	14882
645.722	13816
645.781	15392
645.840	18951
645.898	23393
645.957	36246
646.016	59433
646.075	114412
646.134	230566
646.192	627012
646.251	854094
646.310	131265
646.369	37981
646.427	28686
646.486	19899
646.545	16804
646.603	14706
646.662	13562
646.721	13928
646.779	13977
646.838	14150
646.896	18703
646.955	26684
647.014	45439
647.072	90243
647.131	245242
647.189	107657
647.248	17605
647.306	12728
647.365	11946
647.423	8578
647.481	11858
647.540	8546
647.598	9676
647.657	7449
647.715	9127
647.773	8280
647.832	10206
647.890	7054
647.948	8134
648.007	9052
648.065	8176
648.123	8560
648.181	10542
648.240	12249
648.298	10218
648.356	8240
648.414	8029
648.472	7058
648.531	8315
648.589	7776
648.647	7042
648.705	7855
648.763	8763
648.821	8608
648.879	9169
648.937	10703
648.995	13148
649.053	18666
649.111	29804
649.169	51685
649.227	97445
649.285	211454
649.343	589951
649.401	266484
649.459	61447
649.516	36841
649.574	27399
649.632	50464
649.690	56281
649.748	30050
649.806	41566
649.863	76075
649.921	174243
649.979	105420
650.037	15898
650.094	9480
650.152	9785
650.210	8058
650.268	9477
650.325	9637
650.383	12510
650.440	7049
650.498	6416
650.556	6032
650.613	5633
650.671	7373
650.728	6844
650.786	7806
650.843	10182
650.901	5999
650.958	6673
651.016	5745
651.073	5641
651.131	4936
651.188	5522
651.246	4888
651.303	5184
651.360	5283
651.418	5216
651.475	6072
651.532	4640
651.590	5636
651.647	4413
651.704	4054
651.762	5018
651.819	5404
651.876	4797
651.933	4225
651.990	5181
652.048	3737
652.105	3836
652.162	4619
652.219	4022
652.276	5045
652.333	4559
652.390	3787
652.448	3908
652.505	4665
652.562	4579
652.619	5797
652.676	11401
652.733	11618
652.790	5698
652.847	3690
652.904	5232
652.961	3374
653.017	3471
653.074	5507
653.131	5924
653.188	3375
653.245	4190
653.302	4136
653.359	4484
653.415	4826
653.472	4734
653.529	4615
653.586	4741
653.642	3649
653.699	5572
653.756	3836
653.813	4093
653.869	4799
653.926	4467
653.983	3439
654.039	4788
654.096	4283
654.152	5239
654.209	3058
654.266	5208
654.322	4249
654.379	5151
654.435	6162
654.492	6504
654.548	9406
654.605	13756
654.661	7188
654.717	5005
654.774	4961
654.830	4410
654.887	3889
654.943	5252
655.000	7511
655.056	4515
655.112	5311
655.168	3990
655.225	4340
655.281	5872
655.337	6444
655.394	10513
655.450	8084
655.506	6994
655.562	10174
655.618	9484
655.675	3216
655.731	4584
655.787	4327
655.843	4213
655.899	2990
655.955	4058
656.011	4601
656.067	3411
656.123	4004
656.179	4426
656.235	4659
656.291	3145
656.347	5445
656.403	3504
656.459	3793
656.515	4996
656.571	5534
656.627	3456
656.683	4462
656.739	4759
656.795	3717
656.850	5611
656.906	5414
656.962	5197
657.018	3115
657.074	4934
657.129	6860
657.185	9246
657.241	18892
657.297	10336
657.352	5490
657.408	3578
657.464	5862
657.519	4540
657.575	3311
657.630	4724
657.686	3396
657.742	3646
657.797	2954
657.853	4084
657.908	4538
657.964	3354
658.019	3849
658.075	4172
658.130	4697
658.186	3307
658.241	3988
658.297	3029
658.352	3651
658.407	3834
658.463	3384
658.518	4299
658.573	4170
658.629	2573
658.684	3308
658.739	4355
658.795	2801
658.850	4475
658.905	2920
658.960	4072
659.016	3068
659.071	3451
659.126	4098
659.181	5143
659.236	9455
659.291	10031
659.346	5467
659.401	5719
659.457	7310
659.512	8845
659.567	5436
659.622	4527
659.677	3953
659.732	3237
659.787	3426
659.842	4864
659.897	5335
659.952	3562
660.007	3456
660.061	4678
660.116	2523
660.171	3714
660.226	3953
660.281	5108
660.336	3268
660.391	3464
660.445	3582
660.500	4600
660.555	4350
660.610	4151
660.664	3439
660.719	3675
660.774	3659
660.828	4010
660.883	3802
660.938	4148
660.992	2455
661.047	4246
661.101	2654
661.156	3401
661.211	2602
661.265	3450
661.320	2035
661.374	3831
661.429	2963
661.483	4242
661.538	2544
661.592	3198
661.647	3838
661.701	5993
661.755	3858
661.810	4116
661.864	3025
661.919	3114
661.973	4150
662.027	2962
662.081	2667
662.136	3662
662.190	3821
662.244	4235
662.299	3342
662.353	3401
662.407	3830
662.461	3761
662.515	3642
662.569	3488
662.624	4923
662.678	2942
662.732	3377
662.786	3302
662.840	3804
662.894	3294
662.948	3962
663.002	3559
663.056	3260
663.110	2851
663.164	2586
663.218	3840
663.272	3595
663.326	3249
663.380	3675
663.434	4089
663.488	2702
663.542	3519
663.595	3381
663.649	3500
663.703	3833
663.757	2999
663.811	2666
663.864	3387
663.918	3413
663.972	2960
664.026	3336
664.079	3316
664.133	3680
664.187	3156
664.240	3318
664.294	3538
664.348	4593
664.401	2821
664.455	3088
664.508	3046
664.562	2655
664.615	3793
664.669	2585
664.722	3461
664.776	1924
664.829	3357
664.883	3158
664.936	3015
664.990	3934
665.043	3753
665.097	3746
665.150	3665
665.203	3705
665.257	2486
665.310	3594
665.363	4367
665.417	4032
665.470	3817
665.523	3045
665.576	3902
665.630	3740
665.683	3566
665.736	3472
665.789	3578
665.842	2665
665.895	3931
665.949	3607
666.002	3667
666.055	3023
666.108	4182
666.161	2939
666.214	5064
666.267	3531
666.320	4752
666.373	3974
666.426	4327
666.479	3695
666.532	4701
666.585	4896
666.638	5862
666.691	4548
666.744	5839
666.796	4261
666.849	4678
666.902	4422
666.955	3677
667.008	3513
667.060	2864
667.113	3341
667.166	3359
667.219	3690
667.271	3888
667.324	3308
667.377	3674
667.430	3343
667.482	5772
667.535	5134
667.587	3851
667.640	4615
667.693	6102
667.745	9769
667.798	10020
667.850	4035
667.903	4212
667.955	3687
668.008	3879
668.060	4025
668.113	4165
668.165	4121
668.218	4483
668.270	3270
668.322	4029
668.375	3226
668.427	4650
668.479	3837
668.532	3197
668.584	3855
668.636	3547
668.689	3484
668.741	3309
668.793	3863
668.845	2563
668.898	4002
668.950	3466
669.002	2583
669.054	3348
669.106	2887
669.158	4619
669.211	3765
669.263	4205
669.315	5756
669.367	5993
669.419	3641
669.471	4995
669.523	5135
669.575	6801
669.627	5266
669.679	3262
669.731	4113
669.783	4695
669.835	4017
669.886	4059
669.938	3550
669.990	4110
670.042	2853
670.094	3612
670.146	3596
670.197	4389
670.249	4491
670.301	4253
670.353	6773
670.404	8565
670.456	10723
670.508	16857
670.560	27316
670.611	44446
670.663	75564
670.715	182251
670.766	274297
670.818	72270
670.869	13756
670.921	7994
670.972	6117
671.024	5547
671.075	4829
671.127	4824
671.178	4434
671.230	4857
671.281	4896
671.333	5373
671.384	5459
671.436	6516
671.487	8836
671.538	12837
671.590	19562
671.641	31441
671.692	55375
671.744	99176
671.795	70065
671.846	27234
671.897	13701
671.949	9257
672.000	6625
672.051	5804
672.102	5913
672.153	4386
672.204	3547
672.256	4104
672.307	3963
672.358	3711
672.409	3646
672.460	3388
672.511	3168
672.562	3359
672.613	3041
672.664	3389
672.715	2762
672.766	3218
672.817	3430
672.868	3089
672.919	2974
672.970	3394
673.021	2685
673.071	2233
673.122	2775
673.173	3060
673.224	2178
673.275	3032
673.326	2769
673.376	3484
673.427	2231
673.478	2967
673.528	3198
673.579	2760
673.630	2313
673.680	3320
673.731	2409
673.782	2898
673.832	2735
673.883	3384
673.934	2155
673.984	2836
674.035	2714
674.085	2861
674.136	2992
674.186	3728
674.237	4147
674.287	6184
674.338	3619
674.388	3326
674.438	2157
674.489	3527
674.539	3029
674.589	3331
674.640	2994
674.690	3108
674.740	3464
674.791	3395
674.841	2717
674.891	2730
674.942	3325
674.992	3038
675.042	2625
675.092	2378
675.142	2668
675.193	2703
675.243	2092
675.293	2379
675.343	3044
675.393	2059
675.443	2377
675.493	2798
675.543	1911
675.593	2565
675.643	1711
675.693	2727
675.743	2253
675.793	1996
675.843	1743
675.893	2086
675.943	1961
675.993	1569
676.043	1966
676.093	2264
676.142	1879
676.192	2476
676.242	2212
676.292	2355
676.341	1898
676.391	2392
676.441	1431
676.491	2872
676.540	1206
676.590	2023
676.640	1518
676.689	1889
676.739	977
676.789	2103
676.838	2018
676.888	1698
676.937	1506
676.987	2452
677.037	1997
677.086	1561
677.136	1976
677.185	1562
677.235	1430
677.284	2157
677.333	966
677.383	1979
677.432	1550
677.482	1751
677.531	1682
677.580	1321
677.630	844
677.679	1715
677.728	1368
677.778	2064
677.827	1350
677.876	1346
677.925	1861
677.975	1404
678.024	1849
678.073	1669
678.122	1963
678.171	1810
678.220	1990
678.269	3460
678.319	3421
678.368	2946
678.417	2400
678.466	2910
678.515	2655
678.564	1754
678.613	2041
678.662	1626
678.711	1615
678.760	1916
678.809	1115
678.857	873
678.906	1677
678.955	1453
679.004	2571
679.053	1897
679.102	2087
679.151	1359
679.199	1337
679.248	1536
679.297	2137
679.346	1574
679.394	1151
679.443	1191
679.492	1978
679.540	1318
679.589	1091
679.638	1889
679.686	1627
679.735	1550
679.784	2643
679.832	3276
679.881	1859
679.929	1159
679.978	1573
680.026	2045
680.075	1974
680.123	1413
680.172	1532
680.220	1531
680.268	1388
680.317	1030
680.365	926
680.414	360
680.462	1933
680.510	2295
680.559	1118
680.607	1526
680.655	1438
680.703	2032
680.752	1115
680.800	984
680.848	1310
680.896	1526
680.945	871
680.993	1577
681.041	1407
681.089	787
681.137	503
681.185	879
681.233	2109
681.258	1579
681.281	1060
681.329	1604
681.377	1301
681.380	1328
681.425	1524
681.473	1724
681.502	1985
681.521	2129
681.569	2467
681.617	1424
681.624	1383
681.665	996
681.713	1669
681.745	1450
681.761	1323
681.809	1635
681.857	2189
681.867	2093
681.904	1696
681.952	1906
681.989	1693
682.000	1611
682.048	1597
682.096	1861
682.111	1705
682.143	1280
682.191	1472
682.233	1970
682.239	2032
682.286	1885
682.334	1671
682.354	1721
682.382	1746
682.430	2655
682.476	1809
682.477	1777
682.525	2205
682.572	1921
682.598	1778
682.620	1615
682.667	2393
682.715	2022
682.720	2090
682.763	2604
682.810	2802
682.841	2156
682.857	1787
682.905	1586
682.952	2866
682.963	2682
683.000	1943
683.047	1616
683.085	3209
683.095	3630
683.142	2022
683.190	2324
683.206	2092
683.237	1665
683.284	2578
683.328	2444
683.332	2417
683.379	2099
683.426	2025
683.449	2298
683.473	2563
683.521	2565
683.568	2173
683.571	2158
683.615	1806
683.662	3309
683.693	2782
683.709	2457
683.757	2444
683.804	3034
683.814	3016
683.851	2885
683.898	3459
683.936	3188
683.945	3144
683.992	2754
684.039	3336
684.057	3430
684.086	3464
684.133	4254
684.179	2547
684.180	2477
684.227	3604
684.274	3652
684.300	3149
684.321	2748
684.368	3305
684.415	3647
684.422	3604
684.462	3221
684.509	3093
684.543	2928
684.556	2880
684.603	3318
684.649	2960
684.665	3058
684.696	3360
684.743	3649
684.786	3464
684.790	3434
684.837	3768
684.883	4397
684.908	4682
684.930	4845
684.977	3941
685.023	3737
685.029	3698
685.070	3324
685.117	3621
685.150	3312
685.164	3263
685.210	3758
685.257	4046
685.272	4415
685.303	4947
685.350	3994
685.393	3912
685.396	3920
685.443	4785
685.490	5286
685.514	5122
685.536	4844
685.583	4644
685.629	4647
685.636	4598
685.675	4337
685.722	4332
685.757	4689
685.768	4810
685.815	4038
685.861	4826
685.878	4721
685.908	4474
685.954	4639
686.000	4555
686.000	4554
686.047	4804
686.093	6008
686.121	5749
686.139	5392
686.185	5115
686.232	4957
686.242	5027
686.278	5237
686.324	4737
686.363	4630
686.370	4630
686.416	4428
686.463	4490
686.484	4444
686.509	4503
686.555	4527
686.601	4903
686.606	4916
686.647	4739
686.693	4532
686.727	4340
686.739	4333
686.785	4910
686.831	5098
686.848	5056
686.877	4866
686.923	4881
686.969	4739
686.969	4737
687.015	4633
687.061	4276
687.090	4664
687.107	5016
687.153	4781
687.199	5538
687.211	5381
687.245	4798
687.291	5148
687.332	5460
687.336	5502
687.382	5404
687.428	5393
687.453	5609
687.474	5598
687.520	4975
687.565	5082
687.574	4988
687.611	5138
687.657	5493
687.695	5574
687.702	5649
687.748	7500
687.794	9057
687.816	8798
687.839	7724
687.885	6832
687.931	5813
687.937	5621
687.976	5196
688.022	5628
688.058	5689
688.067	5754
688.113	5322
688.158	5586
688.179	5997
688.204	6433
688.249	5705
688.295	6006
688.300	5979
688.340	5662
688.386	6101
688.421	5493
688.431	5384
688.477	5485
688.522	6060
688.542	6155
688.567	6162
688.613	5712
688.658	5889
688.663	5842
688.703	5612
688.749	6129
688.784	5563
688.794	5395
688.839	5678
688.884	5739
688.905	5708
688.930	5668
688.975	5782
689.020	5712
689.026	5682
689.065	5814
689.110	6098
689.146	6177
689.155	6153
689.201	6214
689.246	6306
689.267	6293
689.291	6200
689.336	6199
689.381	5524
689.388	5483
689.426	5494
689.471	6270
689.509	5847
689.516	5790
689.561	5895
689.606	5990
689.630	6193
689.651	6360
689.696	5963
689.741	6562
689.750	6533
689.785	6399
689.830	6540
689.871	6426
689.875	6405
689.920	6342
689.965	5664
689.992	5666
690.010	5895
690.054	5958
690.099	6544
690.112	6714
690.144	6822
690.189	6158
690.233	6059
690.233	6069
690.278	6619
690.323	6582
690.354	6815
690.367	6898
690.412	6505
690.457	6764
690.474	6885
690.501	7053
690.546	6778
690.590	6914
690.595	6881
690.635	6868
690.680	7067
690.716	7009
690.724	7055
690.769	7381
690.813	8382
690.836	8382
690.857	8856
690.902	10322
690.946	11968
690.957	12396
690.991	15520
691.035	19562
691.077	23343
691.080	23339
691.124	21690
691.168	19957
691.198	18467
691.213	17247
691.257	14873
691.301	11771
691.318	10686
691.346	10195
691.390	9333
691.434	8688
691.439	8547
691.478	8208
691.522	8391
691.559	7909
691.567	7876
691.611	8597
691.655	8179
691.680	8137
691.699	7898
691.743	7799
691.787	7317
691.800	7199
691.831	7233
691.875	7285
691.919	6992
691.921	6982
691.964	7437
692.008	7861
692.041	8061
692.052	8120
692.096	8286
692.139	8340
692.162	8380
692.183	8211
692.227	8444
692.271	7582
692.282	7600
692.315	8130
692.359	8186
692.402	8611
692.403	8628
692.447	8465
692.490	8394
692.523	8276
692.534	8294
692.578	8428
692.622	8616
692.643	8485
692.666	8246
692.709	8280
692.753	8122
692.763	8040
692.797	7970
692.840	7977
692.884	7976
692.884	7996
692.928	7993
692.971	8471
693.004	8558
693.015	8488
693.059	8150
693.102	8526
693.124	8277
693.146	8383
693.189	8550
693.233	9267
693.245	9352
693.276	9262
693.320	9168
693.363	9283
693.365	9249
693.407	9482
693.450	10193
693.485	10543
693.493	10798
693.537	12192
693.580	13241
693.605	14112
693.624	15555
693.667	18895
693.710	21999
693.725	23138
693.753	28757
693.797	37841
693.840	46940
693.845	47820
693.883	44757
693.926	40875
693.966	37530
693.970	36869
694.013	29646
694.056	22752
694.086	17566
694.099	16940
694.142	15278
694.185	13354
694.206	12340
694.229	12033
694.272	11875
694.315	11403
694.326	11261
694.358	11370
694.401	11564
694.444	11611
694.446	11598
694.487	11364
694.530	10606
694.566	10382
694.573	10363
694.616	9572
694.659	9414
694.686	9064
694.702	9025
694.745	8985
694.787	8564
694.806	8660
694.830	8896
694.873	8639
694.916	8579
694.926	8585
694.959	8834
695.002	8818
695.044	9100
695.046	9080
695.087	9214
695.130	9337
695.166	9624
695.172	9624
695.215	9153
695.258	8923
695.286	8656
695.301	8739
695.343	9020
695.386	9136
695.406	9180
695.428	9196
695.471	9350
695.514	9476
695.526	9430
695.556	9636
695.599	10100
695.641	10579
695.646	10560
695.684	9787
695.726	9325
695.766	8748
695.769	8775
695.811	8902
695.854	9039
695.886	8984
695.896	8995
695.938	9122
695.981	8996
696.005	8961
696.023	9239
696.065	9926
696.108	10588
696.125	10863
696.150	10779
696.192	10662
696.235	10349
696.245	10263
696.277	10306
696.319	10235
696.361	10226
696.365	10208
696.404	10428
696.446	10506
696.485	10433
696.488	10453
696.530	10448
696.572	10467
696.604	10461
696.614	10477
696.656	10292
696.698	10320
696.724	10220
696.740	10183
696.783	10057
696.825	9949
696.844	9865
696.867	10119
696.909	10473
696.951	10853
696.964	10972
696.992	10791
697.034	10374
697.076	9968
697.083	9872
697.118	10093
697.160	10371
697.202	10656
697.203	10635
697.244	10659
697.286	10695
697.323	10528
697.327	10562
697.369	10757
697.411	10948
697.442	11097
697.453	11224
697.494	11504
697.536	11857
697.562	12015
697.578	11960
697.620	11724
697.661	11549
697.682	11413
697.703	11681
697.744	12165
697.786	12744
697.801	12855
697.828	12645
697.869	12323
697.911	11974
697.921	11868
697.952	11495
697.994	10923
698.035	10418
698.040	10316
698.077	10106
698.118	9934
698.160	9688
698.160	9659
698.201	10283
698.243	10830
698.279	11357
698.284	11428
698.325	11762
698.367	12100
698.399	12290
698.408	12246
698.449	11943
698.491	11615
698.518	11379
698.532	11526
698.573	11849
698.614	12211
698.638	12363
698.656	12343
698.697	12242
698.738	12141
698.757	12050
698.779	12110
698.820	12167
698.862	12239
698.877	12231
698.903	12533
698.944	12962
698.985	13391
698.996	13475
699.026	13155
699.067	12663
699.116	12043
699.235	12817
699.354	11794
699.474	12269
699.593	12752
699.713	13047
699.832	11976
699.951	13273
700.070	12215
700.190	10805
700.309	11691
700.428	11867
700.547	11240
700.667	12183
700.786	12201
700.905	11871
701.024	11655
701.143	11222
701.262	10824
701.381	11554
701.500	11485
701.619	13389
701.738	10932
701.857	10988
701.976	10407
702.095	10679
702.214	11928
702.333	11812
702.452	11534
702.571	10766
702.690	10467
702.809	10564
702.928	9737
703.047	10679
703.165	10178
703.284	10431
703.403	11257
703.522	11638
703.640	11811
703.759	13068
703.878	14744
703.997	10082
704.115	9722
704.234	10342
704.353	10075
704.471	9416
704.590	9645
704.708	9586
704.827	10921
704.946	10006
705.064	10110
705.183	9831
705.301	11098
705.420	13335
705.538	12736
705.656	12437
705.775	13859
705.893	28251
706.012	30727
706.130	12505
706.249	12117
706.367	11900
706.485	11547
706.604	11572
706.722	12421
706.840	15533
706.958	19756
707.077	14287
707.195	10538
707.313	11316
707.431	10192
707.549	9880
707.668	9701
707.786	10635
707.904	10143
708.022	10596
708.140	9970
708.258	10352
708.376	10711
708.494	10780
708.612	11515
708.730	12951
708.848	12465
708.966	13308
709.084	12241
709.202	11596
709.320	11352
709.438	11675
709.556	11485
709.674	11653
709.791	11904
709.909	11487
710.027	10742
710.145	11147
710.263	11640
710.380	11352
710.498	11502
710.616	11356
710.733	11170
710.851	12152
710.969	12440
711.086	10793
711.204	11082
711.322	11549
711.439	10892
711.557	10974
711.674	10429
711.792	10860
711.909	13675
712.027	12793
712.144	10518
712.262	10348
712.379	11432
712.497	15647
712.614	14432
712.732	13910
712.849	12982
712.966	13461
713.084	16748
713.201	13379
713.318	13791
713.436	13209
713.553	13101
713.670	13978
713.787	14787
713.905	14958
714.022	12984
714.139	13437
714.256	16903
714.373	23735
714.490	40734
714.608	115039
714.725	476593
714.842	403072
714.959	32636
715.076	17872
715.193	14415
715.310	13427
715.427	12258
715.544	11620
715.661	11933
715.778	11986
715.895	11633
716.011	12284
716.128	11437
716.245	12188
716.362	13547
716.479	13460
716.596	11141
716.713	11165
716.829	10474
716.946	9420
717.063	9226
717.180	9529
717.296	10375
717.413	10751
717.530	9300
717.646	10008
717.763	10220
717.880	9530
717.996	10443
718.113	9848
718.229	9659
718.346	8611
718.462	9850
718.579	12222
718.695	20256
718.812	14410
718.928	12582
719.045	10422
719.161	9518
719.277	9997
719.394	10445
719.510	10572
719.626	10232
719.743	13538
719.859	18556
719.975	36978
720.092	148096
720.208	289632
720.324	31996
720.440	12547
720.557	12564
720.673	18253
720.789	19862
720.905	35541
721.021	13343
721.137	9470
721.253	8720
721.369	9003
721.486	10283
721.602	13173
721.718	8457
721.834	8626
721.950	8936
722.066	7789
722.181	8420
722.297	8740
722.413	8485
722.529	7941
722.645	8269
722.761	8249
722.877	7965
722.993	8744
723.108	9929
723.224	8606
723.340	7524
723.456	7452
723.571	7917
723.687	7183
723.803	8110
723.918	7923
724.034	7470
724.150	7314
724.265	8245
724.381	14512
724.497	16376
724.612	8647
724.728	6973
724.843	7227
724.959	7893
725.074	15196
725.190	14886
725.305	8393
725.421	7303
725.536	6014
725.651	6241
725.767	6226
725.882	6501
725.997	5974
726.113	7302
726.228	7328
726.343	6453
726.459	6007
726.574	6040
726.689	5869
726.804	6615
726.920	6337
727.035	6247
727.150	6135
727.265	6288
727.380	7256
727.495	7511
727.610	6292
727.725	7348
727.841	8747
727.956	17138
728.071	12955
728.186	5539
728.301	6210
728.416	7174
728.531	6028
728.645	4991
728.760	6476
728.875	6314
728.990	5924
729.105	5955
729.220	7365
729.335	5751
729.449	5254
729.564	5739
729.679	6015
729.794	6294
729.908	7002
730.023	5923
730.138	5473
730.253	5299
730.367	6035
730.482	5585
730.596	6568
730.711	7423
730.826	8539
730.940	8536
731.055	6600
731.169	5922
731.284	6461
731.398	6487
731.513	7540
731.627	6948
731.742	8004
731.856	8926
731.970	8946
732.085	10753
732.199	13907
732.313	24061
732.428	64352
732.542	180943
732.656	88518
732.771	17912
732.885	11191
732.999	9893
733.113	9250
733.227	9575
733.342	9351
733.456	8197
733.570	8724
733.684	7792
733.798	8090
733.912	7132
734.026	6441
734.140	7008
734.254	7692
734.368	10245
734.482	12677
734.596	7642
734.710	7562
734.824	7320
734.938	6804
735.052	6487
735.166	8076
735.280	7747
735.393	7347
735.507	7816
735.621	8617
735.735	11827
735.849	7447
735.962	7292
736.076	7834
736.190	7390
736.303	8838
736.417	9425
736.531	6460
736.644	6599
736.758	6745
736.872	5791
736.985	6482
737.099	6601
737.212	6058
737.326	6182
737.439	6683
737.553	6042
737.666	7179
737.780	6312
737.893	7337
738.007	5587
738.120	5835
738.233	5993
738.347	5694
738.460	6398
738.573	7420
738.687	5898
738.800	6453
738.913	8782
739.026	6517
739.140	6872
739.253	6895
739.366	5808
739.479	6034
739.592	5821
739.705	5978
739.818	7003
739.932	5287
740.045	6159
740.158	5696
740.271	6498
740.384	4844
740.497	5767
740.610	6216
740.723	5363
740.836	5786
740.949	6132
741.062	7484
741.174	6171
741.287	5974
741.400	4829
741.513	4876
741.626	6158
741.739	5380
741.851	5464
741.964	5551
742.077	5843
742.189	4853
742.302	5812
742.415	5659
742.527	4950
742.640	4576
742.753	5350
742.865	5034
742.978	4756
743.090	4777
743.203	5918
743.316	5254
743.428	4355
743.541	4464
743.653	4614
743.766	5139
743.878	5196
743.990	6140
744.103	6607
744.215	4656
744.327	5507
744.440	5692
744.552	8802
744.664	5998
744.777	5238
744.889	4247
745.001	4524
745.113	5377
745.226	4230
745.338	5341
745.450	5773
745.562	3892
745.674	4085
745.786	4577
745.898	4095
746.010	5463
746.122	4653
746.234	4293
746.347	4413
746.459	4849
746.570	3601
746.682	5005
746.794	4968
746.906	4508
747.018	4473
747.130	4598
747.242	4913
747.354	5244
747.466	4845
747.577	3764
747.689	4684
747.801	4058
747.913	3891
748.024	3749
748.136	4009
748.248	4531
748.359	3926
748.471	4435
748.583	3811
748.694	5215
748.806	6017
748.918	5111
749.029	4223
749.141	5461
749.252	5894
749.364	5390
749.475	8769
749.587	6249
749.698	4222
749.809	3896
749.921	4660
750.032	3198
750.144	3481
750.255	3506
750.366	3944
750.478	3682
750.589	3768
750.700	4211
750.811	4636
750.923	5465
751.034	10195
751.145	9594
751.256	3963
751.367	4257
751.479	3981
751.590	3671
751.701	3994
751.812	4056
751.923	3159
752.034	3910
752.145	3553
752.256	3674
752.367	2960
752.478	4535
752.589	3800
752.700	4493
752.811	3669
752.922	3648
753.032	4249
753.143	4294
753.254	3073
753.365	4674
753.476	3421
753.586	4213
753.697	4219
753.808	3081
753.919	3778
754.029	2811
754.140	3784
754.251	3612
754.361	3931
754.472	3997
754.582	3814
754.693	4174
754.804	3681
754.914	3257
755.025	3393
755.135	3840
755.246	3205
755.356	3057
755.466	4229
755.577	3356
755.687	3814
755.798	2866
755.908	3340
756.018	3593
756.129	3650
756.239	4249
756.349	4032
756.460	3963
756.570	4728
756.680	4503
756.790	4039
756.900	3988
757.011	3645
757.121	3614
757.231	3305
757.341	3814
757.451	3524
757.561	3354
757.671	3341
757.781	3561
757.891	4692
758.001	3540
758.111	4122
758.221	4124
758.331	4575
758.441	5246
758.551	6131
758.661	5586
758.771	4618
758.880	4816
758.990	3454
759.100	4822
759.210	4325
759.320	4491
759.429	4359
759.539	5040
759.649	4844
759.758	5620
759.868	5705
759.978	5140
760.087	5844
760.197	5358
760.307	5299
760.416	5996
760.526	4838
760.635	6093
760.745	5208
760.854	5867
760.964	6282
761.073	5924
761.182	6087
761.292	6084
761.401	6063
761.511	5029
761.620	5314
761.729	5384
761.839	4800
761.948	6578
762.057	5150
762.166	6462
762.276	4290
762.385	5959
762.494	5209
762.603	5590
762.712	5092
762.822	5163
762.931	4651
763.040	4967
763.149	6015
763.258	5566
763.367	6834
763.476	7059
763.585	6323
763.694	5815
763.803	6872
763.912	7415
764.021	7717
764.130	7542
764.238	8604
764.347	8243
764.456	9045
764.565	8849
764.674	10559
764.783	11566
764.891	12034
765.000	13773
765.109	15518
765.217	16745
765.326	20770
765.435	25116
765.543	29581
765.652	35234
765.761	47410
765.869	68031
765.978	107148
766.086	183404
766.195	350956
766.303	710541
766.412	935625
766.520	838293
766.629	445068
766.737	206509
766.846	121572
766.954	81378
767.062	60039
767.171	48102
767.279	35066
767.387	28559
767.496	23935
767.604	20542
767.712	17996
767.820	17227
767.928	15989
768.037	15203
768.145	14167
768.253	14757
768.361	12421
768.469	13041
768.577	13068
768.685	14162
768.793	15122
768.901	16424
769.009	18590
769.117	22925
769.225	29926
769.333	43515
769.441	72169
769.549	134375
769.657	296003
769.765	674363
769.873	785630
769.981	428577
770.088	155876
770.196	79951
770.304	52404
770.412	37722
770.519	29879
770.627	23391
770.735	18781
770.842	16055
770.950	14436
771.058	13124
771.165	12522
771.273	11505
771.380	11221
771.488	11478
771.595	9393
771.703	9316
771.810	9109
771.918	8304
772.025	8581
772.133	9165
772.240	8470
772.348	9513
772.455	8846
772.562	8082
772.670	7482
772.777	8411
772.884	7679
772.991	6808
773.099	6786
773.206	6289
773.313	6756
773.420	6872
773.528	5824
773.635	6124
773.742	6892
773.849	6863
773.956	6121
774.063	6354
774.170	5838
774.277	6704
774.384	4890
774.491	6339
774.598	6019
774.705	6001
774.812	6976
774.919	6281
775.026	5450
775.133	6236
775.239	5280
775.346	5559
775.453	5030
775.560	5507
775.667	6087
775.773	4395
775.880	6108
775.987	4417
776.093	4777
776.200	4708
776.307	3786
776.413	4883
776.520	4770
776.627	4468
776.733	4557
776.840	3930
776.946	6602
777.053	4700
777.159	5284
777.266	2727
777.372	5036
777.478	5065
777.585	4888
777.691	4210
777.798	5577
777.904	5778
778.010	7399
778.117	6004
778.223	4590
778.329	4751
778.435	4295
778.542	5257
778.648	4068
778.754	3551
778.860	4485
778.966	4221
779.072	4037
779.178	4867
779.284	4115
779.391	3684
779.497	4547
779.603	5074
779.708	4285
779.815	9502
779.920	28430
780.026	30779
780.132	6491
780.238	3443
780.344	3284
780.450	5340
780.556	3371
780.661	3839
780.767	4214
780.873	3300
780.979	4524
781.085	4445
781.190	3675
781.296	3442
781.402	3251
781.507	3677
781.613	3007
781.719	3368
781.824	3347
781.930	4678
782.035	3800
782.141	3656
782.246	2923
782.352	2933
782.457	3000
782.563	3010
782.668	3136
782.773	3960
782.879	2903
782.984	4456
783.090	4063
783.195	5698
783.300	3868
783.405	3970
783.511	2638
783.616	4319
783.721	3759
783.826	2755
783.932	2690
784.037	3380
784.142	2519
784.247	3252
784.352	3713
784.457	3810
784.562	3022
784.667	3514
784.772	2405
784.877	2988
784.982	2834
785.087	3345
785.192	3538
785.297	2437
785.402	2792
785.507	3076
785.611	3281
785.716	2822
785.821	2693
785.926	3028
786.031	2392
786.135	2952
786.240	2572
786.345	1856
786.450	3401
786.554	2337
786.659	2450
786.763	1538
786.868	2635
786.973	3506
787.077	2280
787.182	1333
787.286	3139
787.391	2375
787.495	2097
787.600	2770
787.704	2606
787.809	1749
787.913	1569
788.017	2899
788.122	1962
788.226	1980
788.330	1669
788.435	2400
788.539	2745
788.643	1363
788.747	1916
788.852	3076
788.956	1631
789.060	2370
789.164	2013
789.268	1185
789.372	2429
789.476	1963
789.580	1364
789.684	1744
789.788	2787
789.892	2602
789.996	2126
790.100	1923
790.204	1904
790.308	2678
790.412	1548
790.516	3302
790.620	1615
790.724	2769
790.828	1714
790.931	1821
791.035	4141
791.139	1650
791.242	857
791.346	2441
791.450	1354
791.554	1455
791.657	1266
791.761	2527
791.864	2122
791.968	3252
792.072	2019
792.175	2131
792.279	1561
792.382	2079
792.486	1871
792.589	1727
792.693	2410
792.796	1111
792.899	2298
793.003	2268
793.106	769
793.209	1853
793.313	2407
793.416	915
793.519	2605
793.623	4075
793.726	4119
793.829	1915
793.932	1922
794.035	1238
794.138	2316
794.242	2097
794.345	2089
794.448	4228
794.551	5512
794.654	14661
794.757	15115
794.860	3189
794.963	2032
795.066	1013
795.169	2748
795.272	1329
795.375	2089
795.477	1274
795.580	1602
795.683	415
795.786	2367
795.889	811
795.991	2861
796.094	3053
796.197	92
796.300	2848
796.402	1466
796.505	748
796.608	1174
796.710	2559
796.813	2120
796.915	2147
797.018	1716
797.120	1798
797.223	1088
797.326	2123
797.428	1678
797.530	1586
797.633	1725
797.735	2371
797.838	2604
797.940	3025
798.042	1408
798.145	1064
798.247	2677
798.349	133
798.452	1670
798.554	2218
798.656	562
798.758	2517
798.860	1121
798.962	1734
799.065	1125
799.167	948
799.269	2436
799.371	2909
799.473	2172
799.575	1844
799.677	2065
799.779	4405
799.881	2303
799.983	2980
800.085	1353
800.187	645
800.289	182
800.390	1275
800.492	1707
800.594	1898
800.696	1067
800.798	1798
800.899	1202
801.001	510
801.103	964
801.205	913
801.306	471
801.408	622
801.509	863
801.611	1603
801.713	1805
801.814	635
801.916	1061
802.017	1462
802.119	756
802.220	1406
802.322	-541
802.423	2937
802.525	311
802.626	1555
802.727	1485
802.829	2157
802.930	-629
803.031	2902
803.133	409
803.234	898
803.335	1429
803.436	1032
803.538	1226
803.639	493
803.740	1493
803.841	615
803.942	1014
804.043	2151
804.144	495
804.245	844
804.346	696
804.447	1072
804.548	2200
804.649	2862
804.750	722
804.851	917
804.952	345
805.053	1177
805.154	53
805.255	1482
805.355	999
805.456	-74
805.557	-364
805.658	-52
805.758	1187
805.859	1807
805.960	956
806.061	794
806.161	-54
806.262	869
806.362	1019
806.463	713
806.564	1518
806.664	1070
806.765	1185
806.865	1277
806.966	1017
807.066	228
807.166	1288
807.267	1600
807.367	413
807.468	1136
807.568	-1101
807.668	1618
807.769	723
807.869	436
807.969	886
808.069	1538
808.170	781
808.270	292
808.370	954
808.470	1750
808.570	24
808.670	1448
808.770	1572
808.870	458
808.970	315
809.070	840
809.170	962
809.271	1028
809.370	382
809.470	178
809.570	52
809.670	471
809.770	366
809.870	1024
809.970	1204
810.070	1176
810.169	303
810.269	-518
810.369	1730
810.469	745
810.568	187
810.668	-172
810.768	165
810.867	1341
810.967	63
811.066	677
811.166	386
811.265	1339
811.365	1201
811.464	494
811.564	749
811.663	1481
811.763	-559
811.862	964
811.962	1593
812.061	207
812.160	-80
812.260	1475
812.359	1010
812.458	353
812.557	1801
812.657	837
812.756	1004
812.855	725
812.954	-425
813.053	819
813.153	572
813.252	-303
813.351	866
813.450	649
813.549	269
813.648	915
813.747	371
813.846	1399
813.945	-58
814.044	256
814.143	1041
814.242	1377
814.341	-21
814.439	473
814.538	596
814.637	984
814.736	491
814.835	1916
814.933	1032
815.032	1681
815.131	1313
815.229	2542
815.328	3432
815.427	2221
815.525	1884
815.624	2062
815.722	231
815.821	2314
815.919	1959
816.018	1273
816.116	3222
816.215	2168
816.313	2357
816.412	2254
816.510	3120
816.609	4223
816.707	3126
816.805	2188
816.904	2413
817.002	2817
817.100	4065
817.198	3647
817.296	2478
817.395	3491
817.493	4188
817.591	4165
817.689	3969
817.787	5463
817.885	8325
817.983	15763
818.081	33316
818.179	80557
818.277	190181
818.375	148176
818.473	41009
818.571	17181
818.669	11515
818.767	9751
818.865	9871
818.963	12085
819.061	16405
819.158	30440
819.256	67136
819.354	156415
819.452	318796
819.549	188351
819.647	54808
819.745	21246
819.842	14355
819.940	9780
820.038	6969
820.135	5853
820.233	6548
820.330	3889
820.428	3949
820.525	4939
820.623	2679
820.720	3179
820.818	2320
820.915	3669
821.012	2717
821.110	1445
821.207	2377
821.304	1254
821.402	1422
821.499	2645
821.596	2729
821.693	1558
821.791	2240
821.888	3595
821.985	5547
822.082	3253
822.179	3052
822.276	2181
822.373	1083
822.470	1573
822.567	2085
822.664	1002
822.761	2239
822.858	359
822.955	1102
823.052	1645
823.149	1379
823.246	1172
823.343	643
823.440	1504
823.536	1306
823.633	1169
823.730	966
823.827	921
823.923	898
824.020	2859
824.117	1106
824.213	632
824.310	1372
824.407	1207
824.503	1291
824.600	1686
824.696	985
824.793	2072
824.889	699
824.986	547
825.082	1171
825.179	1175
825.275	785
825.371	743
825.468	1517
825.564	154
825.660	785
825.757	915
825.853	1875
825.949	574
826.045	968
826.142	1286
826.238	1362
826.334	1375
826.430	228
826.526	1126
826.622	478
826.718	1857
826.814	551
826.910	1878
827.006	336
827.102	563
827.198	1528
827.294	-229
827.390	749
827.486	1519
827.582	-309
827.678	130
827.774	1193
827.869	159
827.965	1066
828.061	26
828.157	1090
828.252	1374
828.348	101
828.444	682
828.539	189
828.635	491
828.731	1148
828.826	-20
828.922	1058
829.017	1085
829.113	768
829.208	303
829.304	781
829.399	2104
829.495	507
829.590	794
829.685	143
829.781	1432
829.876	615
829.971	455
830.066	-281
830.162	978
830.257	78
830.352	-413
830.447	678
830.543	759
830.638	-588
830.733	1695
830.828	521
830.923	868
831.018	850
831.113	1262
831.208	-141
831.303	-56
831.398	485
831.493	175
831.588	833
831.683	316
831.778	110
831.873	322
831.967	1630
832.062	-485
832.157	2
832.252	1154
832.346	-98
832.441	1593
832.536	2693
832.631	3788
832.725	3754
832.820	446
832.914	867
833.009	1429
833.104	924
833.198	1240
833.293	760
833.387	1437
833.482	764
833.576	331
833.670	712
833.765	1374
833.859	54
833.954	1680
834.048	49
834.142	942
834.237	489
834.331	1279
834.425	352
834.519	390
834.613	648
834.708	379
834.802	430
834.896	-480
834.990	86
835.084	116
835.178	385
835.272	152
835.366	-104
835.460	314
835.554	285
835.648	80
835.742	-44
835.836	-101
835.930	-382
836.024	807
836.117	630
836.211	-133
836.305	564
836.399	1537
836.493	-563
836.586	704
836.680	-228
836.774	486
836.867	1205
836.961	145
837.055	-204
837.148	119
837.242	78
837.335	303
837.429	-635
837.522	-72
837.616	266
837.709	1385
837.803	665
837.896	1109
837.989	259
838.083	1552
838.176	1928
838.269	808
838.363	1260
838.456	44
838.549	1405
838.642	1785
838.735	4526
838.829	2156
838.922	-654
839.015	800
839.108	-107
839.201	223
839.294	-122
839.387	378
839.480	-545
839.573	619
839.666	874
839.759	309
839.852	-736
839.945	762
840.038	-515
840.131	646
840.223	168
840.316	1130
840.409	-363
840.502	-225
840.594	554
840.687	-756
840.780	-755
840.873	-26
840.965	-308
841.058	1133
841.150	1864
841.243	416
841.336	149
841.428	-618
841.521	-383
841.613	164
841.706	-67
841.798	-117
841.890	2
841.983	-913
842.075	395
842.167	571
842.260	-759
842.352	1280
842.444	546
842.537	1528
842.629	3113
842.721	228
842.813	397
842.905	-1131
842.997	-743
843.090	125
843.182	211
843.274	1249
843.366	5199
843.458	8631
843.550	5368
843.642	228
843.734	32
843.826	117
843.918	1103
844.009	-721
844.101	-161
844.193	-518
844.285	-129
844.377	896
844.469	86
844.560	-654
844.652	34
844.744	145
844.835	-628
844.927	691
845.019	-220
845.110	435
845.202	-523
845.293	-159
845.385	-697
845.476	-57
845.568	-62
845.659	-102
845.751	-98
845.842	-154
845.934	-624
846.025	-476
846.116	-331
846.208	-426
846.299	-147
846.390	-582
846.482	69
846.573	92
846.664	1303
846.755	1278
846.846	993
846.937	-582
847.029	-168
847.120	-776
847.211	-377
847.302	1304
847.393	-1581
847.484	65
847.575	-224
847.666	-294
847.757	-1056
847.847	-303
847.938	93
848.029	-393
848.120	-700
848.211	-27
848.302	-810
848.392	250
848.483	-90
848.574	-736
848.664	-566
848.755	46
848.846	-572
848.936	-314
849.027	-323
849.118	-56
849.208	-206
849.299	1061
849.389	1896
849.480	5407
849.570	11483
849.661	22080
849.751	37714
849.841	12396
849.932	874
850.022	262
850.112	576
850.203	-173
850.293	264
850.383	259
850.474	-694
850.564	-657
850.654	-345
850.744	-351
850.834	193
850.924	-347
851.014	-120
851.104	-383
851.194	-1081
851.284	533
851.374	1421
851.464	394
851.554	-167
851.644	-161
851.734	424
851.824	-578
851.914	-409
852.004	303
852.094	-635
852.183	-298
852.273	-517
852.363	-296
852.452	-572
852.542	360
852.632	-1057
852.721	-912
852.811	-715
852.901	523
852.990	468
853.080	437
853.169	-113
853.259	966
853.348	-103
853.438	780
853.527	2239
853.617	2489
853.706	6651
853.795	13936
853.885	31451
853.974	61830
854.063	114420
854.152	174806
854.242	63739
854.331	10870
854.420	3485
854.509	3186
854.598	2416
854.687	1195
854.777	1620
854.866	739
854.955	425
855.044	315
855.133	-817
855.222	663
855.311	-597
855.400	-134
855.488	-792
855.577	-431
855.666	-328
855.755	900
855.844	261
855.933	608
856.021	33
856.110	-160
856.199	-162
856.288	397
856.376	-608
856.465	-458
856.554	-173
856.642	-691
856.731	-635
856.819	302
856.908	247
856.996	-956
857.085	-591
857.173	233
857.262	-1257
857.350	-618
857.438	-438
857.527	745
857.615	-863
857.703	-15
857.792	-713
857.880	-349
857.968	-740
858.056	188
858.145	35
858.233	-113
858.321	-1195
858.409	-271
858.497	-685
858.585	-654
858.673	-1200
858.761	-604
858.849	-959
858.937	-1320
859.025	-176
859.113	255
859.201	-1068
859.289	-46
859.377	-550
859.465	43
859.552	-28
859.640	-716
859.728	-277
859.816	23
859.903	-676
859.991	-784
860.079	-1595
860.166	-344
860.254	-892
860.342	199
860.429	-537
860.517	-1372
860.604	-40
860.692	-222
860.779	-1166
860.867	39
860.954	-41
861.042	-139
861.129	57
861.216	-69
861.304	-812
861.391	-156
861.478	-477
861.565	-385
861.653	-53
861.740	-1126
861.827	-169
861.914	-726
862.001	-377
862.089	-513
862.176	-429
862.263	-535
862.350	102
862.437	-709
862.524	-604
862.611	-136
862.698	595
862.785	-282
862.871	-782
862.958	-532
863.045	-807
863.132	-133
863.219	-1204
863.306	-810
863.392	-203
863.479	-318
863.566	-840
863.652	406
863.739	-659
863.826	-732
863.912	-520
863.999	-1387
864.086	-294
864.172	-305
864.259	-574
864.345	-207
864.432	222
864.518	-861
864.604	-835
864.691	-731
864.777	-79
864.863	316
864.950	1106
865.036	692
865.122	1105
865.209	1758
865.295	1403
865.381	1265
865.467	1013
865.553	2994
865.639	3426
865.726	7673
865.812	15359
865.898	32395
865.984	48957
866.070	89408
866.156	95306
866.242	24432
866.328	6284
866.414	2162
866.499	1801
866.585	1604
866.671	1265
866.757	1674
866.843	1756
866.928	862
867.014	310
867.100	771
867.186	1014
867.271	1031
867.357	1638
867.442	1594
867.528	1430
867.614	247
867.699	488
867.785	808
867.870	633
867.956	938
868.041	846
868.127	754
868.212	497
868.297	857
868.383	262
868.468	1541
868.553	2660
868.639	2860
868.724	5197
868.809	4586
868.894	811
868.979	1078
869.065	439
869.150	-828
869.235	38
869.320	-429
869.405	-362
869.490	202
869.575	-217
869.660	685
869.745	273
869.830	83
869.915	423
870.000	280
870.085	164
870.169	408
870.254	231
870.339	75
870.424	142
870.509	855
870.593	445
870.678	251
870.763	78
870.847	156
870.932	-252
871.016	442
871.101	341
871.186	-45
871.270	-43
871.355	-717
871.439	743
871.523	288
871.608	-400
871.692	-469
871.777	47
871.861	446
871.945	80
872.030	-164
872.114	-618
872.198	544
872.282	-633
872.367	353
872.451	-705
872.535	-880
872.619	-186
872.703	-376
872.787	90
872.871	-53
872.955	302
873.039	-728
873.123	-478
873.207	725
873.291	-207
873.375	-66
873.459	316
873.543	49
873.627	-92
873.711	-273
873.794	16
873.878	-976
873.962	-907
874.045	-303
874.129	556
874.137	492
874.213	-147
874.245	-374
874.296	-743
874.352	-537
874.380	-438
874.460	-72
874.464	-58
874.547	-164
874.568	8
874.631	528
874.676	-39
874.714	-521
874.784	-426
874.798	-406
874.881	828
874.892	696
874.965	-185
874.999	-166
875.048	-165
875.107	-438
875.131	-550
875.215	8
875.215	8
875.298	258
875.323	76
875.381	-330
875.430	288
875.465	747
875.538	303
875.548	224
875.631	-27
875.646	-43
875.714	-76
875.753	-162
875.798	-258
875.861	119
875.881	246
875.964	-352
875.968	-353
876.047	-367
876.076	-285
876.130	-115
876.183	151
876.213	293
876.291	743
876.296	765
876.379	-80
876.398	-296
876.462	-885
876.506	-537
876.545	-258
876.613	-260
876.628	-251
876.711	-10
876.721	34
876.794	395
876.828	302
876.877	159
876.935	44
876.960	-23
877.043	-203
877.043	-206
877.125	-613
877.150	-209
877.208	550
877.258	613
877.291	758
877.365	69
877.374	-13
877.456	14
877.472	117
877.539	565
877.579	344
877.622	-77
877.687	2
877.704	127
877.787	25
877.794	82
877.869	482
877.901	424
877.952	388
878.008	333
878.034	317
878.115	-539
878.117	-557
878.199	-478
878.222	-497
878.282	-449
878.329	-378
878.364	-373
878.437	85
878.447	182
878.529	103
878.544	210
878.611	416
878.651	-129
878.694	-581
878.758	127
878.776	322
878.858	589
878.865	540
878.941	-268
878.972	-184
879.023	24
879.078	-104
879.105	-71
879.185	144
879.187	148
879.269	-18
879.292	61
879.351	196
879.399	344
879.433	464
879.506	688
879.516	704
879.598	-39
879.613	-106
879.680	-254
879.720	15
879.762	260
879.827	-50
879.844	-147
879.926	47
879.933	45
880.007	140
880.040	-82
880.089	-332
880.147	253
880.171	501
880.253	1782
880.254	1790
880.335	3378
880.360	3562
880.417	3984
880.467	5725
880.499	6762
880.574	7588
880.580	7583
880.662	2235
880.680	1806
880.744	634
880.787	292
880.825	97
880.893	14
880.907	35
880.989	33
881.000	31
881.070	-192
881.106	-1
881.152	219
881.213	143
881.233	178
881.315	42
881.319	33
881.396	-77
881.426	82
881.478	512
881.532	1030
881.559	1076
881.639	217
881.641	203
881.722	11
881.745	5
881.803	184
881.852	90
881.885	81
881.958	471
881.966	519
882.047	906
882.064	943
882.129	712
882.171	666
882.210	896
882.277	1672
882.291	1738
882.372	273
882.383	249
882.454	369
882.489	213
882.535	-118
882.596	91
882.616	298
882.697	190
882.702	221
882.778	701
882.808	743
882.859	339
882.914	103
882.940	225
883.020	430
883.021	435
883.102	797
883.127	741
883.183	520
883.233	499
883.264	387
883.339	399
883.345	406
883.426	57
883.445	88
883.507	560
883.551	512
883.587	401
883.657	703
883.668	713
883.749	576
883.763	501
883.830	280
883.869	268
883.910	292
883.975	524
883.991	587
884.072	424
884.081	402
884.152	157
884.187	93
884.233	394
884.292	997
884.314	834
884.394	-205
884.398	-260
884.475	-75
884.504	157
884.555	440
884.610	443
884.636	453
884.716	463
884.716	470
884.797	938
884.821	1036
884.877	827
884.927	681
884.958	663
885.033	625
885.038	622
885.118	277
885.139	242
885.199	213
885.244	255
885.279	666
885.350	1106
885.359	1045
885.439	893
885.456	780
885.520	349
885.561	239
885.600	394
885.667	465
885.680	471
885.760	401
885.773	424
885.840	633
885.878	743
885.920	865
885.984	824
886.000	760
886.080	602
886.089	584
886.160	520
886.195	436
886.240	450
886.300	540
886.320	620
886.400	931
886.406	928
886.480	451
886.511	411
886.560	750
886.616	1002
886.640	1074
886.720	1145
886.722	1147
886.800	1121
886.827	977
886.879	814
886.932	832
886.959	875
887.038	922
887.039	929
887.119	1110
887.143	1138
887.198	1001
887.248	857
887.278	695
887.354	274
887.358	300
887.437	855
887.459	946
887.517	874
887.564	887
887.596	904
887.669	887
887.676	894
887.755	957
887.774	922
887.835	960
887.880	1052
887.914	892
887.985	527
887.994	616
888.073	1425
888.090	1558
888.153	1047
888.195	760
888.232	695
888.300	574
888.311	660
888.391	1112
888.405	1194
888.470	549
888.510	163
888.549	407
888.615	883
888.628	890
888.708	737
888.720	736
888.787	356
888.825	59
888.866	-106
888.930	-281
888.945	-141
889.024	564
889.035	660
889.103	624
889.140	584
889.182	348
889.245	14
889.261	133
889.340	718
889.349	782
889.419	792
889.454	794
889.498	864
889.559	959
889.577	905
889.656	662
889.664	638
889.735	1059
889.768	1257
889.814	1389
889.873	1555
889.978	781
890.083	948
890.187	-274
890.292	1050
890.397	902
890.501	238
890.606	202
890.710	1409
890.815	1455
890.919	873
891.024	597
891.128	770
891.233	707
891.337	938
891.442	1377
891.546	1329
891.650	379
891.755	1175
891.859	2178
891.963	372
892.068	615
892.172	712
892.276	-261
892.380	1025
892.484	432
892.589	473
892.693	927
892.797	768
892.901	-73
893.005	627
893.109	850
893.213	1451
893.317	1231
893.421	341
893.525	759
893.629	789
893.733	358
893.837	596
893.941	536
894.045	744
894.148	602
894.252	809
894.356	1347
894.460	724
894.564	1296
894.667	1012
894.771	669
894.875	58
894.978	-45
895.082	1046
895.186	1161
895.289	900
895.393	877
895.496	834
895.600	71
895.703	-273
895.807	873
895.910	412
896.014	644
896.117	953
896.221	1002
896.324	598
896.427	343
896.531	671
896.634	652
896.737	328
896.840	674
896.944	-73
897.047	766
897.150	706
897.253	518
897.356	-203
897.460	172
897.563	339
897.666	824
897.769	699
897.872	410
897.975	584
898.078	684
898.181	815
898.284	952
898.387	544
898.490	923
898.593	500
898.695	-223
898.798	217
898.901	1073
899.004	493
899.107	434
899.209	217
899.312	1105
899.415	828
899.518	954
899.620	951
899.723	793
899.826	809
899.928	1332
900.031	459
900.133	136
900.236	646
900.338	62
900.441	-81
900.543	439
900.646	482
900.748	995
900.851	1004
900.953	196
901.055	406
901.158	298
901.260	294
901.362	1280
901.465	-956
901.567	701
901.669	228
901.771	-138
901.873	436
901.976	836
902.078	659
902.180	242
902.282	920
902.384	-102
902.486	758
902.588	480
902.690	749
902.792	324
902.894	1260
902.996	409
903.098	341
903.200	-137
903.302	877
903.404	417
903.505	26
903.607	695
903.709	784
903.811	414
903.913	264
904.014	227
904.116	227
904.218	1147
904.319	941
904.421	1195
904.523	570
904.624	786
904.726	786
904.827	619
904.929	-89
905.030	333
905.132	502
905.233	1047
905.335	-745
905.436	344
905.537	348
905.639	591
905.740	117
905.841	383
905.943	-153
906.044	855
906.145	575
906.247	-272
906.348	-725
906.449	370
906.550	1226
906.651	1217
906.752	821
906.854	812
906.955	185
907.056	-64
907.157	243
907.258	260
907.359	329
907.460	311
907.561	902
907.662	173
907.762	501
907.863	687
907.964	447
908.065	504
908.166	278
908.267	515
908.367	18
908.468	114
908.569	814
908.670	454
908.770	164
908.871	193
908.971	291
909.072	-211
909.173	-550
909.273	286
909.374	555
909.474	320
909.575	981
909.675	-45
909.776	506
909.876	-113
909.977	1078
910.077	486
910.177	-370
910.278	500
910.378	403
910.478	707
910.579	830
910.679	-37
910.779	731
910.879	997
910.980	-116
911.080	298
911.180	-627
911.280	556
911.380	451
911.480	988
911.580	280
911.680	373
911.780	261
911.880	587
911.980	574
912.080	-399
912.180	1173
912.280	543
912.380	419
912.480	845
912.580	23
912.679	1780
912.779	184
912.879	201
912.979	596
913.078	-276
913.178	-185
913.278	454
913.377	282
913.477	439
913.577	-79
913.676	1136
913.776	198
913.875	297
913.975	37
914.074	-10
914.174	399
914.273	-63
914.373	-172
914.472	472
914.572	174
914.671	1
914.770	-190
914.870	-240
914.969	331
915.068	-13
915.167	556
915.267	501
915.366	478
915.465	-573
915.564	-314
915.663	203
915.763	625
915.862	749
915.961	639
916.060	-35
916.159	-13
916.258	87
916.357	76
916.456	1319
916.555	-306
916.654	-338
916.752	1011
916.851	288
916.950	-360
917.049	-89
917.148	-450
917.247	732
917.345	478
917.444	651
917.543	37
917.642	906
917.740	283
917.839	490
917.937	306
918.036	912
918.135	166
918.233	775
918.332	-538
918.430	-703
918.529	183
918.627	559
918.726	61
918.824	347
918.923	858
919.021	-5
919.119	-58
919.218	25
919.316	668
919.414	129
919.512	947
919.611	478
919.709	61
919.807	787
919.905	566
920.003	744
920.102	310
920.200	492
920.298	636
920.396	752
920.494	-14
920.592	468
920.690	716
920.788	770
920.886	776
920.984	609
921.082	519
921.180	701
921.277	593
921.375	1152
921.473	767
921.571	746
921.669	926
921.766	67
921.864	1010
921.962	1679
922.060	256
922.157	1544
922.255	469
922.352	243
922.450	1064
922.548	1147
922.645	1374
922.743	1583
922.840	3322
922.938	2377
923.035	2784
923.133	2384
923.230	1995
923.327	2884
923.425	2782
923.522	2924
923.619	2030
923.717	2736
923.814	2510
923.911	2543
924.008	3226
924.106	2018
924.203	2455
924.300	1979
924.397	2124
924.494	2374
924.591	2916
924.688	2571
924.786	2081
924.883	2136
924.979	2305
925.077	2528
925.173	1657
925.270	2643
925.367	1944
925.464	2879
925.561	1844
925.658	2846
925.755	1702
925.852	2605
925.948	1682
926.045	2442
926.142	1766
926.239	2199
926.335	2030
926.432	2990
926.529	2264
926.625	2494
926.722	1509
926.818	2238
926.915	1995
927.011	2001
927.108	2224
927.204	1480
927.301	1533
927.397	1545
927.494	2144
927.590	1247
927.687	1943
927.783	2489
927.879	1719
927.976	1306
928.072	1956
928.168	2009
928.264	1499
928.361	1450
928.457	2054
928.553	1435
928.649	1867
928.745	1671
928.841	1173
928.937	2535
929.033	2041
929.129	1869
929.225	2060
929.321	1786
929.417	1946
929.513	1934
929.609	1520
929.705	1437
929.801	1916
929.897	1536
929.993	1356
930.089	1258
930.184	1305
930.280	1985
930.376	1753
930.471	1523
930.567	1737
930.663	1671
930.758	1275
930.854	1950
930.950	1442
931.045	495
931.141	1530
931.236	1253
931.332	1813
931.427	1260
931.523	1663
931.618	1363
931.714	928
931.809	796
931.905	1902
932.000	855
932.095	35
932.191	2377
932.286	1501
932.381	1440
932.476	1371
932.572	1009
932.667	1528
932.762	953
932.857	794
932.952	1554
933.047	1591
933.142	629
933.237	1014
933.332	1560
933.427	1894
933.522	817
933.617	1256
933.712	777
933.807	1496
933.902	1154
933.997	1551
934.092	374
934.187	1167
934.282	1572
934.376	1018
934.471	1946
934.566	-18
934.661	619
934.755	924
934.850	1763
934.945	1119
935.039	1039
935.134	444
935.228	1556
935.323	794
935.417	870
935.512	-19
935.606	268
935.701	540
935.795	1482
935.890	1267
935.984	1093
936.079	234
936.173	1109
936.267	-141
936.362	574
936.456	1334
936.550	884
936.644	990
936.738	666
936.833	1124
936.927	1340
937.021	448
937.115	930
937.209	359
937.303	1032
937.397	75
937.491	625
937.585	307
937.679	747
937.773	36
937.867	868
937.961	471
938.055	1144
938.149	1084
938.243	295
938.337	396
938.430	895
938.524	1479
938.618	746
938.712	672
938.805	927
938.899	674
938.993	1191
939.086	386
939.180	355
939.274	537
939.367	1435
939.461	793
939.554	687
939.648	183
939.741	709
939.835	-131
939.928	952
940.022	326
940.115	507
940.208	868
940.302	1573
940.395	1532
940.488	-340
940.582	120
940.675	-123
940.768	297
940.861	313
940.954	1034
941.048	228
941.141	-97
941.234	-322
941.327	248
941.420	654
941.513	618
941.606	-621
941.699	1394
941.792	609
941.885	-28
941.978	62
942.071	-271
942.164	-1023
942.257	564
942.349	428
942.442	243
942.535	221
942.628	1
942.721	646
942.813	-677
942.906	942
942.999	7
943.091	252
943.184	-46
943.277	-143
943.369	-72
943.462	-92
943.554	-286
943.647	90
943.739	374
943.832	682
943.924	-1305
944.017	371
944.109	-662
944.201	140
944.294	1070
944.386	404
944.478	-376
944.571	-1376
944.663	-527
944.755	-78
944.847	318
944.940	-538
945.032	59
945.124	824
945.216	570
945.308	351
945.400	212
945.492	21
945.584	99
945.676	295
945.768	646
945.860	247
945.952	-247
946.044	368
946.136	60
946.228	56
946.320	229
946.412	195
946.503	390
946.595	583
946.687	-273
946.779	125
946.870	160
946.962	-120
947.054	465
947.145	319
947.237	344
947.329	187
947.420	214
947.512	646
947.603	-472
947.695	178
947.786	-379
947.878	-379
947.969	1320
948.061	-189
948.152	-247
948.243	-504
948.335	-1455
948.426	-300
948.517	-690
948.609	-629
948.700	-692
948.791	-450
948.882	781
948.973	186
949.065	188
949.156	580
949.247	-518
949.338	-13
949.429	39
949.520	-231
949.611	-1151
949.702	-207
949.793	-33
949.884	380
949.975	158
950.066	101
950.157	-1036
950.247	205
950.338	-358
950.429	542
950.520	-342
950.611	-585
950.701	502
950.792	359
950.883	-72
950.973	187
951.064	-374
951.155	180
951.245	270
951.336	580
951.427	-11
951.517	970
951.608	-664
951.698	421
951.788	-216
951.879	-122
951.969	-983
952.060	-593
952.150	-10
952.240	1094
952.331	-1715
952.421	1411
952.511	183
952.602	-446
952.692	-886
952.782	-764
952.872	-575
952.962	-48
953.052	-281
953.143	29
953.233	-125
953.323	629
953.413	-1023
953.503	-165
953.593	-312
953.683	-229
953.773	-794
953.863	-139
953.953	-770
954.042	326
954.132	-1486
954.222	-380
954.312	-952
954.402	-660
954.492	539
954.581	272
954.671	-369
954.761	156
954.850	63
954.940	383
955.030	149
955.119	-95
955.209	-389
955.298	-215
955.388	-770
955.477	599
955.567	-973
955.656	835
955.746	533
955.835	-198
955.925	-937
956.014	-233
956.103	683
956.193	-117
956.282	-634
956.371	501
956.461	-611
956.550	-253
956.639	-601
956.728	58
956.817	-187
956.906	125
956.995	595
957.085	-205
957.174	-290
957.263	-345
957.352	-409
957.441	-145
957.530	538
957.619	272
957.708	-444
957.796	620
957.885	-124
957.974	-871
958.063	133
958.152	-811
958.241	-353
958.329	-141
958.418	-594
958.507	-334
958.596	532
958.684	-850
958.773	14
958.861	-543
958.950	-51
959.039	-25
959.127	-519
959.216	-189
959.304	-430
959.393	634
959.481	-427
959.570	282
959.658	-983
959.746	-551
959.835	-420
959.923	430
960.011	131
960.100	340
960.188	346
960.276	291
960.365	-31
960.453	112
960.541	-795
960.629	-27
960.717	-874
960.805	-630
960.893	-3
960.981	-916
961.069	-96
961.158	-151
961.245	747
961.333	-548
961.421	-426
961.509	-291
961.597	-179
961.685	-381
961.773	-396
961.861	-72
961.949	558
962.036	-1489
962.124	262
962.212	-419
962.299	-595
962.387	-1209
962.475	40
962.562	-621
962.650	180
962.738	-560
962.825	-728
962.913	-749
963.000	-394
963.088	519
963.175	-777
963.263	-463
963.350	235
963.438	-591
963.525	323
963.612	878
963.700	563
963.787	2096
963.874	725
963.962	46
964.049	-1202
964.136	72
964.223	-1436
964.310	182
964.398	-711
964.485	-1091
964.572	-707
964.659	-97
964.746	-633
964.833	116
964.920	-188
965.007	1010
965.094	88
965.181	-1046
965.268	-120
965.355	-273
965.441	-798
965.528	-1262
965.615	-378
965.702	-72
965.789	-1185
965.875	12
965.962	136
966.049	-1104
966.136	128
966.222	-717
966.309	93
966.395	206
966.482	53
966.569	-433
966.655	272
966.742	-714
966.828	-913
966.915	-360
967.001	-120
967.087	-875
967.174	-398
967.260	-470
967.347	-124
967.433	289
967.519	571
967.605	-209
967.692	-405
967.778	143
967.864	-654
967.950	-442
968.036	-1152
968.123	-102
968.209	-367
968.295	-1055
968.381	948
968.467	211
968.553	-2014
968.639	842
968.725	-1154
968.811	-641
968.897	156
968.983	-313
969.069	-1262
969.154	431
969.240	217
969.326	-1034
969.412	-713
969.497	-994
969.583	-710
969.669	879
969.755	-125
969.840	-204
969.926	-287
970.012	-963
970.097	365
970.183	380
970.268	-1166
970.354	127
970.439	-613
970.525	1061
970.610	-1175
970.696	304
970.781	-810
970.866	-1202
970.952	-235
971.037	-1604
971.122	-688
971.208	-301
971.293	-772
971.378	-1818
971.463	270
971.549	-511
971.634	-919
971.719	-781
971.804	-778
971.889	369
971.974	-661
972.059	-422
972.144	251
972.229	-41
972.314	-1123
972.399	148
972.484	-800
972.569	488
972.654	-1131
972.739	738
972.824	-757
972.908	-271
972.993	-512
973.078	-643
973.163	-834
973.247	-267
973.332	-2217
973.417	642
973.501	-1817
973.586	-360
973.671	-213
973.755	-1159
973.840	-704
973.924	-377
974.009	-772
974.093	-1113
974.178	-71
974.262	-194
974.346	-653
974.431	-204
974.515	-293
974.600	-379
974.684	95
974.768	-861
974.852	-116
974.937	-1833
975.021	-201
975.105	-1096
975.189	-308
975.273	-725
975.358	-1024
975.442	-996
975.526	131
975.610	-1593
975.694	-2150
975.778	-379
975.862	-857
975.946	-2512
976.030	704
976.114	-1245
976.198	-572
976.281	-934
976.365	-231
976.449	-979
976.533	-549
976.617	-805
976.700	-1011
976.784	-875
976.868	-1112
976.951	-183
977.035	-1383
977.119	-407
977.202	-788
977.286	-479
977.369	-732
977.453	-262
977.536	-1322
977.620	-947
977.703	-506
977.787	-2075
977.870	-33
977.953	325
978.037	-2396
978.120	-107
978.203	-684
978.287	-716
978.370	-399
978.453	-1277
978.536	-1516
978.620	-455
978.703	-113
978.786	-1075
978.869	-984
978.952	-1224
979.035	441
979.118	-3
979.201	-2267
979.284	201
979.367	-2015
979.450	-616
979.533	-754
979.616	-1026
979.699	-948
979.782	-872
979.865	-1253
979.948	-1195
980.030	-1145
980.113	-807
980.196	-1380
980.279	48
980.361	-1306
980.444	-1443
980.526	-922
980.609	-534
980.692	-1003
980.774	-984
980.857	-2056
980.939	-376
981.022	-577
981.104	55
981.187	-1754
981.269	-932
981.352	-743
981.434	-1820
981.516	-1044
981.599	-487
981.681	-197
981.763	-108
981.846	-1275
981.928	-1097
982.010	-1209
982.092	-1012
982.174	-289
982.256	-926
982.339	-1008
982.421	-669
982.503	-660
982.585	-1547
982.667	-944
982.749	-820
982.831	-207
982.913	-1752
982.995	-428
983.077	-2186
983.158	50
983.240	-1233
983.322	-196
983.404	-59
983.486	-445
983.568	101
983.649	-868
983.731	-379
983.813	-1017
983.894	-1512
983.976	-1998
984.058	-1108
984.139	-56
984.221	-2127
984.302	176
984.384	-534
984.465	-761
984.547	-515
984.628	-1522
984.710	-341
984.791	-1218
984.872	-1432
984.954	-1614
985.035	-850
985.116	-1480
985.198	-936
985.279	0
985.360	-1438
985.441	-1125
985.522	-219
985.604	-1736
985.685	-2575
985.766	237
985.847	532
985.928	-1154
986.009	-366
986.090	-972
986.171	-583
986.252	-1420
986.333	-530
986.414	-1122
986.495	-249
986.576	-1035
986.656	-951
986.737	-791
986.818	127
986.899	-2152
986.980	-641
987.060	-622
987.141	-1489
987.222	-873
987.302	-562
987.383	-628
987.464	-1229
987.544	80
987.625	-785
987.705	-849
987.786	-718
987.866	-2106
987.947	-1386
988.027	-1226
988.108	-1695
988.188	-833
988.268	-540
988.349	-729
988.429	-682
988.509	-498
988.589	-1215
988.670	-2697
988.750	243
988.830	-937
988.910	-556
988.990	-1532
989.070	-653
989.151	-773
989.231	-927
989.311	214
989.391	326
989.471	-242
989.551	-627
989.631	-1721
989.711	-214
989.791	-680
989.870	-1924
989.950	-369
990.030	-957
990.110	-988
990.190	-1272
990.269	-1186
990.349	-1395
990.429	-143
990.509	-1008
990.588	-1434
990.668	-1068
990.747	-743
990.827	-445
990.907	-889
990.986	-1244
991.066	-1015
991.145	-1434
991.225	-777
991.304	-716
991.383	9
991.463	-925
991.542	-595
991.622	-804
991.701	-1275
991.780	-1004
991.859	-874
991.939	-568
992.018	-1491
992.097	-1090
992.176	-597
992.256	-1483
992.335	-907
992.414	-116
992.493	-1051
992.572	-1614
992.651	-333
992.730	-1618
992.809	-1036
992.888	-1492
992.967	-739
993.046	-254
993.125	-1905
993.203	-1177
993.282	-1287
993.361	-1128
993.440	-868
993.519	-1218
993.597	-1534
993.676	-1676
993.755	-21
993.834	-153
993.912	-1709
993.991	-585
994.069	-1703
994.148	-1506
994.226	-1226
994.305	-824
994.384	-1547
994.462	76
994.540	-2684
994.619	-2076
994.697	-1083
994.776	-1715
994.854	-1207
994.932	-1007
995.011	-1367
995.089	-924
995.167	-1541
995.245	-554
995.324	-2542
995.402	-165
995.480	-1227
995.558	-1286
995.636	-1405
995.714	-719
995.792	-114
995.870	-1256
995.948	-425
996.026	-834
996.104	-2197
996.182	-991
996.260	-2016
996.338	-884
996.416	-2039
996.494	-2002
996.572	7
996.649	-601
996.727	-1184
996.805	-1072
996.883	-1428
996.960	-1576
997.038	-784
997.116	-99
997.193	-2413
997.271	-655
997.348	-1750
997.426	-897
997.504	-1980
997.581	-164
997.658	-1062
997.736	-2665
997.813	-1979
997.891	51
997.968	-932
998.046	-740
998.123	-1954
998.200	-771
998.277	-1841
998.355	-345
998.432	-2312
998.509	-972
998.586	-335
998.663	-423
998.741	-644
998.818	-810
998.895	-1625
998.972	-1164
999.049	-1623
999.126	-1357
999.203	-681
999.280	-1283
999.357	-1737
999.434	-1390
999.511	-761
999.587	-1104
999.664	-1665
999.741	-986
999.818	-781
999.895	-1314
999.971	-1307
1000.048	-1470
1000.125	-589
1000.202	-1000
1000.278	-1426
1000.355	-1060
1000.431	-2202
1000.508	-1614
1000.584	-216
1000.661	-1557
1000.738	-2101
1000.814	-947
1000.890	-1007
1000.967	-1047
1001.043	-1352
1001.120	-1968
1001.196	-1846
1001.272	-2186
1001.349	-1245
1001.425	-704
1001.501	-1423
1001.577	-1402
1001.654	-863
1001.730	-1924
1001.806	-1419
1001.882	-1068
1001.958	-550
1002.034	-854
1002.110	-1174
1002.186	-1545
1002.262	-1402
1002.338	-1982
1002.414	-321
1002.490	-974
1002.566	-1706
1002.642	-1247
1002.718	-1247
1002.794	-1184
1002.870	-1385
1002.945	-1389
1003.021	-1419
1003.097	-2109
1003.173	-1303
1003.248	-1402
1003.324	-1391
1003.400	-1660
1003.475	-1231
1003.551	-880
1003.626	-1510
1003.702	-1890
1003.777	-880
1003.853	-2292
1003.928	-2040
1004.004	-163
1004.079	-1312
1004.155	-981
1004.230	-2586
1004.305	-1027
1004.381	-2137
1004.456	-737
1004.531	-1884
1004.607	-693
1004.682	-727
1004.757	-1705
1004.832	-1506
1004.907	-1646
1004.982	-822
1005.057	-1078
1005.133	-2073
1005.208	-1790
1005.283	-1730
1005.358	-1430
1005.433	-1754
1005.508	-1185
1005.583	-2206
1005.657	-1612
1005.732	-762
1005.807	-1736
1005.882	-1735
1005.957	-1440
1006.032	-1016
1006.106	-1730
1006.181	-1697
1006.256	-537
1006.331	-2218
1006.405	-1014
1006.480	-1427
1006.554	-1214
1006.629	-489
1006.704	-2359
1006.778	-2009
1006.853	-861
1006.927	-1886
1007.002	-2304
1007.076	-2106
1007.150	-1240
1007.225	-1404
1007.299	-1547
1007.373	-2491
1007.448	-2053
1007.522	-1547
1007.596	-1023
1007.671	-966
1007.745	-1432
1007.819	-2131
1007.893	-1558
1007.967	-1334
1008.041	-1968
1008.115	-1152
1008.190	-1985
1008.264	-627
1008.338	-3799
1008.412	-2007
1008.486	-771
1008.560	-1347
1008.633	-1872
1008.707	-2535
1008.781	-953
1008.855	-2146
1008.929	-1302
1009.003	-1465
1009.076	-1446
1009.150	-1902
1009.224	-1311
1009.298	-1365
1009.371	-2278
1009.445	-562
1009.519	-1381
1009.592	-1732
1009.666	-1510
1009.739	-1818
1009.813	-2260
1009.886	-21
1009.960	-2410
1010.033	-1262
1010.107	-1991
1010.180	-2424
1010.253	-1142
1010.327	-2048
1010.400	-2075
1010.473	-1466
1010.547	-586
1010.620	-1696
1010.693	-1977
1010.766	-2764
1010.840	-1449
1010.913	-1485
1010.986	-2173
1011.059	-1401
1011.132	-2223
1011.205	-1716
1011.278	-1939
1011.351	-1485
1011.424	-637
1011.497	-2357
1011.570	-1019
1011.643	-1746
1011.716	-2103
1011.789	-1826
1011.862	-1381
1011.934	-1383
1012.007	-2552
1012.080	-1484
1012.153	-1627
1012.225	-363
1012.298	-2300
1012.371	-2484
1012.443	-1452
1012.516	-2134
1012.588	-2182
1012.661	-2354
1012.733	-1767
1012.806	-1277
1012.879	-2731
1012.951	-1272
1013.023	-1520
1013.096	-2320
1013.168	-1875
1013.241	-1549
1013.313	-1699
1013.385	-1579
1013.458	-1532
1013.530	-1630
1013.602	-1641
1013.674	-1435
1013.746	-1667
1013.819	-1805
1013.891	-1169
1013.963	-2315
1014.035	-1642
1014.107	-1416
1014.179	-1139
1014.251	-2130
1014.323	-566
1014.395	-2325
1014.467	-1108
1014.539	-1875
1014.611	-2472
1014.683	-2325
1014.754	-1378
1014.826	-2067
1014.898	-2174
1014.970	-1680
1015.042	-1154
1015.113	-2231
1015.185	-1767
1015.257	-2433
1015.328	-1202
1015.400	-1736
1015.471	-1509
1015.543	-2372
1015.615	-1282
1015.686	-1601
1015.757	-2017
1015.829	-1538
1015.901	-1693
1015.972	-1902
1016.043	-2135
1016.115	-1523
1016.186	-1010
1016.257	-2095
1016.328	-1966
1016.400	-1401
1016.471	-1986
1016.542	-2010
1016.613	-1258
1016.685	-1727
1016.756	-1200
1016.827	-875
1016.898	-2210
1016.969	-967
1017.040	-1715
1017.111	-2186
1017.182	-2547
1017.253	-2194
1017.324	-1708
1017.395	-2226
1017.466	-1533
1017.537	-2699
1017.608	-1724
1017.678	-1602
1017.749	-2323
1017.820	-2148
1017.891	-1976
1017.961	-2081
1018.032	-2522
1018.103	-2244
1018.173	-2484
1018.244	-2519
1018.315	-1921
1018.385	-1387
1018.456	-1980
1018.526	-1901
1018.597	-2867
1018.667	-2036
1018.738	-1881
1018.808	-2079
1018.878	-1643
1018.949	-2023
1019.019	-1470
1019.089	-2527
1019.160	-1265
1019.230	-2847
1019.300	-2057
1019.371	-2398
1019.441	-1135
1019.511	-1890
1019.581	-2049
1019.651	-1428
1019.721	-2094
1019.791	-2547
1019.861	-1430
1019.931	-1977
1020.001	-2006
1020.071	-1706
1020.141	-2075
1020.211	-1686
1020.281	-2137
1020.351	-2332
1020.421	-1210
1020.491	-1524
1020.560	-2320
1020.630	-1114
1020.700	-1793
1020.770	-2201
1020.839	-2421
1020.909	-1905
1020.979	-2219
1021.048	-3051
1021.118	-2214
1021.187	-2583
1021.257	-2315
1021.326	-1464
1021.396	-2167
1021.465	-1033
1021.535	-1856
1021.604	-2346
1021.674	-1347
1021.743	-2144
1021.812	-1846
1021.882	-1925
1021.951	-1835
1022.020	-2789
1022.089	-2119
1022.159	-1872
1022.228	-1880
1022.297	-2497
1022.366	-2204
1022.435	-2600
1022.504	-1983
1022.573	-2306
1022.642	-2038
1022.711	-2154
1022.781	-2349
1022.849	-2042
1022.918	-1959
1022.987	-1570
1023.056	-1877
1023.125	-1517
1023.194	-1357
1023.263	-1222
1023.331	-1459
1023.400	-2166
1023.469	-1670
1023.538	-1101
1023.606	-3005
1023.675	-1725
1023.744	-2376
1023.812	-2588
1023.881	-2161
1023.949	-1766
1024.018	-1925
1024.086	-2424
1024.155	-2025
1024.223	-2685
1024.292	-1638
1024.360	-1300
1024.429	-1762
1024.497	-3015
1024.565	-1670
1024.634	-2006
1024.702	-1836
1024.770	-2459
1024.838	-1583
1024.907	-2263
1024.975	-2329
1025.043	-1596
1025.111	-2110
1025.179	-1755
1025.247	-1892
1025.315	-1829
1025.383	-3243
1025.451	-1802
1025.519	-1802
1025.587	-2469
1025.655	-2512
1025.723	-2184
1025.791	-2145
1025.859	-2109
1025.927	-1420
1025.995	-2441
1026.062	-1817
1026.130	-2970
1026.198	-2250
1026.266	-1779
1026.333	-1928
1026.401	-2423
1026.469	-1911
1026.536	-1933
1026.604	-2016
1026.671	-2786
1026.739	-1787
1026.806	-2063
1026.874	-1839
1026.941	-1748
1027.009	-1306
1027.076	-1690
1027.144	-1739
1027.211	-1718
1027.278	-2717
1027.345	-1679
1027.413	-1385
1027.480	-2192
1027.547	-1735
1027.614	-2564
1027.682	-1532
1027.749	-2564
1027.816	-2969
1027.883	-1513
1027.950	-1177
1028.017	-2553
1028.084	-1746
1028.151	-3245
1028.218	-1411
1028.285	-1853
1028.352	-2912
1028.419	-1865
1028.486	-1560
1028.553	-2413
1028.619	-2408
1028.686	-1562
1028.753	-2074
1028.820	-2118
1028.886	-2024
1028.953	-2641
1029.020	-2845
1029.086	-2171
1029.153	-2617
1029.220	-2055
1029.286	-1892
1029.353	-2175
1029.419	-2492
1029.486	-2340
1029.552	-1984
1029.619	-2856
1029.685	-2777
1029.751	-2027
1029.818	-1278
1029.884	-2454
1029.951	-368
1030.017	-2455
1030.083	-2208
1030.149	-2002
1030.216	-1888
1030.282	-1728
1030.348	-1647
1030.414	-2151
1030.480	-1578
1030.546	-2401
1030.612	-1815
1030.678	-2978
1030.744	-2370
1030.810	-2444
1030.876	-2384
1030.942	-2486
1031.008	-2480
1031.074	-2386
1031.140	-1746
1031.206	-1573
1031.272	-2363
1031.337	-2817
1031.403	-2918
1031.469	-2377
1031.534	-2581
1031.600	-1612
1031.666	-2792
1031.731	-2440
1031.797	-2830
1031.863	-2537
1031.928	-2447
1031.994	-2602
1032.059	-2419
1032.125	-2108
1032.190	-2640
1032.256	-2847
1032.321	-1933
1032.386	-1802
1032.452	-895
1032.517	-1508
1032.582	-2263
1032.647	-1845
1032.713	-2584
1032.778	-2601
1032.843	-2650
1032.908	-1950
1032.974	-2501
1033.039	-2466
1033.104	-1958
1033.169	-2751
1033.234	-2547
1033.299	-1651
1033.364	-1250
1033.429	-2584
1033.494	-2245
1033.559	-2597
1033.624	-2561
1033.688	-2856
1033.753	-2092
1033.818	-2646
1033.883	-1915
1033.948	-2233
1034.013	-2788
1034.077	-2168
1034.142	-1281
1034.207	-1822
1034.271	-784
1034.336	-1242
1034.400	-1183
1034.465	-2392
1034.530	-2341
1034.594	-2214
1034.658	-2106
1034.723	-2111
1034.787	-2462
1034.852	-2479
1034.916	-2203
1034.981	-2689
1035.045	-2480
1035.109	-2503
1035.173	-2624
1035.238	-2413
1035.302	-2282
1035.366	-2693
1035.430	-2707
1035.495	-2571
1035.559	-1651
1035.623	-1794
1035.687	-2315
1035.751	-2495
1035.815	-1958
1035.879	-2094
1035.943	-2170
1036.007	-2365
1036.071	-2235
1036.135	-2064
1036.198	-2205
1036.262	-1933
1036.326	-2379
1036.390	-1871
1036.454	-2520
1036.517	-2706
1036.581	-1694
1036.645	-2259
1036.709	-1932
1036.772	-2803
1036.836	-2225
1036.900	-3083
1036.963	-2045
1037.026	-2423
1037.090	-2235
1037.154	-1710
1037.217	-2031
1037.280	-2563
1037.344	-2462
1037.407	-2473
1037.471	-2334
1037.534	-2658
1037.597	-2583
1037.661	-1606
1037.724	-1974
1037.787	-2534
1037.850	-2412
1037.913	-2359
1037.977	-2392
1038.040	-2491
1038.103	-2105
1038.166	-1821
1038.229	-2193
1038.292	-2221
1038.355	-2835
1038.418	-2508
1038.481	-2459
1038.544	-2671
1038.607	-2791
1038.670	-2282
1038.732	-2463
1038.795	-2586
1038.858	-1892
1038.921	-2026
1038.984	-2187
1039.046	-2798
1039.109	-2289
1039.172	-2245
1039.234	-2267
1039.297	-2689
1039.360	-2737
1039.422	-2401
1039.485	-2975
1039.547	-2543
1039.610	-2435
1039.672	-2722
1039.734	-2241
1039.797	-2415
1039.859	-2197
1039.922	-2434
1039.984	-2898
1040.046	-1207
1040.109	-2045
1040.171	-3537
1040.233	-2465
1040.295	-2041
1040.358	-2172
1040.420	-2086
1040.482	-2218
1040.544	-2744
1040.606	-2074
1040.668	-1874
1040.730	-1999
1040.792	-2600
1040.854	-2141
1040.916	-2102
1040.978	-2621
1041.040	-2175
1041.102	-2147
1041.164	-2512
1041.225	-2512
1041.287	-1853
1041.349	-1996
1041.411	-2670
1041.472	-2486
1041.534	-2535
1041.596	-1833
1041.657	-2026
1041.719	-2054
1041.781	-3133
1041.842	-2508
1041.904	-2724
1041.965	-2249
1042.027	-2292
1042.088	-2512
1042.150	-2494
1042.211	-2140
1042.272	-1777
1042.334	-2184
1042.395	-2508
1042.456	-2802
1042.518	-1897
1042.579	-2238
1042.640	-2736
1042.701	-2323
1042.763	-1800
1042.824	-2570
1042.885	-2311
1042.946	-2474
1043.007	-2562
1043.068	-2350
1043.129	-2460
1043.190	-2565
1043.251	-2006
1043.312	-2171
1043.373	-1834
1043.434	-2205
1043.495	-2717
1043.556	-649
1043.616	-1519
1043.677	-2273
1043.738	-1966
1043.799	-2464
1043.859	-3119
1043.920	-1661
1043.981	-2316
1044.041	-2535
1044.102	-3376
1044.162	-1595
1044.223	-1914
1044.284	-2359
1044.344	-2406
1044.405	-1884
1044.465	-2032
1044.525	-2648
1044.586	-2632
1044.646	-2828
1044.707	-2829
1044.767	-1940
1044.827	-2160
1044.887	-2378
1044.948	-1872
1045.008	-3145
1045.068	-2077
1045.128	-1216
1045.188	-2202
1045.249	-1840
1045.309	-2324
1045.369	-1713
1045.429	-2473
1045.489	-2154
1045.549	-2135
1045.609	-1902
1045.669	-1719
1045.729	-2411
1045.789	-1649
1045.848	-2049
1045.908	-2174
1045.968	-3133
1046.028	-2381
1046.088	-1279
1046.147	-1134
1046.207	-2066
1046.267	-1586
1046.326	-1964
1046.386	-2355
1046.446	-1293
1046.505	-2057
1046.565	-1514
1046.624	-2054
1046.684	-1868
1046.743	-627
1046.803	-705
1046.862	-476
1046.922	0
