'Start Wavelength	183.907
'End Wavelength	1046.922
'Gate Delay	5.000
'Gate Width (ms)	1.050
'Laser Output Level	0.000
'X Position	0.000
'Y Position	0.000
'Z Position	0.000
'Grid Point Number	1.000
'Shot Number	100.000
183.907	815.000
183.977	-411.000
184.047	-439
184.116	220
184.186	679
184.256	-267
184.325	136
184.395	-689
184.465	1191
184.534	-464
184.604	-289
184.674	123
184.743	-446
184.813	818
184.883	-232
184.952	127
185.022	-228
185.092	-3
185.161	-645
185.231	-760
185.301	236
185.370	160
185.440	-415
185.509	-652
185.579	678
185.649	4
185.718	419
185.788	555
185.857	-685
185.927	-479
185.996	631
186.066	207
186.136	-477
186.205	-467
186.275	-51
186.344	224
186.414	202
186.483	-308
186.553	641
186.622	858
186.692	-253
186.761	-1141
186.831	352
186.900	-42
186.970	554
187.039	-201
187.109	1135
187.178	372
187.248	366
187.317	-66
187.387	614
187.456	301
187.526	-389
187.595	335
187.664	603
187.734	65
187.803	-49
187.873	-302
187.942	368
188.012	-252
188.081	94
188.150	-305
188.220	-100
188.289	365
188.358	-87
188.428	46
188.497	612
188.567	1446
188.636	-382
188.705	85
188.775	618
188.844	-332
188.913	911
188.983	196
189.052	164
189.121	238
189.191	-447
189.260	505
189.329	541
189.399	398
189.468	-192
189.537	-492
189.606	283
189.676	394
189.745	165
189.814	224
189.883	655
189.953	19
190.022	-466
190.091	-560
190.161	941
190.230	100
190.299	303
190.368	91
190.437	35
190.507	355
190.576	215
190.645	270
190.714	694
190.783	-496
190.853	498
190.922	554
190.991	-286
191.060	634
191.129	-470
191.198	941
191.268	106
191.337	738
191.406	260
191.475	521
191.544	-455
191.613	554
191.682	-625
191.752	-207
191.821	-290
191.890	307
191.959	-296
192.028	59
192.097	237
192.166	210
192.235	-22
192.304	918
192.373	571
192.442	421
192.511	681
192.580	79
192.650	-247
192.719	-34
192.788	-63
192.857	-217
192.926	-260
192.995	182
193.064	320
193.133	353
193.202	-411
193.271	583
193.340	601
193.409	201
193.478	878
193.547	804
193.615	261
193.684	1249
193.753	-364
193.822	990
193.891	404
193.960	528
194.029	288
194.098	-377
194.167	-7
194.236	930
194.305	-359
194.374	-269
194.443	209
194.512	160
194.580	246
194.649	988
194.718	1402
194.787	666
194.856	-281
194.925	249
194.994	-128
195.062	32
195.131	-241
195.200	796
195.269	997
195.338	-46
195.407	1066
195.475	737
195.544	309
195.613	614
195.682	-96
195.751	97
195.819	211
195.888	355
195.957	746
196.026	108
196.094	1086
196.163	506
196.232	693
196.301	637
196.369	-140
196.438	284
196.507	743
196.576	-536
196.644	39
196.713	551
196.782	430
196.850	-178
196.919	161
196.988	501
197.056	-538
197.125	771
197.194	618
197.262	-429
197.331	-6
197.400	-152
197.468	262
197.537	-76
197.606	600
197.674	1151
197.743	536
197.812	624
197.880	505
197.949	520
198.017	1207
198.086	199
198.155	-6
198.223	-449
198.292	185
198.360	734
198.429	131
198.497	224
198.566	449
198.635	1467
198.703	602
198.772	-112
198.840	874
198.909	905
198.977	-32
199.046	187
199.114	181
199.183	88
199.251	-325
199.320	355
199.388	45
199.457	451
199.525	32
199.594	-167
199.662	-1001
199.731	497
199.799	-11
199.867	517
199.936	731
200.004	788
200.073	-344
200.141	-271
200.210	-549
200.278	624
200.346	-368
200.415	466
200.483	273
200.552	1012
200.620	-177
200.688	315
200.757	883
200.825	-337
200.893	-16
200.962	301
201.030	430
201.098	-135
201.167	121
201.235	374
201.303	239
201.372	241
201.440	1219
201.508	784
201.577	-136
201.645	229
201.713	-84
201.781	-203
201.850	544
201.918	528
201.986	440
202.055	1021
202.123	-924
202.191	155
202.259	84
202.327	741
202.396	60
202.464	871
202.532	210
202.600	1822
202.669	821
202.737	9
202.805	-163
202.873	157
202.941	236
203.009	894
203.078	-56
203.146	269
203.214	485
203.282	794
203.350	692
203.418	815
203.487	992
203.555	646
203.623	975
203.691	274
203.759	-70
203.827	604
203.895	512
203.963	154
204.031	-660
204.099	389
204.168	5
204.236	192
204.304	354
204.372	-13
204.440	654
204.508	216
204.576	-1014
204.644	430
204.712	602
204.780	-143
204.848	250
204.916	381
204.984	-263
205.052	465
205.120	-325
205.188	459
205.256	-715
205.324	-58
205.392	647
205.460	831
205.528	-353
205.596	264
205.664	834
205.732	403
205.799	748
205.867	1359
205.935	-115
206.003	807
206.071	500
206.139	-439
206.207	627
206.275	-432
206.343	-217
206.411	410
206.478	51
206.546	80
206.614	-535
206.682	-11
206.750	367
206.818	162
206.885	1551
206.953	-161
207.021	1074
207.089	1376
207.157	174
207.225	627
207.292	201
207.360	-338
207.428	-471
207.496	304
207.563	474
207.631	37
207.699	565
207.767	209
207.834	-1
207.902	42
207.970	46
208.038	1276
208.105	394
208.173	763
208.241	548
208.309	734
208.376	797
208.444	543
208.512	597
208.579	-112
208.647	1474
208.715	1194
208.782	278
208.850	-35
208.918	697
208.985	1148
209.053	953
209.120	-89
209.188	-458
209.256	600
209.323	-185
209.391	198
209.459	1568
209.526	1344
209.594	53
209.661	546
209.729	403
209.796	1075
209.864	509
209.932	-126
209.999	1186
210.067	636
210.134	812
210.202	1386
210.269	1241
210.337	1358
210.404	502
210.472	321
210.539	767
210.607	741
210.674	567
210.742	450
210.809	-167
210.877	887
210.944	805
211.012	-200
211.079	2430
211.146	475
211.214	406
211.281	1085
211.349	1298
211.416	818
211.484	1440
211.551	1336
211.618	1021
211.686	693
211.753	78
211.821	827
211.888	651
211.955	1339
212.023	334
212.090	1138
212.157	611
212.225	1142
212.292	1423
212.359	1479
212.427	3850
212.494	1968
212.561	1344
212.629	913
212.696	479
212.763	146
212.831	86
212.898	645
212.965	94
213.032	1145
213.100	662
213.167	-250
213.234	1269
213.301	1417
213.369	1443
213.436	910
213.503	394
213.570	828
213.638	315
213.705	333
213.772	284
213.839	693
213.906	1379
213.973	1264
214.041	842
214.108	1120
214.175	1260
214.242	675
214.309	-378
214.376	-1
214.444	491
214.511	562
214.578	572
214.645	1889
214.712	1459
214.779	1484
214.846	416
214.913	1218
214.980	1202
215.048	1868
215.115	1232
215.182	1110
215.249	1377
215.316	703
215.383	781
215.450	615
215.517	454
215.584	1024
215.651	1347
215.718	974
215.785	593
215.852	612
215.919	1145
215.986	1575
216.053	1200
216.120	437
216.187	1240
216.254	1547
216.321	594
216.388	1592
216.455	901
216.522	755
216.589	1997
216.656	1771
216.722	2038
216.789	1482
216.856	838
216.923	1489
216.990	1560
217.057	1586
217.124	1371
217.191	1203
217.258	1220
217.324	2088
217.391	3048
217.458	1221
217.525	1209
217.592	805
217.659	-34
217.725	1610
217.792	586
217.859	1591
217.926	205
217.993	818
218.059	1320
218.126	1091
218.193	466
218.260	452
218.327	942
218.393	944
218.460	1477
218.527	517
218.594	617
218.660	1228
218.727	2567
218.794	694
218.860	1142
218.927	418
218.994	374
219.061	624
219.127	1058
219.194	1836
219.261	776
219.327	642
219.394	1516
219.461	149
219.527	1154
219.594	1223
219.661	733
219.727	-149
219.794	1886
219.860	-177
219.927	994
219.994	1894
220.060	2302
220.127	2500
220.193	835
220.260	208
220.326	1835
220.393	2000
220.460	2555
220.526	1647
220.593	651
220.659	2371
220.726	971
220.792	1605
220.859	2475
220.925	2998
220.992	5581
221.058	5070
221.125	3499
221.191	2468
221.258	716
221.324	1603
221.391	1744
221.457	445
221.524	984
221.590	819
221.657	2210
221.723	1681
221.789	1660
221.856	2932
221.922	324
221.989	1869
222.055	528
222.121	217
222.188	2303
222.254	1229
222.321	697
222.387	70
222.453	19
222.520	634
222.586	592
222.652	286
222.719	179
222.785	45
222.851	493
222.918	860
222.984	592
223.050	550
223.116	-368
223.183	1024
223.249	218
223.315	-13
223.382	396
223.448	82
223.514	77
223.580	1122
223.647	-165
223.713	-708
223.779	993
223.845	372
223.911	797
223.978	-232
224.044	911
224.110	774
224.176	562
224.242	818
224.309	-24
224.375	494
224.441	1116
224.507	288
224.573	129
224.639	1155
224.705	239
224.772	1410
224.838	107
224.904	603
224.970	753
225.036	421
225.102	-198
225.168	892
225.234	796
225.300	256
225.366	426
225.432	1124
225.499	214
225.565	548
225.631	585
225.697	856
225.763	1343
225.829	1057
225.895	1391
225.961	2537
226.027	1608
226.093	1402
226.159	2502
226.225	1936
226.291	4373
226.357	8391
226.423	4504
226.489	2787
226.554	1906
226.620	2144
226.686	1480
226.752	2733
226.818	3843
226.884	9227
226.950	9541
227.016	3937
227.082	2438
227.148	1589
227.214	1744
227.279	1535
227.345	496
227.411	2577
227.477	2288
227.543	4386
227.609	3756
227.674	2653
227.740	1220
227.806	978
227.872	1185
227.938	1385
228.003	1084
228.069	1377
228.135	602
228.201	676
228.267	496
228.332	1106
228.398	875
228.464	1465
228.530	496
228.595	881
228.661	-72
228.727	886
228.792	2076
228.858	-30
228.924	-278
228.990	2871
229.055	502
229.121	1698
229.187	297
229.252	1105
229.318	1223
229.384	1050
229.449	1123
229.515	-929
229.581	244
229.646	1787
229.712	662
229.777	2043
229.843	1370
229.909	1800
229.974	2077
230.040	1647
230.105	806
230.171	735
230.236	1500
230.302	1493
230.368	1831
230.433	260
230.499	1707
230.564	2773
230.630	601
230.695	1344
230.761	1422
230.826	-506
230.892	2673
230.957	1039
231.023	631
231.088	1123
231.154	570
231.219	1346
231.284	848
231.350	1821
231.415	-571
231.481	1404
231.546	199
231.612	1375
231.677	340
231.742	-646
231.808	1963
231.873	985
231.939	-905
232.004	1901
232.069	2222
232.135	670
232.200	-212
232.265	1334
232.331	-204
232.396	770
232.461	12
232.527	435
232.592	-942
232.657	876
232.723	338
232.788	1036
232.853	532
232.918	459
232.984	31
233.049	299
233.114	855
233.179	1096
233.245	1737
233.310	2168
233.375	-102
233.440	1315
233.506	22
233.571	98
233.636	300
233.701	913
233.766	741
233.832	2143
233.897	175
233.962	-140
234.027	2317
234.092	813
234.157	648
234.222	991
234.288	1363
234.353	2590
234.418	3740
234.483	3012
234.548	1659
234.613	1992
234.678	1109
234.743	1062
234.808	3555
234.873	1635
234.938	2579
235.004	1985
235.069	324
235.134	986
235.199	1392
235.264	1324
235.329	-463
235.394	1580
235.459	1709
235.524	-495
235.589	1123
235.654	775
235.719	-191
235.784	1199
235.849	634
235.913	1940
235.978	2790
236.043	2285
236.108	220
236.173	652
236.238	2124
236.303	81
236.368	856
236.433	1029
236.498	1276
236.563	2298
236.627	3506
236.692	12535
236.757	9652
236.822	4735
236.887	1538
236.952	2689
237.017	1282
237.081	3125
237.146	2209
237.211	5979
237.276	11382
237.341	20988
237.405	8756
237.470	4094
237.535	2757
237.600	2415
237.664	2090
237.729	788
237.794	455
237.859	4392
237.923	2254
237.988	1833
238.053	1498
238.118	1718
238.182	3387
238.247	6054
238.312	1120
238.376	2596
238.441	-680
238.506	2380
238.570	-209
238.635	2078
238.700	950
238.764	1030
238.829	1198
238.893	1753
238.958	2114
239.023	1558
239.087	703
239.152	1026
239.216	-319
239.281	1931
239.346	1151
239.410	1157
239.475	503
239.539	4579
239.604	3139
239.668	2055
239.733	1529
239.797	2548
239.862	7491
239.926	5663
239.991	2266
240.055	1169
240.120	513
240.184	1386
240.249	669
240.313	808
240.378	1039
240.442	2681
240.507	3521
240.571	747
240.635	732
240.700	1681
240.764	1040
240.829	1367
240.893	397
240.957	1747
241.022	2157
241.086	3321
241.151	1069
241.215	738
241.279	1987
241.344	973
241.408	1265
241.472	823
241.537	2283
241.601	1641
241.665	363
241.730	1196
241.794	2834
241.858	655
241.922	998
241.987	1325
242.051	812
242.115	-33
242.179	1794
242.244	1168
242.308	1827
242.372	1600
242.436	1051
242.501	1031
242.565	341
242.629	880
242.693	2133
242.757	691
242.822	684
242.886	1797
242.950	2077
243.014	459
243.078	1393
243.142	1438
243.206	510
243.271	1705
243.335	69
243.399	2038
243.463	4616
243.527	13526
243.591	4990
243.655	3197
243.719	635
243.783	2285
243.847	2182
243.911	3413
243.975	2898
244.040	3136
244.104	2947
244.168	1797
244.232	1619
244.296	3281
244.360	2105
244.424	980
244.488	1537
244.552	2056
244.615	-400
244.679	1659
244.743	1468
244.807	1237
244.871	1976
244.935	1844
244.999	-693
245.063	1002
245.127	2270
245.191	1828
245.255	2074
245.319	1921
245.383	1414
245.446	2439
245.510	331
245.574	1388
245.638	2118
245.702	-101
245.766	4047
245.829	2960
245.893	725
245.957	1206
246.021	2427
246.085	1127
246.149	2007
246.212	4880
246.276	7142
246.340	3787
246.404	2733
246.467	3415
246.531	3505
246.595	2998
246.659	2935
246.722	1092
246.786	3001
246.850	3016
246.913	3051
246.977	1127
247.041	2026
247.104	2147
247.168	3004
247.232	4687
247.295	10179
247.359	7048
247.423	2224
247.486	3959
247.550	4180
247.614	2240
247.677	3852
247.741	2039
247.804	1950
247.868	2808
247.932	3679
247.995	10942
248.059	3701
248.122	1968
248.186	4730
248.249	4842
248.313	14920
248.376	19243
248.440	11493
248.503	4145
248.567	4732
248.630	4408
248.694	7099
248.757	9827
248.821	17404
248.884	12985
248.948	9087
249.011	14441
249.075	19270
249.138	19124
249.202	8915
249.265	4927
249.328	4571
249.392	3399
249.455	4720
249.519	3370
249.582	3447
249.645	6288
249.709	4573
249.772	3092
249.835	2920
249.899	3524
249.962	3078
250.025	2674
250.089	6413
250.152	10378
250.215	4361
250.279	3755
250.342	3423
250.405	3536
250.468	3498
250.532	3110
250.595	6025
250.658	12470
250.721	26048
250.785	10237
250.848	7688
250.911	4648
250.974	3977
251.038	5129
251.101	11488
251.164	5844
251.227	7057
251.290	5008
251.354	6613
251.417	19157
251.480	22852
251.543	13451
251.606	33508
251.669	29961
251.732	11958
251.795	13890
251.859	13564
251.922	24050
251.985	17200
252.048	7357
252.111	5763
252.174	4407
252.237	9503
252.300	20489
252.363	17971
252.426	33750
252.489	15805
252.552	8106
252.615	5603
252.678	6769
252.741	14046
252.804	16345
252.867	31107
252.930	22711
252.993	13302
253.056	8764
253.119	6304
253.182	5237
253.245	6186
253.308	6057
253.371	5089
253.434	4458
253.497	4634
253.559	10210
253.622	7127
253.685	7741
253.748	9283
253.811	3892
253.874	5009
253.937	4126
254.000	3746
254.062	5377
254.125	10721
254.188	8571
254.251	7591
254.314	4434
254.376	5550
254.439	9202
254.502	6970
254.565	6002
254.628	13179
254.690	6734
254.753	4109
254.816	4063
254.878	3002
254.941	6410
255.004	7774
255.067	3728
255.129	2992
255.192	2512
255.255	1771
255.317	2872
255.380	1689
255.443	1381
255.505	1802
255.568	1206
255.631	1315
255.693	2124
255.756	970
255.819	2510
255.881	1367
255.944	1389
256.006	1604
256.069	1771
256.132	1686
256.194	2059
256.257	3081
256.319	2470
256.382	2316
256.444	2671
256.507	2075
256.569	1455
256.632	1504
256.694	2107
256.757	6142
256.819	20359
256.882	7629
256.944	3462
257.007	3591
257.069	3095
257.132	1847
257.194	3660
257.257	1680
257.319	1628
257.381	2073
257.444	5261
257.506	20956
257.569	26886
257.631	11379
257.693	7981
257.756	2712
257.818	2191
257.880	3020
257.943	2522
258.005	2198
258.067	1865
258.130	2180
258.192	2556
258.254	3805
258.317	2481
258.379	2349
258.441	4475
258.503	6028
258.566	3578
258.628	6420
258.690	2336
258.753	2764
258.815	4554
258.877	2949
258.939	1280
259.001	2805
259.064	1624
259.126	1991
259.188	2059
259.250	2874
259.312	2469
259.375	5320
259.437	2914
259.499	1891
259.561	1363
259.623	1241
259.685	1740
259.747	1706
259.809	3603
259.872	7424
259.934	10934
259.996	13008
260.058	4253
260.120	1455
260.182	1113
260.244	1682
260.306	1191
260.368	2414
260.430	1088
260.492	2834
260.554	6561
260.616	4227
260.678	6503
260.740	9596
260.802	1741
260.864	2745
260.926	1250
260.988	2182
261.050	1880
261.112	3094
261.174	9569
261.236	7019
261.298	2321
261.359	3148
261.421	6740
261.483	2454
261.545	3024
261.607	452
261.669	1809
261.731	2376
261.793	6253
261.854	3458
261.916	3326
261.978	1382
262.040	2416
262.102	886
262.164	1647
262.225	2865
262.287	1567
262.349	3822
262.411	3918
262.472	2419
262.534	1834
262.596	4044
262.658	1962
262.719	958
262.781	2114
262.843	3220
262.904	3093
262.966	1897
263.028	2234
263.090	6355
263.151	21582
263.213	8742
263.275	5459
263.336	2350
263.398	2011
263.459	361
263.521	1566
263.583	4456
263.644	3356
263.706	1798
263.767	670
263.829	1439
263.891	415
263.952	801
264.014	920
264.075	987
264.137	4655
264.198	3581
264.260	696
264.321	1482
264.383	2539
264.444	8619
264.506	3040
264.567	2093
264.629	3387
264.690	5755
264.752	3044
264.813	1703
264.875	547
264.936	1784
264.998	842
265.059	1075
265.120	1785
265.182	1216
265.243	9674
265.305	11192
265.366	3018
265.427	1815
265.489	2359
265.550	138
265.611	2134
265.673	2022
265.734	1435
265.795	1212
265.857	287
265.918	303
265.979	2609
266.040	15812
266.102	16274
266.163	3895
266.224	3911
266.286	1701
266.347	776
266.408	1591
266.469	1706
266.530	1175
266.592	830
266.653	3070
266.714	5877
266.775	1976
266.836	950
266.898	177
266.959	1426
267.020	1666
267.081	1334
267.142	1377
267.203	1176
267.264	491
267.326	1770
267.387	976
267.448	488
267.509	1209
267.570	788
267.631	864
267.692	1046
267.753	1051
267.814	1060
267.875	2590
267.936	6322
267.997	2849
268.058	2583
268.119	1953
268.180	1743
268.241	403
268.302	1995
268.363	181
268.424	1064
268.485	960
268.546	807
268.607	130
268.668	1020
268.729	705
268.790	1324
268.851	1326
268.912	3481
268.972	5775
269.033	3026
269.094	1072
269.155	1721
269.216	527
269.277	798
269.338	1316
269.398	1248
269.459	682
269.520	2371
269.581	2391
269.642	3565
269.702	1595
269.763	1518
269.824	870
269.885	1345
269.945	3985
270.006	1581
270.067	1187
270.128	187
270.188	627
270.249	1327
270.310	74
270.370	893
270.431	1108
270.492	1117
270.553	886
270.613	2915
270.674	6938
270.734	3292
270.795	973
270.856	2798
270.916	2306
270.977	1400
271.038	2469
271.098	2396
271.159	2698
271.219	3207
271.280	1774
271.340	1610
271.401	899
271.462	2635
271.522	1869
271.583	2239
271.643	1930
271.704	2153
271.764	1892
271.825	5254
271.885	16868
271.946	25836
272.006	9450
272.066	9607
272.127	19553
272.187	9003
272.248	3707
272.308	4134
272.369	12188
272.429	8287
272.489	4343
272.550	6013
272.610	5385
272.671	4427
272.731	3005
272.791	5006
272.852	3060
272.912	2923
272.972	2134
273.033	1397
273.093	2480
273.153	4165
273.214	2626
273.274	2677
273.334	7733
273.394	18862
273.455	8750
273.515	8446
273.575	16073
273.635	8008
273.696	7898
273.756	17353
273.816	7706
273.876	5252
273.936	5335
273.997	10731
274.057	3551
274.117	2686
274.177	4544
274.237	20271
274.297	21447
274.358	10282
274.418	13516
274.478	12690
274.538	5316
274.598	2524
274.658	6453
274.718	10223
274.778	5844
274.838	3358
274.898	3522
274.958	13325
275.018	16427
275.078	13315
275.138	5319
275.198	2311
275.258	2119
275.318	3002
275.378	5424
275.438	7416
275.498	4048
275.558	6353
275.618	14656
275.678	15635
275.738	8174
275.798	6722
275.858	3983
275.918	2891
275.978	2896
276.038	3256
276.098	2685
276.157	4580
276.217	14636
276.277	8342
276.337	4926
276.397	2966
276.457	3531
276.517	3193
276.576	2349
276.636	2040
276.696	3294
276.756	8480
276.815	7317
276.875	3436
276.935	3149
276.995	3650
277.055	2304
277.114	2929
277.174	3613
277.234	11954
277.293	7049
277.353	3560
277.413	2629
277.472	3153
277.532	2477
277.592	4026
277.651	8949
277.711	22785
277.771	7746
277.830	21234
277.890	24048
277.950	11844
278.009	36748
278.069	18588
278.128	13578
278.188	23775
278.248	9528
278.307	20704
278.367	17749
278.426	5651
278.486	3072
278.545	3069
278.605	1809
278.664	3378
278.724	3114
278.783	6927
278.843	20746
278.902	7990
278.962	3885
279.021	4041
279.081	3559
279.140	4760
279.199	4568
279.259	4483
279.318	4987
279.378	7197
279.437	9165
279.496	31028
279.556	72675
279.615	73207
279.675	21761
279.734	11522
279.793	14693
279.853	27441
279.912	13645
279.971	7383
280.031	6878
280.090	10595
280.149	22051
280.208	15299
280.268	46161
280.327	63650
280.386	17532
280.445	12684
280.505	12486
280.564	6013
280.623	4628
280.682	6636
280.742	12761
280.801	5484
280.860	3121
280.919	2999
280.978	3298
281.037	2152
281.097	3389
281.156	2643
281.215	3128
281.274	3887
281.333	11526
281.392	13577
281.451	3177
281.510	2514
281.569	2275
281.628	2202
281.688	2318
281.747	2940
281.806	3391
281.865	2204
281.924	1375
281.983	2851
282.042	1097
282.101	2177
282.160	1394
282.219	2191
282.278	2649
282.337	7886
282.396	8785
282.454	3094
282.513	2771
282.572	13131
282.631	11012
282.690	2666
282.749	2385
282.808	3345
282.867	3357
282.926	4266
282.985	1687
283.043	2646
283.102	2058
283.161	2825
283.220	6148
283.279	16071
283.338	8736
283.396	4099
283.455	3312
283.514	4115
283.573	6845
283.631	5891
283.690	3207
283.749	3282
283.808	6862
283.866	9433
283.925	3685
283.984	4970
284.043	4587
284.101	5968
284.160	4888
284.219	5156
284.277	5109
284.336	6218
284.395	19963
284.453	21153
284.512	8849
284.570	10164
284.629	10252
284.688	9276
284.746	10096
284.805	11874
284.863	15843
284.922	20776
284.981	23863
285.039	33178
285.098	52618
285.156	100353
285.215	137826
285.273	130531
285.332	122677
285.390	75354
285.449	46757
285.507	32554
285.566	24122
285.624	18295
285.683	14822
285.741	12109
285.799	10344
285.858	9452
285.916	8368
285.975	7062
286.033	5179
286.091	5821
286.150	4664
286.208	5393
286.267	5372
286.325	5870
286.383	7985
286.442	8729
286.500	3723
286.558	3806
286.616	2871
286.675	5745
286.733	5595
286.791	4340
286.850	4741
286.908	5347
286.966	10713
287.024	5532
287.083	2964
287.141	3475
287.199	2938
287.257	4729
287.315	4634
287.374	4440
287.432	9327
287.490	8779
287.548	4032
287.606	3869
287.664	3327
287.723	4074
287.781	6396
287.839	3622
287.897	3621
287.955	4951
288.013	6254
288.071	12176
288.129	37293
288.187	121651
288.245	73000
288.303	22344
288.361	11068
288.419	7077
288.477	5493
288.535	5042
288.593	4602
288.651	3479
288.709	2731
288.767	2974
288.825	3005
288.883	2791
288.941	1995
288.999	2533
289.057	1638
289.115	1572
289.173	1612
289.231	2742
289.289	2319
289.346	2174
289.404	3127
289.462	5084
289.520	6145
289.578	3534
289.636	718
289.694	1426
289.751	558
289.809	1623
289.867	1984
289.925	3069
289.983	3860
290.040	1853
290.098	1701
290.156	2361
290.214	3378
290.271	2069
290.329	2048
290.387	2078
290.444	1922
290.502	669
290.560	1330
290.617	1891
290.675	2316
290.733	2622
290.790	2046
290.848	2128
290.906	1553
290.963	2394
291.021	2233
291.078	2044
291.136	1985
291.194	6152
291.251	18628
291.309	7066
291.366	1911
291.424	2394
291.481	2316
291.539	2193
291.596	2730
291.654	1031
291.711	1614
291.769	972
291.826	6273
291.884	4922
291.941	2262
291.999	1969
292.056	2186
292.114	3781
292.171	2036
292.228	2963
292.286	2866
292.343	6358
292.401	9530
292.458	6448
292.515	4601
292.573	5014
292.630	4766
292.687	4289
292.745	2689
292.802	3319
292.859	8157
292.917	18914
292.974	15398
293.031	5573
293.089	2479
293.146	1811
293.203	2603
293.260	1857
293.318	2065
293.375	4508
293.432	2896
293.489	2718
293.546	1978
293.604	4107
293.661	8464
293.718	29943
293.775	20284
293.832	9293
293.889	7293
293.947	6499
294.004	5234
294.061	5128
294.118	8537
294.175	18590
294.232	23590
294.289	11459
294.346	6018
294.403	4656
294.460	4073
294.517	3261
294.574	3207
294.631	3534
294.688	3632
294.745	8100
294.802	29357
294.859	39396
294.916	17377
294.973	9780
295.030	7918
295.087	6402
295.144	4419
295.201	4648
295.258	2680
295.315	4646
295.372	11473
295.429	26465
295.486	15537
295.542	6667
295.599	11613
295.656	23973
295.713	17539
295.770	26156
295.827	12602
295.883	5998
295.940	5002
295.997	6990
296.054	9360
296.111	5707
296.167	4742
296.224	2242
296.281	2893
296.338	3354
296.394	3570
296.451	4921
296.508	9827
296.564	22768
296.621	17184
296.678	25386
296.734	45748
296.791	21543
296.848	9321
296.904	8279
296.961	19495
297.018	30406
297.074	25606
297.131	10936
297.187	7553
297.244	8405
297.301	22963
297.357	51452
297.414	25347
297.470	9401
297.527	5967
297.583	5157
297.640	5219
297.696	4391
297.753	3412
297.809	3005
297.866	2698
297.922	2588
297.979	3041
298.035	3714
298.092	6512
298.148	15650
298.204	20401
298.261	10616
298.317	12774
298.374	34556
298.430	27560
298.486	11744
298.543	8276
298.599	6698
298.656	8203
298.712	12121
298.768	25988
298.824	23527
298.881	9265
298.937	5163
298.993	4068
299.050	5771
299.106	5728
299.162	4419
299.218	5477
299.275	4693
299.331	4779
299.387	8586
299.443	28848
299.500	44261
299.556	23693
299.612	10262
299.668	7617
299.724	12553
299.780	16059
299.837	9777
299.893	9912
299.949	28176
300.005	41805
300.061	31077
300.117	48943
300.173	32826
300.229	13342
300.285	12775
300.341	17874
300.397	10056
300.453	6919
300.510	5816
300.566	6617
300.622	8856
300.678	21360
300.734	43099
300.790	36880
300.845	38815
300.901	27973
300.957	36523
301.013	32352
301.069	14539
301.125	8142
301.181	8828
301.237	6503
301.293	5224
301.349	4184
301.405	4030
301.461	5346
301.516	6683
301.572	6347
301.628	11195
301.684	11215
301.740	12861
301.796	23688
301.851	19096
301.907	24777
301.963	28113
302.019	32263
302.074	83258
302.130	103611
302.186	57618
302.242	24010
302.297	12785
302.353	11296
302.409	20793
302.464	22741
302.520	17391
302.576	31277
302.631	45794
302.687	30937
302.743	14846
302.798	7938
302.854	5450
302.910	5777
302.965	6873
303.021	13756
303.076	14478
303.132	16609
303.187	21138
303.243	13994
303.299	7026
303.354	4343
303.410	4432
303.465	3819
303.521	5097
303.576	4093
303.632	6158
303.687	8781
303.743	26656
303.798	31465
303.853	14920
303.909	7507
303.964	6614
304.020	8065
304.075	16034
304.130	13534
304.186	24664
304.241	28779
304.297	23680
304.352	14405
304.358	13694
304.407	7930
304.449	6865
304.463	6512
304.518	7343
304.539	7292
304.573	7215
304.629	7060
304.630	7073
304.684	7955
304.720	15281
304.739	18978
304.794	36996
304.811	33155
304.850	23970
304.902	11152
304.905	10322
304.960	6139
304.992	5478
305.015	4965
305.071	5622
305.083	5514
305.126	5156
305.173	3934
305.181	3740
305.236	3532
305.264	3895
305.292	4292
305.347	6081
305.354	6365
305.402	8058
305.445	7122
305.457	6860
305.512	8160
305.535	8428
305.567	8793
305.622	8658
305.626	8837
305.678	12594
305.716	22463
305.733	26222
305.788	38213
305.807	33961
305.843	26464
305.897	27139
305.898	27115
305.953	32189
305.988	23536
306.008	18761
306.063	11323
306.078	10354
306.118	7886
306.168	5648
306.173	5460
306.228	3779
306.259	3950
306.283	4015
306.338	3504
306.349	3508
306.393	3499
306.440	4254
306.448	4412
306.503	4733
306.530	5020
306.558	5844
306.613	10971
306.620	12196
306.668	19949
306.711	27244
306.723	28626
306.778	28294
306.801	22843
306.833	16034
306.888	7919
306.892	7707
306.943	5569
306.982	4990
306.997	4708
307.052	4275
307.072	3953
307.107	3798
307.162	4450
307.163	4473
307.217	6461
307.253	7574
307.272	7891
307.327	9494
307.343	9125
307.381	8099
307.434	6812
307.436	6870
307.491	10699
307.524	16440
307.546	18836
307.600	25734
307.614	23408
307.655	15808
307.704	8450
307.710	7842
307.765	6585
307.795	7310
307.819	8294
307.874	14379
307.885	14725
307.929	13647
307.975	11038
307.984	10934
308.038	12414
308.065	14543
308.093	21892
308.148	44157
308.156	50813
308.202	87436
308.246	118829
308.257	120425
308.312	74745
308.336	55706
308.366	41601
308.421	27203
308.426	26083
308.475	16575
308.517	11138
308.530	9730
308.585	8730
308.607	8306
308.639	7832
308.694	7971
308.697	8069
308.748	11882
308.787	16680
308.803	16999
308.857	15628
308.877	13809
308.912	11993
308.967	11001
308.967	11046
309.021	13813
309.058	17372
309.076	20575
309.130	34996
309.148	40973
309.185	71301
309.238	125590
309.239	125895
309.293	154643
309.328	148782
309.348	134467
309.402	71785
309.418	56035
309.457	37633
309.508	23882
309.511	23212
309.566	20347
309.598	20937
309.620	23651
309.674	35676
309.688	39447
309.729	40690
309.778	34395
309.783	33741
309.837	23955
309.868	19784
309.892	19411
309.946	22010
309.959	24303
310.001	31509
310.049	38377
310.055	37713
310.109	25795
310.139	17495
310.163	13234
310.218	7639
310.229	7040
310.272	5533
310.319	4480
310.326	4272
310.381	3257
310.409	3121
310.435	3132
310.489	2760
310.499	2746
310.543	2928
310.589	3393
310.598	3274
310.652	2574
310.679	2151
310.706	2008
310.760	1739
310.769	1741
310.814	1592
310.859	1518
310.868	1536
310.923	1509
310.948	1677
310.977	2058
311.031	2627
311.038	2740
311.085	2602
311.128	2376
311.139	2365
311.193	2374
311.218	2340
311.247	2271
311.301	2339
311.308	2341
311.356	1973
311.398	1751
311.410	1756
311.464	1821
311.488	1853
311.518	1694
311.572	1471
311.578	1459
311.626	2088
311.668	2755
311.680	2724
311.734	2502
311.758	2418
311.788	2551
311.842	2866
311.847	2915
311.896	3342
311.937	3811
311.950	3692
312.004	3240
312.027	3056
312.058	2504
312.112	1556
312.117	1483
312.165	1731
312.207	1984
312.297	2261
312.386	2097
312.476	2333
312.566	3847
312.656	2274
312.745	1841
312.835	1427
312.925	1874
313.015	1594
313.104	2434
313.194	1278
313.284	1963
313.374	2259
313.463	2853
313.553	1085
313.643	936
313.732	1905
313.822	1285
313.912	1879
314.001	2158
314.091	2838
314.180	2895
314.270	2648
314.360	2743
314.449	2606
314.539	1752
314.628	1794
314.718	2344
314.808	2375
314.897	1490
314.987	2552
315.076	2697
315.166	3075
315.255	3693
315.345	3348
315.434	2437
315.524	2707
315.613	2993
315.703	3359
315.792	7296
315.881	22622
315.971	6965
316.060	5116
316.150	6362
316.239	6389
316.328	2529
316.418	1712
316.507	1658
316.597	4030
316.686	2046
316.775	3228
316.865	7986
316.954	2623
317.043	1568
317.133	1456
317.222	1801
317.311	1576
317.400	636
317.490	3877
317.579	3507
317.668	2355
317.757	3703
317.847	12046
317.936	38376
318.025	13321
318.114	8868
318.203	5287
318.293	7087
318.382	14047
318.471	9409
318.560	13158
318.649	20544
318.738	4497
318.828	3320
318.917	2800
319.006	3150
319.095	9185
319.184	27584
319.273	14155
319.362	6808
319.451	2793
319.540	3159
319.629	5946
319.718	8938
319.807	4706
319.896	8811
319.985	34403
320.074	10356
320.163	2866
320.252	4176
320.341	3728
320.430	3826
320.519	4642
320.608	3199
320.697	2053
320.786	2432
320.875	3677
320.964	5123
321.053	6388
321.142	9426
321.230	10004
321.319	7247
321.408	16158
321.497	8254
321.586	6821
321.675	8195
321.764	8224
321.852	5095
321.941	9632
322.030	6550
322.119	6528
322.207	17043
322.296	12005
322.385	7734
322.474	9139
322.562	21987
322.651	11450
322.740	8324
322.829	10315
322.917	9902
323.006	6661
323.095	5583
323.183	4126
323.272	5537
323.361	10151
323.449	30528
323.538	9763
323.626	21253
323.715	13715
323.804	4512
323.892	18934
323.981	10024
324.069	3212
324.158	10561
324.246	9024
324.335	3874
324.424	5941
324.512	2552
324.601	2887
324.689	2949
324.778	3837
324.866	6352
324.954	2528
325.043	1860
325.131	3357
325.220	8092
325.308	8797
325.397	5882
325.485	4399
325.574	1292
325.662	2406
325.750	1779
325.839	2612
325.927	1609
326.015	2233
326.104	3305
326.192	4509
326.280	1552
326.369	1157
326.457	2748
326.545	4588
326.634	2328
326.722	1828
326.810	1609
326.898	1722
326.987	2551
327.075	4324
327.163	5520
327.251	1666
327.340	1799
327.428	2744
327.516	2071
327.604	2319
327.692	2740
327.781	2417
327.869	3497
327.957	2607
328.045	2613
328.133	2073
328.221	2015
328.309	1571
328.397	1971
328.485	2607
328.574	4263
328.662	10983
328.750	5723
328.838	2069
328.926	1813
329.014	2290
329.102	1922
329.190	5654
329.278	4151
329.366	1295
329.454	837
329.542	1227
329.630	104
329.718	1415
329.806	1496
329.893	1368
329.981	1530
330.069	1607
330.157	3330
330.245	10461
330.333	5138
330.421	2419
330.509	3366
330.597	11567
330.684	7708
330.772	2697
330.860	4316
330.948	4656
331.036	2327
331.123	850
331.211	519
331.299	2112
331.387	4153
331.475	6771
331.562	1759
331.650	1401
331.738	2577
331.825	2621
331.913	1059
332.001	1168
332.089	1806
332.176	4316
332.264	9621
332.352	6512
332.439	2543
332.527	1766
332.614	1943
332.702	2186
332.790	1201
332.877	4517
332.965	10050
333.052	3263
333.140	3713
333.228	8584
333.315	2267
333.403	1723
333.490	6091
333.578	5381
333.665	11518
333.753	5329
333.840	1590
333.928	2686
334.015	6591
334.103	9656
334.190	33353
334.278	8697
334.365	5977
334.452	6106
334.540	2135
334.627	3188
334.715	5131
334.802	7779
334.889	37986
334.977	41577
335.064	10276
335.151	3451
335.239	3230
335.326	4621
335.413	17681
335.501	23191
335.588	3889
335.675	2567
335.762	3265
335.850	6381
335.937	5742
336.024	12371
336.111	46763
336.199	28017
336.286	7441
336.373	3954
336.460	2214
336.547	2356
336.635	3123
336.722	2285
336.809	2192
336.896	3369
336.983	9009
337.070	23390
337.157	36549
337.245	23974
337.332	15456
337.419	2310
337.506	1584
337.593	2165
337.680	7538
337.767	22563
337.854	6141
337.941	6449
338.028	8046
338.115	2920
338.202	3812
338.289	5988
338.376	22707
338.463	6882
338.550	12469
338.637	13598
338.724	4952
338.811	7311
338.898	2376
338.984	1627
339.071	976
339.158	1998
339.245	5328
339.332	3566
339.419	5120
339.506	4624
339.593	620
339.679	1970
339.766	1112
339.853	2160
339.940	4185
340.027	958
340.113	1559
340.200	2361
340.287	2063
340.374	2289
340.460	4003
340.547	840
340.634	3598
340.720	12615
340.807	6158
340.894	1512
340.980	1517
341.067	1055
341.154	2187
341.240	2233
341.327	5544
341.414	2761
341.500	1784
341.587	2245
341.674	1452
341.760	3961
341.847	4613
341.933	1905
342.020	541
342.106	1443
342.193	1323
342.279	3195
342.366	2578
342.452	4348
342.539	1857
342.625	5171
342.712	12668
342.798	4917
342.885	2040
342.971	126
343.058	927
343.144	833
343.230	971
343.317	2055
343.403	1115
343.490	1320
343.576	743
343.662	934
343.749	1032
343.835	2180
343.921	5132
344.008	29159
344.094	67506
344.180	13621
344.267	4673
344.353	17062
344.439	18176
344.525	6838
344.612	2708
344.698	2007
344.784	667
344.870	1509
344.957	918
345.043	2950
345.129	1483
345.215	3485
345.301	2066
345.387	1330
345.474	236
345.560	326
345.646	702
345.732	1526
345.818	2124
345.904	1526
345.990	1628
346.076	2010
346.162	3064
346.249	2239
346.335	1099
346.421	1842
346.507	7694
346.593	26260
346.679	5203
346.765	3058
346.851	1781
346.937	522
347.023	1838
347.108	2296
347.194	1588
347.280	832
347.366	2359
347.452	8075
347.538	32558
347.624	22819
347.710	17738
347.796	2883
347.882	1540
347.967	1273
348.053	2004
348.139	1358
348.225	773
348.311	853
348.397	1433
348.482	1882
348.568	2175
348.654	957
348.740	4119
348.825	2736
348.911	4046
348.997	13962
349.083	29750
349.168	3751
349.254	2113
349.340	2262
349.425	1256
349.511	1451
349.597	2633
349.682	5286
349.768	18195
349.854	7754
349.939	1787
350.025	859
350.110	1218
350.196	724
350.282	451
350.367	1846
350.453	1726
350.538	1843
350.624	2173
350.709	2134
350.795	845
350.880	1386
350.966	1432
351.051	1704
351.137	1147
351.222	1253
351.308	5785
351.393	13723
351.479	2491
351.564	1147
351.649	2270
351.735	1426
351.820	1065
351.906	1809
351.991	1296
352.076	9880
352.162	13824
352.247	3711
352.332	1588
352.418	2849
352.503	4671
352.588	21445
352.673	15750
352.759	3608
352.844	2212
352.929	1520
353.014	2577
353.100	1910
353.185	3955
353.270	5177
353.355	5562
353.441	1739
353.526	1321
353.611	4766
353.696	4118
353.781	3230
353.866	1852
353.952	2056
354.037	4521
354.122	10298
354.207	8846
354.292	3306
354.377	1948
354.462	2070
354.547	1803
354.632	2442
354.717	3659
354.802	3677
354.887	1945
354.972	1753
355.057	1441
355.142	1807
355.227	1288
355.312	2643
355.397	6802
355.482	15933
355.567	6507
355.652	6558
355.737	6304
355.822	19615
355.907	15331
355.991	4121
356.076	1980
356.161	2242
356.246	1742
356.331	2417
356.416	4805
356.501	33773
356.585	34413
356.670	4987
356.755	5497
356.840	4979
356.924	22788
357.009	81143
357.094	27653
357.179	6245
357.263	4909
357.348	4804
357.433	3954
357.517	3757
357.602	3717
357.687	3263
357.771	5177
357.856	13126
357.941	9209
358.025	18560
358.110	80809
358.195	35390
358.279	6731
358.364	6338
358.448	15298
358.533	37743
358.617	25624
358.702	26865
358.787	10033
358.871	5879
358.956	5288
359.040	2868
359.125	2310
359.209	2486
359.294	6537
359.378	10379
359.462	4507
359.547	3126
359.631	1796
359.716	688
359.800	1180
359.885	2768
359.969	1181
360.053	2016
360.138	1583
360.222	2392
360.306	4032
360.391	3815
360.475	6274
360.559	14648
360.644	12702
360.728	8892
360.812	18355
360.896	50470
360.981	18231
361.065	8475
361.149	3199
361.233	2310
361.318	1511
361.402	3118
361.486	3617
361.570	2256
361.654	3314
361.739	6493
361.823	31061
361.907	52159
361.991	7955
362.075	4450
362.159	8886
362.243	8561
362.327	10830
362.411	19493
362.495	7635
362.580	3521
362.664	2947
362.748	2299
362.832	3713
362.916	6631
363.000	27375
363.084	70432
363.168	68296
363.252	14490
363.336	5819
363.420	6368
363.503	23966
363.587	28923
363.671	5341
363.755	3090
363.839	6718
363.923	4004
364.007	7009
364.091	6551
364.175	10010
364.258	45524
364.342	40622
364.426	73300
364.510	38600
364.594	12485
364.677	11244
364.761	44633
364.845	30414
364.929	8528
365.013	7571
365.096	6420
365.180	6989
365.264	9641
365.347	42286
365.431	16571
365.515	3483
365.598	1033
365.682	2441
365.766	3080
365.849	4923
365.933	3000
366.017	3870
366.100	1530
366.184	513
366.267	2873
366.351	968
366.435	746
366.518	334
366.602	1608
366.685	2079
366.769	1719
366.852	3988
366.936	6127
367.019	4293
367.103	2351
367.186	5914
367.270	1835
367.353	494
367.436	1626
367.520	1234
367.603	2476
367.687	3226
367.770	5078
367.853	3478
367.937	13364
368.020	22359
368.104	5192
368.187	4794
368.270	8760
368.353	9733
368.437	7345
368.520	16359
368.603	10004
368.687	13766
368.770	26017
368.853	6700
368.936	4882
369.020	5821
369.103	2497
369.186	1429
369.269	2089
369.352	4451
369.436	4983
369.519	3862
369.602	939
369.685	3778
369.768	1777
369.851	2593
369.934	847
370.018	2170
370.101	4220
370.184	5839
370.267	3586
370.350	5537
370.433	8838
370.516	25879
370.599	34007
370.682	9334
370.765	13855
370.848	18440
370.931	34092
371.014	13047
371.097	1249
371.180	2864
371.263	2255
371.346	407
371.429	2823
371.511	1933
371.594	3354
371.677	6306
371.760	6696
371.843	6093
371.926	28800
372.009	67972
372.091	22251
372.174	13677
372.257	35288
372.340	12053
372.423	8151
372.505	10386
372.588	4391
372.671	10711
372.754	33503
372.836	16324
372.919	11768
373.002	22782
373.085	6481
373.167	5762
373.250	14232
373.332	34296
373.415	42090
373.498	89807
373.580	31476
373.663	49277
373.746	64689
373.828	11948
373.911	6297
373.993	5557
374.076	21623
374.159	19700
374.241	9781
374.324	27276
374.406	18843
374.489	25840
374.571	77960
374.654	30147
374.736	13676
374.819	46641
374.901	65704
374.983	66304
375.066	11197
375.148	5077
375.231	18423
375.313	35109
375.395	11863
375.478	3945
375.560	3125
375.643	3912
375.725	12385
375.807	56032
375.890	42308
375.972	14059
376.054	8741
376.136	13879
376.219	6202
376.301	15849
376.383	47985
376.465	17694
376.548	9155
376.630	13181
376.712	40872
376.794	18278
376.877	3025
376.959	1223
377.041	2778
377.123	4288
377.205	6015
377.287	1328
377.369	2113
377.452	1677
377.534	1093
377.616	1331
377.698	1747
377.780	612
377.862	1734
377.944	3191
378.026	972
378.108	2946
378.190	1853
378.272	2258
378.354	1205
378.436	1166
378.518	3001
378.600	8845
378.682	8385
378.764	19049
378.846	15353
378.928	4557
379.010	5465
379.091	4830
379.173	2396
379.255	1360
379.337	2992
379.419	9878
379.501	28879
379.583	10603
379.664	3666
379.746	6130
379.828	20007
379.910	26520
379.991	22959
380.073	4330
380.155	2582
380.237	3063
380.318	1676
380.400	2650
380.482	5614
380.564	6938
380.645	6799
380.727	6286
380.809	5113
380.890	3437
380.972	2452
381.053	3189
381.135	4141
381.217	7024
381.298	22224
381.380	10933
381.461	9091
381.543	39331
381.624	48155
381.706	10116
381.787	6128
381.869	6443
381.951	18483
382.032	71968
382.113	44843
382.195	9816
382.276	9374
382.358	15304
382.439	40004
382.521	43714
382.602	66988
382.684	30574
382.765	50165
382.846	58894
382.928	93149
383.009	50470
383.090	32348
383.172	120378
383.253	186568
383.334	62011
383.416	62039
383.497	32329
383.578	16526
383.659	29438
383.741	97100
383.822	260500
383.903	133101
383.984	44825
384.066	70947
384.147	42357
384.228	12277
384.309	9136
384.390	7599
384.471	6180
384.553	6714
384.634	8034
384.715	8530
384.796	6573
384.877	6269
384.958	21393
385.039	24143
385.120	10611
385.201	6996
385.282	7279
385.363	8454
385.444	8231
385.525	11302
385.606	34108
385.687	28958
385.768	7693
385.849	8772
385.930	34946
386.011	60131
386.092	18239
386.173	7621
386.254	4807
386.335	5551
386.416	4781
386.496	14101
386.577	21401
386.658	8990
386.739	5231
386.820	6811
386.901	6220
386.981	7990
387.062	8266
387.143	10074
387.224	22555
387.304	19854
387.385	8410
387.466	4174
387.547	8067
387.627	6027
387.708	10510
387.789	36855
387.869	45807
387.950	15638
388.031	5130
388.111	5075
388.192	11504
388.273	17577
388.353	12352
388.434	4234
388.514	5910
388.595	34811
388.676	43946
388.756	18960
388.837	17915
388.917	10455
388.998	383
389.078	3043
389.159	2404
389.239	1160
389.320	4883
389.400	1164
389.480	8560
389.561	21183
389.641	11382
389.722	3989
389.802	4835
389.883	9273
389.963	26054
390.043	14974
390.124	3507
390.204	8247
390.284	21231
390.365	11908
390.445	13622
390.525	31347
390.605	26838
390.686	10380
390.766	6411
390.846	3677
390.927	839
391.007	1430
391.087	3700
391.167	3927
391.247	2188
391.328	3667
391.408	5518
391.488	3566
391.568	-238
391.648	3486
391.728	4827
391.808	4600
391.888	4354
391.969	12048
392.049	19623
392.129	8870
392.209	9501
392.289	26777
392.369	13262
392.449	9535
392.529	7698
392.609	7466
392.689	9413
392.769	26372
392.849	24081
392.929	18373
393.009	39094
393.089	33920
393.169	38035
393.248	110935
393.328	373853
393.408	401615
393.488	121619
393.568	38005
393.648	18628
393.728	12334
393.807	7839
393.887	7587
393.967	6605
394.047	6711
394.127	6326
394.206	8753
394.286	26597
394.366	145447
394.446	153782
394.525	28865
394.605	6981
394.685	6135
394.764	14470
394.844	24730
394.924	18542
395.003	5726
395.083	3763
395.163	3591
395.242	3172
395.322	4031
395.402	1729
395.481	4820
395.561	9360
395.640	28960
395.720	27629
395.799	31743
395.879	21995
395.958	10771
396.038	37502
396.117	188698
396.197	204573
396.276	47943
396.356	15326
396.435	12074
396.515	11537
396.594	15706
396.673	30901
396.753	113879
396.832	344825
396.912	254910
396.991	61630
397.070	19459
397.150	9026
397.229	8709
397.308	12123
397.388	22540
397.467	10913
397.546	5072
397.625	1173
397.705	5227
397.784	4253
397.863	2116
397.942	1680
398.022	2236
398.101	6616
398.180	24042
398.259	11982
398.338	5079
398.417	2321
398.497	1563
398.576	2327
398.655	140
398.734	1253
398.813	1439
398.892	7718
398.971	26806
399.050	13350
399.129	701
399.208	918
399.287	1952
399.366	239
399.445	805
399.524	1155
399.603	-910
399.682	1885
399.761	7494
399.840	29156
399.919	21487
399.998	2146
400.077	-42
400.156	-117
400.235	2618
400.313	-116
400.392	1048
400.471	10112
400.550	16069
400.629	3960
400.708	1794
400.786	1051
400.865	4784
400.944	4488
401.023	3229
401.102	284
401.180	604
401.259	409
401.338	738
401.416	2318
401.495	194
401.574	1668
401.652	-183
401.731	1952
401.810	861
401.888	324
401.967	301
402.046	1146
402.124	2150
402.203	1654
402.281	1580
402.360	2134
402.438	6629
402.517	3712
402.596	1929
402.674	1092
402.753	609
402.831	1086
402.910	971
402.988	7380
403.066	29961
403.145	16588
403.223	9186
403.302	22952
403.380	17378
403.459	17578
403.537	6294
403.615	1349
403.694	82
403.772	713
403.850	-101
403.929	139
404.007	403
404.085	3994
404.164	2910
404.242	1012
404.320	2450
404.398	6481
404.477	10786
404.555	50861
404.633	43060
404.711	7605
404.789	2322
404.868	785
404.946	-459
405.024	-147
405.102	543
405.180	-488
405.258	-1265
405.336	1101
405.415	-281
405.493	3071
405.571	2751
405.649	135
405.727	2111
405.805	5991
405.883	1836
405.961	1645
406.039	703
406.117	-667
406.195	2041
406.273	8673
406.351	42744
406.429	24335
406.507	2826
406.585	899
406.663	667
406.740	2059
406.818	915
406.896	397
406.974	561
407.052	1846
407.130	23558
407.208	33186
407.285	6243
407.363	418
407.441	897
407.519	688
407.596	1854
407.674	6786
407.752	27635
407.830	23231
407.907	5217
407.985	976
408.063	350
408.141	326
408.218	2374
408.296	1259
408.373	205
408.451	1301
408.529	841
408.606	-288
408.684	277
408.762	733
408.839	-692
408.917	-247
408.994	646
409.072	54
409.149	222
409.227	1901
409.304	3435
409.382	2969
409.459	3660
409.537	5887
409.614	4220
409.692	2371
409.769	2196
409.846	6609
409.924	8359
410.001	3687
410.079	1704
410.156	2577
410.233	1103
410.311	-235
410.388	31
410.465	1144
410.543	903
410.620	1684
410.697	1202
410.775	1350
410.852	-278
410.929	2395
411.006	2702
411.083	1483
411.161	4832
411.238	4420
411.315	1292
411.392	645
411.469	2640
411.547	2525
411.624	-329
411.701	47
411.778	1380
411.855	2542
411.932	849
412.009	275
412.086	589
412.163	219
412.240	331
412.317	1053
412.394	51
412.471	1037
412.548	31
412.625	23
412.702	1181
412.779	2751
412.856	2060
412.933	-404
413.010	214
413.087	1417
413.164	9013
413.241	13839
413.318	2529
413.395	2077
413.471	2486
413.548	1519
413.625	899
413.702	-463
413.779	154
413.855	-164
413.932	451
414.009	-1890
414.086	-887
414.162	740
414.239	971
414.316	7998
414.393	21325
414.469	6064
414.546	22
414.623	-297
414.699	322
414.776	703
414.853	-540
414.929	825
415.006	949
415.082	618
415.159	512
415.236	138
415.312	697
415.389	2429
415.465	1592
415.542	1769
415.618	-249
415.695	1972
415.771	-102
415.848	839
415.924	630
416.000	-61
416.077	1074
416.153	-955
416.230	-713
416.306	-628
416.383	-99
416.459	469
416.535	-366
416.612	-693
416.688	343
416.764	-204
416.841	-638
416.917	-377
416.993	-40
417.069	751
417.146	871
417.222	1596
417.298	291
417.374	-424
417.451	242
417.527	720
417.603	345
417.679	999
417.755	774
417.831	-531
417.908	195
417.984	354
418.060	-165
418.136	2462
418.212	2289
418.288	930
418.364	-627
418.440	674
418.516	1160
418.592	1262
418.668	3783
418.744	5661
418.820	4415
418.896	602
418.972	-769
419.048	-103
419.124	2541
419.200	797
419.276	-308
419.352	-359
419.428	-271
419.504	380
419.579	437
419.655	464
419.731	607
419.807	3861
419.883	7716
419.959	5073
420.034	1386
420.110	3411
420.186	12073
420.262	10351
420.337	1414
420.413	1233
420.489	72
420.565	1223
420.640	251
420.716	1684
420.792	-312
420.867	2004
420.943	322
421.019	2290
421.094	1401
421.170	1594
421.245	-45
421.321	1879
421.397	580
421.472	6204
421.548	18879
421.623	11914
421.699	3612
421.774	3359
421.850	1767
421.925	4369
422.001	4728
422.076	4014
422.152	6136
422.227	8935
422.302	12199
422.378	17776
422.453	33400
422.529	79369
422.604	198877
422.679	297218
422.755	216730
422.830	91422
422.905	38552
422.981	20270
423.056	13945
423.131	10221
423.207	7221
423.282	5994
423.357	7841
423.432	5510
423.508	4880
423.583	9067
423.658	6396
423.733	3315
423.808	2750
423.883	3863
423.959	3002
424.034	3418
424.109	2364
424.184	1216
424.259	1112
424.334	822
424.409	-230
424.484	931
424.559	423
424.634	1058
424.709	1684
424.784	2175
424.859	1200
424.934	2611
425.009	9215
425.084	17277
425.159	6339
425.234	890
425.309	881
425.384	3633
425.459	5160
425.534	2125
425.609	704
425.683	466
425.758	396
425.833	286
425.908	1755
425.983	5642
426.058	17057
426.132	7685
426.207	1414
426.282	2486
426.357	1160
426.431	50
426.506	423
426.581	-33
426.655	517
426.730	651
426.805	525
426.879	1181
426.954	831
427.029	2494
427.103	15139
427.178	40080
427.253	18646
427.327	1592
427.402	1418
427.476	6818
427.551	2828
427.625	808
427.700	882
427.774	232
427.849	1339
427.923	-167
427.998	422
428.072	528
428.147	3742
428.221	18249
428.296	64068
428.370	36242
428.444	4709
428.519	2852
428.593	4465
428.667	4195
428.742	5585
428.816	7159
428.890	37379
428.965	65147
429.039	18837
429.113	7944
429.188	2273
429.262	178
429.336	1881
429.410	8624
429.485	4996
429.559	4541
429.633	4131
429.707	1117
429.781	5632
429.855	37699
429.930	63511
430.004	24134
430.078	27623
430.152	32396
430.226	81594
430.300	87338
430.374	14184
430.448	4434
430.522	7485
430.596	26420
430.670	20347
430.744	60801
430.818	88571
430.892	18527
430.966	2738
431.040	965
431.114	63
431.188	176
431.262	42
431.336	-327
431.410	2450
431.484	6472
431.557	5435
431.631	28
431.705	1145
431.779	10511
431.853	58543
431.927	43973
432.000	4737
432.074	1844
432.148	302
432.222	488
432.295	166
432.369	122
432.443	1172
432.516	14608
432.590	44284
432.664	18878
432.737	1849
432.811	-250
432.885	-202
432.958	780
433.032	-571
433.106	-236
433.179	-603
433.253	322
433.326	484
433.400	-676
433.473	-678
433.547	-1324
433.620	-667
433.694	977
433.767	1100
433.841	-329
433.914	-951
433.988	-746
434.061	201
434.134	530
434.208	-139
434.281	-1288
434.355	-754
434.428	-50
434.501	-889
434.575	-523
434.648	-664
434.721	-808
434.795	-1050
434.868	-599
434.941	-1519
435.014	-777
435.088	-273
435.161	1226
435.234	2010
435.307	3767
435.381	1889
435.454	1348
435.527	3813
435.600	3404
435.673	2513
435.746	1967
435.819	370
435.892	475
435.966	-49
436.039	-79
436.112	632
436.185	3
436.258	-371
436.331	-1423
436.404	-1306
436.477	-575
436.550	-342
436.623	-563
436.696	-843
436.769	-61
436.842	-96
436.915	136
436.987	1300
437.060	354
437.133	-557
437.206	-1125
437.279	-20
437.352	-552
437.425	-679
437.498	2
437.570	1981
437.643	2375
437.716	264
437.789	-268
437.861	1877
437.934	9795
438.007	5430
438.080	-546
438.152	1292
438.225	2007
438.298	22175
438.370	72607
438.443	37780
438.516	11479
438.588	1664
438.661	-314
438.734	502
438.806	529
438.879	311
438.951	1351
439.024	4763
439.096	1750
439.169	-808
439.241	-274
439.314	-865
439.386	177
439.459	935
439.531	3445
439.604	1445
439.676	497
439.749	-900
439.821	-607
439.893	-188
439.966	-457
440.038	516
440.110	774
440.183	-514
440.255	114
440.327	442
440.400	8261
440.472	43754
440.544	38265
440.617	5869
440.689	4121
440.761	4756
440.833	8087
440.905	7470
440.978	577
441.050	-640
441.122	504
441.194	-397
441.266	-986
441.338	-40
441.411	1044
441.483	13364
441.555	26505
441.627	7368
441.699	2192
441.771	1868
441.843	910
441.915	201
441.987	61
442.059	345
442.131	1103
442.203	2059
442.275	2807
442.347	3746
442.419	5690
442.491	34254
442.563	100345
442.635	51736
442.706	15440
442.778	11349
442.850	3750
442.922	1309
442.994	1609
443.066	2993
443.137	3111
443.209	2183
443.281	4204
443.353	10954
443.425	43216
443.496	160720
443.568	183531
443.640	82070
443.711	18034
443.783	5263
443.855	2960
443.926	992
443.998	1763
444.070	2280
444.141	1505
444.213	3221
444.285	4830
444.356	3559
444.428	3164
444.499	1546
444.571	1040
444.642	738
444.714	860
444.785	3347
444.857	3809
444.928	6070
445.000	5363
445.071	4389
445.143	6849
445.214	7487
445.285	11118
445.357	27279
445.428	99708
445.500	243193
445.571	181508
445.642	109071
445.714	40575
445.785	19921
445.856	9226
445.928	6695
445.999	6673
446.070	5737
446.141	3403
446.213	5641
446.284	2382
446.355	1970
446.426	1107
446.497	553
446.569	1974
446.640	3453
446.711	4613
446.782	2293
446.853	1427
446.924	1699
446.995	1807
447.066	1412
447.138	2039
447.209	1338
447.280	-1396
447.351	-216
447.422	25
447.493	659
447.564	1598
447.635	3282
447.706	2572
447.777	-557
447.847	-451
447.918	-904
447.989	478
448.060	1344
448.131	3688
448.202	4383
448.273	4050
448.344	1452
448.414	-294
448.485	171
448.556	-682
448.627	-374
448.698	990
448.768	-954
448.839	-1024
448.910	1818
448.981	1917
449.051	1030
449.122	430
449.193	-452
449.263	-369
449.334	-790
449.405	695
449.475	4209
449.546	4403
449.616	2338
449.687	2396
449.758	380
449.828	-434
449.899	-661
449.969	-279
450.040	324
450.110	70
450.181	973
450.251	733
450.322	113
450.392	512
450.463	5
450.533	-111
450.604	-11
450.674	-826
450.744	-134
450.815	217
450.885	443
450.955	-201
451.026	-71
451.096	-45
451.166	552
451.237	1565
451.307	7464
451.377	4478
451.447	-94
451.518	-491
451.588	-209
451.658	405
451.728	827
451.799	6331
451.869	10406
451.939	2797
452.009	-679
452.079	250
452.149	342
452.219	1493
452.289	8494
452.360	9092
452.430	1392
452.500	1625
452.570	3699
452.640	5194
452.710	13322
452.780	20328
452.850	16384
452.920	15892
452.990	6992
453.060	3123
453.129	2044
453.199	3465
453.269	9355
453.339	28982
453.409	48656
453.479	34766
453.549	56945
453.619	60770
453.688	32558
453.758	4332
453.828	883
453.898	1608
453.968	476
454.037	67
454.087	255
454.107	312
454.168	-156
454.177	-251
454.247	35
454.249	55
454.316	-12
454.330	164
454.386	734
454.411	2038
454.456	3788
454.492	5739
454.525	7430
454.574	4589
454.595	3383
454.655	1061
454.665	697
454.734	1125
454.736	1235
454.804	3258
454.817	4612
454.873	8989
454.898	10353
454.943	12518
454.979	8792
455.013	5668
455.060	2876
455.082	1828
455.141	2839
455.152	3046
455.221	8581
455.222	8836
455.291	19543
455.303	20226
455.360	20795
455.384	26900
455.430	32474
455.465	29338
455.499	27823
455.546	16797
455.569	11498
455.627	8834
455.638	8519
455.707	2256
455.708	2276
455.777	1758
455.789	1586
455.846	736
455.869	955
455.916	1293
455.950	948
455.985	545
456.031	912
456.054	989
456.112	2002
456.124	2207
456.193	783
456.193	758
456.262	2094
456.274	2167
456.332	2054
456.355	2179
456.401	2099
456.436	1952
456.470	1892
456.516	1653
456.540	1460
456.597	1202
456.609	1182
456.678	1230
456.678	1208
456.747	1357
456.759	1357
456.817	1384
456.840	1277
456.886	1035
456.920	1071
456.955	1297
457.001	1699
457.024	1801
457.082	2205
457.093	2273
457.162	3718
457.163	3750
457.232	3664
457.243	3492
457.301	2923
457.324	2559
457.370	2087
457.405	2265
457.439	2363
457.485	2788
457.508	3034
457.566	3290
457.577	3465
457.646	5214
457.647	5271
457.715	11658
457.727	12974
457.784	21423
457.808	26816
457.853	32132
457.889	37770
457.922	37308
457.969	27820
457.991	29934
458.050	35616
458.060	36684
458.129	56272
458.130	56996
458.198	52773
458.211	48276
458.267	32174
458.292	22708
458.336	14791
458.372	12987
458.405	17008
458.453	26210
458.474	33867
458.533	60006
458.543	61628
458.611	89763
458.614	90609
458.680	59654
458.694	47673
458.749	26895
458.775	19238
458.818	10581
458.855	8483
458.887	7384
458.936	5748
458.955	4880
459.016	3710
459.024	3750
459.093	5318
459.097	5365
459.162	5321
459.177	5428
459.230	6243
459.257	7012
459.299	7771
459.338	7974
459.368	8170
459.418	8459
459.437	7787
459.499	6213
459.505	6195
459.574	4464
459.579	4445
459.643	4377
459.659	4333
459.711	4905
459.740	5071
459.780	4949
459.820	4796
459.849	4619
459.900	5031
459.917	5099
459.981	5250
459.986	5260
460.054	5193
460.061	5203
460.123	5691
460.141	5880
460.191	7408
460.222	8326
460.260	8786
460.302	9811
460.328	8978
460.382	6830
460.397	6936
460.462	6214
460.465	6392
460.534	12330
460.543	13091
460.602	37050
460.623	46022
460.671	73740
460.703	97078
460.739	84008
460.783	65880
460.808	56371
460.864	14879
460.876	11996
460.944	6480
460.945	6410
461.013	5877
461.024	5866
461.081	6399
461.104	6662
461.150	6359
461.184	6154
461.218	6116
461.264	5744
461.286	5666
461.345	5521
461.355	5428
461.423	4951
461.425	4943
461.491	5446
461.505	5584
461.559	9104
461.585	10718
461.628	16494
461.665	22105
461.696	23219
461.745	26584
461.764	23554
461.825	10909
461.832	10922
461.901	7425
461.905	7460
461.969	6657
461.985	6420
462.037	6538
462.065	6375
462.105	6331
462.145	6612
462.173	8773
462.225	12558
462.241	13671
462.305	19245
462.310	18714
462.378	10588
462.385	9423
462.446	8081
462.465	7694
462.514	6925
462.545	6991
462.582	6966
462.625	6627
462.650	6213
462.705	5453
462.718	5652
462.785	6557
462.786	6587
462.854	8251
462.865	8565
462.922	10420
462.945	11264
462.990	9007
463.025	6719
463.058	6320
463.104	5737
463.126	5728
463.184	5995
463.194	6089
463.262	6860
463.264	6880
463.330	6322
463.344	6194
463.398	7242
463.424	7589
463.466	7131
463.504	7251
463.533	7642
463.583	7703
463.601	7776
463.663	8063
463.669	8317
463.737	11463
463.743	11730
463.805	14575
463.823	15481
463.873	22145
463.903	26151
463.940	27129
463.982	28668
464.008	23492
464.062	11222
464.076	10748
464.142	7328
464.144	7281
464.211	6463
464.221	6373
464.279	6777
464.301	7028
464.347	8235
464.381	8954
464.414	9413
464.461	10223
464.482	10702
464.540	11880
464.550	11811
464.617	10932
464.620	10892
464.685	11810
464.699	11989
464.753	13078
464.779	13630
464.820	14282
464.859	14801
464.888	14093
464.938	12641
464.956	12813
465.018	13582
465.023	13504
465.091	12102
465.098	11946
465.158	11756
465.177	11668
465.226	10974
465.257	10482
465.293	11474
465.336	12598
465.361	13366
465.416	15171
465.428	15802
465.495	19117
465.496	19203
465.563	27623
465.575	29062
465.631	34155
465.654	36476
465.698	23956
465.734	13042
465.765	12118
465.813	10310
465.833	10220
465.893	10503
465.900	10414
465.968	9678
465.972	9592
466.035	10033
466.052	10165
466.102	10624
466.131	10841
466.170	10835
466.210	10731
466.237	11121
466.290	11915
466.304	11900
466.369	11658
466.372	11699
466.439	12193
466.449	12246
466.506	13156
466.528	13464
466.573	17983
466.607	21339
466.641	30092
466.687	42181
466.708	46088
466.766	56821
466.775	52731
466.842	21209
466.845	19666
466.909	15541
466.925	14573
466.977	14288
467.004	14179
467.044	14497
467.083	14750
467.111	16204
467.163	18865
467.178	19289
467.242	20845
467.245	20757
467.312	18023
467.321	17623
467.379	18010
467.400	18094
467.446	19182
467.480	19902
467.559	17548
467.638	15997
467.717	16094
467.796	19393
467.875	21634
467.955	18774
468.034	24097
468.113	48469
468.192	69274
468.271	22981
468.350	21558
468.429	26486
468.508	28511
468.588	20935
468.667	17003
468.746	15827
468.825	16753
468.904	13856
468.983	16653
469.062	23282
469.141	26597
469.220	14112
469.299	14120
469.378	14999
469.456	20066
469.535	16357
469.614	15889
469.693	16410
469.772	21022
469.851	26095
469.930	20094
470.009	16948
470.088	17253
470.166	21546
470.245	33632
470.324	37927
470.403	25865
470.482	19392
470.560	16720
470.639	18791
470.718	21602
470.797	15909
470.875	18029
470.954	22755
471.033	23468
471.111	13180
471.190	12560
471.269	12513
471.347	12410
471.426	13108
471.505	15661
471.583	17032
471.662	15936
471.740	13376
471.819	14686
471.898	13934
471.976	13924
472.055	13598
472.133	15871
472.212	18900
472.290	19193
472.369	13102
472.447	13220
472.526	11985
472.604	13910
472.683	16031
472.761	17141
472.839	14721
472.918	14301
472.996	12851
473.075	14810
473.153	14362
473.231	13582
473.310	15912
473.388	15840
473.466	14955
473.545	16464
473.623	22680
473.701	23082
473.780	14310
473.858	13161
473.936	15786
474.014	14051
474.093	16387
474.171	20462
474.249	24814
474.327	18390
474.405	12573
474.484	14132
474.562	13123
474.640	13736
474.718	13472
474.796	13701
474.874	13663
474.952	11295
475.030	10860
475.108	12780
475.187	12161
475.265	15520
475.343	25548
475.421	26889
475.499	13576
475.577	13343
475.655	15638
475.733	26053
475.811	43250
475.889	38728
475.966	26827
476.044	13979
476.122	18049
476.200	24936
476.278	18043
476.356	12525
476.434	14206
476.512	16742
476.590	22757
476.667	19291
476.745	11715
476.823	13621
476.901	12198
476.979	12278
477.056	12574
477.134	11302
477.212	12918
477.290	13127
477.367	10853
477.445	11551
477.523	10969
477.601	12832
477.678	11746
477.756	13505
477.834	14627
477.911	12139
477.989	11404
478.066	10964
478.144	12902
478.222	16505
478.299	29336
478.377	26067
478.454	13015
478.532	10658
478.609	12071
478.687	13057
478.764	10339
478.842	12902
478.919	13436
478.997	12889
479.074	10077
479.152	11901
479.229	15006
479.307	10455
479.384	9843
479.461	9800
479.539	9231
479.616	12757
479.694	11343
479.771	12597
479.848	12069
479.926	14713
480.003	16186
480.080	11155
480.157	9268
480.235	10344
480.312	10098
480.389	10964
480.467	16165
480.544	18681
480.621	12645
480.698	13386
480.775	14459
480.853	13527
480.930	11409
481.007	12256
481.084	13410
481.161	17686
481.238	13742
481.315	9448
481.392	10405
481.470	10492
481.547	9756
481.624	10060
481.701	10581
481.778	10736
481.855	11587
481.932	16314
482.009	26089
482.086	18644
482.163	12967
482.240	22499
482.317	38945
482.393	27201
482.470	12690
482.547	12540
482.624	10745
482.701	12785
482.778	12235
482.855	10997
482.932	9894
483.009	10946
483.085	14093
483.162	18354
483.239	18366
483.316	12331
483.393	12477
483.469	11910
483.546	12735
483.623	12357
483.699	10083
483.776	11661
483.853	12679
483.930	17688
484.006	36327
484.083	61666
484.160	34889
484.236	50993
484.313	38888
484.389	30159
484.466	27143
484.543	27212
484.619	28677
484.696	32081
484.772	28844
484.849	28966
484.925	23768
485.002	25130
485.078	28557
485.155	29846
485.231	23606
485.308	22360
485.384	23035
485.461	28012
485.537	40538
485.614	45417
485.690	24308
485.766	22487
485.843	24027
485.919	37990
485.995	39626
486.072	22522
486.148	21074
486.224	20694
486.301	21854
486.377	26968
486.453	30982
486.530	26599
486.606	30169
486.682	34394
486.758	39021
486.835	43022
486.911	35434
486.987	56417
487.063	70379
487.139	100306
487.215	67072
487.292	33114
487.368	28080
487.444	35549
487.520	47406
487.596	47190
487.672	71917
487.748	213185
487.824	319608
487.900	95310
487.976	38076
488.052	34624
488.128	43100
488.204	30633
488.280	23275
488.356	26228
488.432	45372
488.508	66121
488.584	26952
488.660	23402
488.736	22791
488.812	24676
488.888	31123
488.964	41023
489.039	94824
489.115	146159
489.191	75942
489.267	24102
489.343	20964
489.418	18883
489.494	17002
489.570	16837
489.646	19315
489.722	18382
489.797	18406
489.873	25189
489.949	49905
490.024	40094
490.100	17793
490.176	18436
490.251	23432
490.327	32162
490.403	18626
490.478	17518
490.554	15071
490.629	16196
490.705	14558
490.781	17188
490.856	16563
490.932	19854
491.007	20509
491.083	18981
491.158	16122
491.234	20835
491.309	38176
491.385	36248
491.460	16635
491.536	19610
491.611	17879
491.686	20460
491.762	27648
491.837	60035
491.913	94640
491.988	134345
492.063	167568
492.139	37312
492.214	22537
492.289	14818
492.365	14472
492.440	18061
492.515	15927
492.590	17430
492.666	13963
492.741	19552
492.816	25170
492.891	15656
492.967	15341
493.042	14900
493.117	16916
493.192	18016
493.267	34647
493.342	121865
493.418	155120
493.493	23966
493.568	12494
493.643	13863
493.718	15687
493.793	23732
493.868	30176
493.943	20608
494.018	15502
494.093	13248
494.168	12405
494.243	12598
494.318	11114
494.393	12279
494.468	11756
494.543	12467
494.618	13797
494.693	12660
494.768	11466
494.842	12907
494.917	11415
494.992	12419
495.067	11540
495.142	11571
495.217	13281
495.292	14117
495.366	16787
495.441	19640
495.516	23211
495.591	35277
495.665	127428
495.740	305516
495.815	99015
495.890	20662
495.964	14210
496.039	17282
496.114	15012
496.188	20623
496.263	17934
496.338	13748
496.412	14549
496.487	17774
496.561	20587
496.636	21135
496.710	15267
496.785	17794
496.860	19174
496.934	14507
497.009	15592
497.083	14831
497.158	14638
497.232	16806
497.307	21280
497.381	17917
497.455	19282
497.530	23090
497.604	18002
497.679	18559
497.753	26536
497.827	33815
497.902	28714
497.976	34042
498.050	78092
498.125	315106
498.199	289307
498.273	47726
498.348	36345
498.422	29551
498.496	30057
498.570	28808
498.645	19090
498.719	18321
498.793	22313
498.867	33118
498.941	42033
499.016	122757
499.090	337368
499.164	95224
499.238	17205
499.312	17085
499.386	23968
499.460	19623
499.534	17427
499.609	22558
499.683	27677
499.757	25278
499.831	53635
499.905	221268
499.979	184869
500.053	31476
500.127	34547
500.201	31009
500.275	18789
500.349	17552
500.422	20907
500.496	31388
500.570	67306
500.644	132462
500.718	222058
500.792	43623
500.866	17136
500.940	19981
501.013	17576
501.087	18458
501.161	36134
501.235	39436
501.309	67782
501.382	193817
501.456	151951
501.530	39155
501.603	61829
501.677	23863
501.751	12537
501.825	16560
501.898	27481
501.972	76865
502.046	41978
502.119	17175
502.193	37018
502.266	83927
502.340	35098
502.413	36787
502.487	68684
502.561	36867
502.634	14641
502.708	15492
502.781	12685
502.855	12300
502.928	8668
503.002	10633
503.075	10475
503.149	10931
503.222	10628
503.295	10988
503.369	13298
503.442	18583
503.516	56294
503.589	140958
503.662	81114
503.736	29646
503.809	68839
503.882	52967
503.956	86301
504.029	87401
504.102	119183
504.175	165357
504.249	49508
504.322	24016
504.395	17482
504.468	12971
504.542	11746
504.615	9828
504.688	9585
504.761	8315
504.834	12731
504.907	17117
504.980	27481
505.053	13549
505.127	17966
505.200	18960
505.273	13493
505.346	10186
505.419	8023
505.492	8475
505.565	6083
505.638	8076
505.711	6510
505.784	7766
505.857	7179
505.930	9645
506.003	7489
506.076	11003
506.149	11138
506.221	12490
506.294	13376
506.367	30277
506.440	105583
506.513	48928
506.586	14962
506.659	9382
506.731	9549
506.804	11989
506.877	16992
506.950	11680
507.022	8749
507.095	9052
507.168	13247
507.241	10415
507.313	6871
507.386	8973
507.459	16431
507.531	10111
507.604	6915
507.677	8564
507.749	5857
507.822	11639
507.894	22083
507.967	25065
508.040	13279
508.112	13866
508.185	12317
508.257	11465
508.330	20293
508.402	10755
508.475	10860
508.547	11613
508.620	11318
508.692	17282
508.765	10459
508.837	8074
508.909	8939
508.982	9338
509.054	11592
509.127	10006
509.199	8762
509.271	7761
509.344	7922
509.416	8848
509.488	7653
509.560	10206
509.633	9368
509.705	12577
509.777	11666
509.849	19298
509.922	10703
509.994	9526
510.066	10123
510.138	9484
510.210	19343
510.283	17076
510.355	15238
510.427	13266
510.499	11611
510.571	11301
510.643	11362
510.715	23797
510.787	17466
510.859	13331
510.931	14314
511.003	22876
511.076	17778
511.148	10868
511.219	10524
511.291	17238
511.363	16714
511.435	10726
511.507	9086
511.579	11166
511.651	10007
511.723	10497
511.795	9461
511.867	9443
511.939	11242
512.010	20993
512.082	16541
512.154	10775
512.226	10870
512.298	17800
512.369	23189
512.441	18851
512.513	17967
512.585	13266
512.656	14481
512.728	16954
512.800	11760
512.871	12478
512.943	12618
513.015	10374
513.086	12280
513.158	13392
513.230	12913
513.301	21111
513.373	24907
513.444	14310
513.516	11121
513.588	10558
513.659	13726
513.731	17763
513.802	14147
513.874	34345
513.945	57102
514.016	17417
514.088	12241
514.159	12989
514.231	19492
514.302	23317
514.374	15644
514.445	13441
514.516	25824
514.588	17752
514.659	14030
514.730	22722
514.802	19027
514.873	12935
514.944	13481
515.016	14145
515.087	16538
515.158	19127
515.229	22988
515.301	12424
515.372	14611
515.443	11029
515.514	11293
515.585	9256
515.656	12290
515.728	12457
515.799	11101
515.870	14122
515.941	14217
516.012	13929
516.083	18269
516.154	20442
516.225	27363
516.296	26848
516.367	24279
516.438	27743
516.509	35127
516.580	52030
516.651	164871
516.722	591564
516.793	202213
516.864	50070
516.935	45174
517.006	50161
517.077	68517
517.148	167665
517.219	615537
517.289	837580
517.360	174869
517.431	52974
517.502	24246
517.573	23036
517.643	22513
517.714	24891
517.785	26034
517.856	28469
517.926	35855
517.997	40804
518.068	48307
518.138	64683
518.209	102824
518.280	380171
518.350	1305389
518.421	410991
518.492	64072
518.562	41252
518.633	38353
518.703	41277
518.774	75856
518.845	191981
518.915	171110
518.986	52219
519.056	35012
519.127	54173
519.197	70799
519.268	124791
519.338	66716
519.408	25412
519.479	35368
519.549	23970
519.620	16892
519.690	13504
519.760	13512
519.831	15210
519.901	14136
519.971	13285
520.042	13375
520.112	15463
520.182	19630
520.253	20885
520.323	13904
520.393	20438
520.463	32837
520.534	21801
520.604	44771
520.674	19793
520.744	21456
520.814	51687
520.885	39393
520.955	37823
521.025	127327
521.095	40970
521.165	13914
521.235	12334
521.305	11858
521.375	12288
521.445	13482
521.515	19675
521.585	22649
521.655	19773
521.725	16483
521.795	14268
521.865	9787
521.935	17884
522.005	13086
522.075	10859
522.145	12593
522.215	13058
522.285	17849
522.355	21626
522.424	36428
522.494	31407
522.564	20470
522.634	47161
522.704	139889
522.774	41815
522.843	14190
522.913	15294
522.983	19664
523.053	14473
523.122	15455
523.192	19997
523.262	76808
523.331	61701
523.401	14998
523.471	11311
523.540	12010
523.610	9120
523.680	9999
523.749	11196
523.819	12514
523.888	11981
523.958	8688
524.027	10862
524.097	11582
524.166	10939
524.236	11458
524.305	12947
524.375	9063
524.444	8279
524.514	11763
524.583	11505
524.653	11873
524.722	13949
524.791	9789
524.861	11406
524.930	9325
524.999	11591
525.069	15869
525.138	11554
525.207	13148
525.277	12094
525.346	11896
525.415	11972
525.484	12840
525.554	14694
525.623	15327
525.692	17285
525.761	18476
525.830	21649
525.900	24974
525.969	37819
526.038	62228
526.107	129400
526.176	371214
526.245	273680
526.314	87152
526.383	193561
526.452	242018
526.522	415954
526.591	360827
526.660	98203
526.729	51375
526.797	58293
526.867	114346
526.935	462888
527.004	841174
527.073	401736
527.142	44603
527.211	23991
527.280	22292
527.349	20622
527.418	11625
527.487	12989
527.555	9609
527.624	10596
527.693	9747
527.762	10836
527.831	8682
527.899	9951
527.968	9594
528.037	9778
528.106	12598
528.174	22465
528.243	15519
528.312	23510
528.380	29205
528.449	10359
528.518	10419
528.586	7424
528.655	9357
528.723	7841
528.792	7684
528.861	9545
528.929	8382
528.998	11835
529.066	16065
529.135	27371
529.203	23318
529.272	34367
529.340	42080
529.409	38378
529.477	33870
529.545	35632
529.614	39157
529.682	46765
529.751	50025
529.819	53978
529.887	58260
529.956	52918
530.024	49619
530.092	45805
530.161	48084
530.229	55954
530.297	55118
530.365	49814
530.434	53923
530.502	56223
530.570	48084
530.638	42461
530.707	41089
530.775	39800
530.843	40097
530.911	45998
530.979	44509
531.047	53646
531.115	49545
531.183	45927
531.252	42185
531.320	40619
531.388	40215
531.456	48361
531.524	48569
531.592	53035
531.660	59812
531.728	52197
531.796	50025
531.864	50718
531.932	49885
532.000	49399
532.067	55900
532.135	59892
532.203	62096
532.271	66566
532.339	70196
532.407	103883
532.475	75617
532.542	59715
532.610	61685
532.678	73352
532.746	157193
532.814	295398
532.881	102608
532.949	63854
533.017	56306
533.084	54406
533.152	50493
533.220	50836
533.287	52738
533.355	54542
533.423	54890
533.490	55986
533.558	52678
533.625	50145
533.693	48789
533.761	47106
533.828	47338
533.896	48457
533.963	61007
534.031	64043
534.098	78316
534.166	54595
534.233	45468
534.300	47835
534.368	44294
534.435	42863
534.503	43244
534.570	48002
534.637	47043
534.705	49906
534.772	51906
534.840	64965
534.907	194248
534.974	209990
535.041	48160
535.109	38931
535.176	35003
535.243	36788
535.310	37645
535.378	37600
535.445	33835
535.512	31931
535.579	31995
535.646	29780
535.714	29801
535.781	31587
535.848	32367
535.915	32793
535.982	32625
536.049	33110
536.116	31878
536.183	28804
536.250	27732
536.317	27650
536.384	28764
536.451	34486
536.518	36129
536.585	30431
536.652	34983
536.719	41258
536.786	33208
536.853	29805
536.920	35777
536.987	45712
537.053	45051
537.120	144723
537.187	107866
537.254	27630
537.321	25161
537.388	25404
537.454	21562
537.521	20561
537.588	19581
537.654	22371
537.721	22796
537.788	23232
537.855	20230
537.921	22644
537.988	21669
538.055	21665
538.121	19605
538.188	20935
538.254	25815
538.321	42606
538.388	28185
538.454	19448
538.521	19360
538.587	18858
538.654	18094
538.720	18341
538.787	18306
538.853	18538
538.920	19628
538.986	19086
539.053	16869
539.119	19305
539.185	18465
539.252	22905
539.318	28065
539.385	23730
539.451	19727
539.517	20961
539.583	23477
539.650	45300
539.716	97894
539.782	26825
539.849	17614
539.915	18141
539.981	17972
540.047	20991
540.114	18182
540.180	19995
540.246	18608
540.312	23722
540.378	39373
540.444	37784
540.510	44711
540.576	111679
540.643	30967
540.709	16198
540.775	16726
540.841	16185
540.907	18362
540.973	24736
541.039	23649
541.105	23407
541.171	16547
541.237	15768
541.303	15584
541.369	19387
541.435	21813
541.500	33255
541.566	21211
541.632	14051
541.698	13113
541.764	14420
541.830	12158
541.896	13204
541.961	13873
542.027	14048
542.093	14879
542.159	16429
542.224	15721
542.290	21234
542.356	31706
542.421	34294
542.487	18442
542.553	15423
542.618	15173
542.684	15255
542.750	13457
542.815	18382
542.881	28689
542.947	97481
543.012	59246
543.078	14704
543.143	14026
543.209	14585
543.274	14083
543.340	17319
543.405	39973
543.471	53954
543.536	15279
543.602	13756
543.667	12033
543.732	14635
543.798	11715
543.863	13141
543.928	12016
543.994	12029
544.059	13001
544.124	13591
544.190	12264
544.255	14381
544.320	14276
544.386	15692
544.451	20140
544.516	21983
544.581	22435
544.646	61941
544.712	82623
544.777	18445
544.842	16316
544.907	15921
544.972	14534
545.037	15535
545.102	15753
545.168	15980
545.233	16943
545.298	18450
545.363	17895
545.428	22286
545.493	37422
545.558	75103
545.623	28607
545.688	16428
545.753	16219
545.818	15672
545.883	18095
545.947	16667
546.012	18261
546.077	17525
546.142	18982
546.207	19398
546.272	24583
546.337	23770
546.401	21519
546.466	20247
546.531	20398
546.596	21862
546.661	22196
546.725	23109
546.790	22871
546.855	25849
546.919	25306
546.984	28328
547.049	31855
547.113	34942
547.178	36496
547.243	42509
547.307	47451
547.372	53356
547.436	53403
547.501	52482
547.565	57175
547.630	57051
547.695	54290
547.759	53288
547.823	51463
547.888	52010
547.952	52412
548.017	55757
548.081	59271
548.146	60333
548.210	58985
548.274	60835
548.339	59755
548.403	55267
548.468	51446
548.532	51608
548.596	52466
548.660	52346
548.725	58511
548.789	64468
548.853	62462
548.917	57923
548.982	58607
549.046	54126
549.110	46008
549.174	46657
549.238	54218
549.303	59338
549.367	60824
549.431	58114
549.495	54571
549.559	53915
549.623	62990
549.687	73310
549.751	75300
549.815	81426
549.879	81367
549.943	76159
550.007	81317
550.071	81010
550.135	78265
550.199	69990
550.263	67114
550.327	65706
550.391	69341
550.455	74106
550.519	76351
550.582	82208
550.646	97858
550.710	99972
550.774	91241
550.838	91054
550.901	93519
550.965	100115
551.029	103550
551.093	111315
551.156	120437
551.220	148066
551.284	163807
551.347	119133
551.411	119959
551.475	114149
551.538	98064
551.602	90289
551.666	85246
551.729	78745
551.793	79071
551.856	77338
551.920	75655
551.983	76801
552.047	73978
552.110	74865
552.174	75193
552.237	78044
552.301	72085
552.364	68976
552.428	67206
552.491	69542
552.554	72788
552.618	71720
552.681	74324
552.745	75190
552.808	89981
552.871	104162
552.934	80875
552.998	73666
553.061	70695
553.124	68453
553.187	67802
553.251	70890
553.314	70408
553.377	72194
553.440	85438
553.503	137210
553.567	162504
553.630	79432
553.693	72714
553.756	74351
553.819	69820
553.882	67261
553.945	66070
554.008	68610
554.071	67706
554.134	69362
554.197	63999
554.260	63740
554.323	65713
554.386	66171
554.449	67667
554.512	67904
554.575	63668
554.638	64639
554.701	62747
554.764	63118
554.827	61260
554.889	58654
554.952	54588
555.015	54532
555.078	55328
555.141	56481
555.203	54462
555.266	54891
555.329	54979
555.391	52930
555.454	53597
555.517	51992
555.580	48243
555.642	46682
555.705	45065
555.768	46294
555.830	45067
555.893	43287
555.955	41151
556.018	41552
556.080	40985
556.143	43094
556.206	42605
556.268	42167
556.330	41992
556.393	41566
556.455	39172
556.518	43015
556.580	40234
556.643	35731
556.705	35202
556.767	34652
556.830	35240
556.892	38319
556.955	44497
557.017	36737
557.079	33165
557.142	32735
557.204	35527
557.266	49378
557.328	39649
557.391	29035
557.453	28176
557.515	29673
557.577	32545
557.639	33858
557.701	29452
557.764	28213
557.826	29509
557.888	32153
557.950	33106
558.012	37581
558.074	48925
558.136	109472
558.198	237053
558.260	77807
558.322	37325
558.384	39369
558.446	43256
558.508	49324
558.570	58084
558.632	81005
558.694	109856
558.756	143964
558.818	414568
558.880	879930
558.942	268418
559.003	255984
559.065	112545
559.127	53142
559.189	49599
559.251	60427
559.312	89005
559.374	209260
559.436	631792
559.498	262620
559.559	54838
559.621	50432
559.683	61579
559.744	104754
559.806	322973
559.868	426553
559.929	78969
559.991	55487
560.052	86372
560.114	237460
560.176	136397
560.237	138832
560.299	206494
560.360	42386
560.422	22215
560.483	20466
560.545	19153
560.606	17760
560.667	16323
560.729	16201
560.790	15197
560.852	15645
560.913	15348
560.974	15354
561.036	15097
561.097	15846
561.158	14867
561.220	16786
561.281	15129
561.342	15784
561.403	17661
561.465	23563
561.526	47634
561.587	56276
561.648	18118
561.709	16271
561.771	14949
561.832	14920
561.893	14255
561.954	13999
562.015	13951
562.076	13938
562.137	13641
562.198	13844
562.259	14027
562.320	14597
562.381	16338
562.442	21798
562.503	16785
562.564	14413
562.625	13297
562.686	13167
562.747	15499
562.808	15042
562.869	12886
562.930	14905
562.991	13067
563.051	13979
563.112	13347
563.173	13326
563.234	12500
563.294	12640
563.355	13235
563.416	13843
563.477	12482
563.537	13569
563.598	12981
563.659	12844
563.720	12350
563.780	13935
563.841	13108
563.901	13837
563.962	12295
564.023	13422
564.083	12938
564.144	12753
564.204	12195
564.265	12804
564.325	13521
564.386	21623
564.446	17280
564.507	11405
564.567	11479
564.628	13333
564.688	11985
564.749	11985
564.809	12378
564.869	14782
564.930	12120
564.990	12442
565.050	11093
565.111	12182
565.171	11368
565.231	12605
565.292	12020
565.352	11824
565.412	12335
565.472	13530
565.532	12615
565.593	12158
565.653	11494
565.713	12974
565.773	13932
565.833	16802
565.893	19374
565.953	12791
566.013	11532
566.074	13136
566.134	14895
566.194	19737
566.254	20113
566.314	15038
566.374	11739
566.434	11608
566.494	11766
566.554	12360
566.614	12854
566.673	13112
566.733	13320
566.793	14218
566.853	12545
566.913	13205
566.973	13752
567.033	15867
567.092	15600
567.152	15478
567.212	14398
567.272	12735
567.331	13814
567.391	13884
567.451	14666
567.511	17721
567.570	16273
567.630	14125
567.690	12492
567.749	14405
567.809	13492
567.868	14165
567.928	13444
567.988	15496
568.047	15166
568.107	17070
568.166	19613
568.226	24837
568.285	30414
568.345	26874
568.404	22081
568.464	20232
568.523	19311
568.582	20479
568.642	23048
568.701	25348
568.761	32361
568.820	45957
568.879	42643
568.939	32425
568.998	25567
569.057	20992
569.116	18029
569.176	16579
569.235	15313
569.294	15580
569.353	15039
569.413	13568
569.472	13039
569.531	13131
569.590	11888
569.649	13253
569.708	12566
569.767	14528
569.827	18073
569.886	15242
569.945	12148
570.004	12881
570.063	12346
570.122	13619
570.181	13687
570.240	13982
570.299	15688
570.358	16987
570.417	12088
570.475	11944
570.534	12295
570.593	13955
570.652	13720
570.711	15381
570.770	11451
570.829	14010
570.887	13504
570.946	14990
571.005	12257
571.064	12292
571.122	13820
571.181	14772
571.240	11432
571.299	10536
571.357	11806
571.416	12439
571.475	12336
571.533	12820
571.592	12177
571.650	12766
571.709	10944
571.768	13962
571.826	12150
571.885	11457
571.943	10848
572.002	10252
572.060	10754
572.119	11004
572.177	9761
572.236	10507
572.294	10261
572.352	11154
572.411	10468
572.469	11015
572.528	11206
572.586	12338
572.644	13992
572.703	19189
572.761	12642
572.819	10834
572.877	8890
572.936	9410
572.994	10210
573.052	10217
573.110	10944
573.169	10749
573.227	9750
573.285	9722
573.343	10067
573.401	10700
573.459	9567
573.517	10645
573.576	10743
573.634	10369
573.692	11781
573.750	10144
573.808	9486
573.866	10382
573.924	11597
573.982	11479
574.040	9490
574.098	9500
574.155	9037
574.213	9136
574.271	10610
574.329	10465
574.387	9338
574.445	10369
574.503	8597
574.560	8820
574.618	8494
574.676	8234
574.734	8437
574.792	9230
574.849	8055
574.907	8296
574.965	7504
575.022	7997
575.080	8329
575.138	9705
575.195	8377
575.253	8327
575.311	10602
575.368	8515
575.426	7244
575.483	8082
575.541	6980
575.598	7694
575.656	9350
575.713	9213
575.771	9186
575.828	8764
575.886	8665
575.943	9065
576.001	8515
576.058	8504
576.115	9647
576.173	10227
576.230	11856
576.287	12790
576.345	11191
576.402	9335
576.459	8748
576.517	8788
576.574	9317
576.631	9352
576.688	8081
576.746	8748
576.803	7769
576.860	8092
576.917	8504
576.974	8415
577.031	8986
577.089	8144
577.146	7854
577.203	9209
577.260	8439
577.317	8813
577.374	9986
577.431	10246
577.488	9690
577.545	7923
577.602	9424
577.659	9605
577.716	9112
577.773	9329
577.830	8218
577.886	8298
577.943	8457
578.000	8969
578.057	8359
578.114	8869
578.171	8516
578.227	9942
578.284	9070
578.341	9790
578.398	9475
578.454	9991
578.511	9943
578.568	11185
578.625	9387
578.681	8027
578.738	8395
578.794	9195
578.851	8832
578.908	9459
578.964	9795
579.021	10135
579.077	9513
579.134	10090
579.190	8256
579.247	9489
579.303	8835
579.360	8930
579.416	9345
579.473	9531
579.529	8379
579.586	9036
579.642	8929
579.698	9687
579.755	9519
579.811	10132
579.867	9434
579.924	10040
579.980	9668
580.036	10934
580.093	11139
580.149	13514
580.205	13764
580.261	12615
580.317	11466
580.374	11245
580.430	13109
580.486	12176
580.542	11525
580.598	12166
580.619	12050
580.654	11860
580.692	12200
580.710	12396
580.765	12385
580.767	12399
580.823	12281
580.838	12130
580.879	11764
580.911	12445
580.935	12966
580.984	11955
580.991	11838
581.047	12283
581.057	12293
581.103	12355
581.130	13077
581.159	13863
581.203	13852
581.215	13860
581.270	13180
581.276	13181
581.326	13384
581.349	13705
581.382	14151
581.422	13325
581.438	13012
581.494	14115
581.494	14098
581.550	13557
581.567	13829
581.606	14436
581.640	13887
581.661	13565
581.713	15272
581.717	15420
581.773	14713
581.786	14876
581.829	15434
581.859	14850
581.885	14415
581.932	15194
581.940	15312
581.996	14757
582.004	14941
582.052	16066
582.077	15541
582.107	15011
582.150	15382
582.163	15470
582.219	15308
582.223	15425
582.274	17005
582.296	16817
582.330	16498
582.368	16909
582.386	17207
582.441	16160
582.441	16162
582.497	17412
582.514	17224
582.552	17084
582.587	18508
582.608	19283
582.659	17819
582.663	17713
582.719	18831
582.732	18774
582.774	18863
582.805	20011
582.830	20889
582.877	20994
582.885	21000
582.941	22723
582.950	23074
582.996	25294
583.023	27289
583.052	29328
583.095	28601
583.107	28299
583.162	26566
583.168	26388
583.218	24848
583.240	23773
583.273	22233
583.313	21544
583.328	21395
583.384	20736
583.385	20711
583.439	19581
583.458	19558
583.494	19558
583.531	18687
583.549	18339
583.603	18350
583.605	18341
583.660	17239
583.676	17376
583.715	17836
583.748	18005
583.770	18124
583.820	18782
583.825	18816
583.881	17492
583.893	17253
583.936	16735
583.965	17131
583.991	17440
584.038	18507
584.046	18685
584.101	17638
584.110	17749
584.156	18110
584.183	18111
584.211	18130
584.255	18481
584.266	18688
584.321	18746
584.328	18899
584.376	19604
584.400	19432
584.431	19252
584.472	19916
584.486	20071
584.541	20681
584.545	20708
584.596	21432
584.617	21257
584.651	21005
584.689	21873
584.706	22173
584.761	21856
584.762	21861
584.816	21674
584.834	21900
584.871	22585
584.906	22850
584.926	22876
584.978	22595
584.980	22588
585.035	23460
585.051	23637
585.090	23935
585.123	24952
585.145	25775
585.195	26611
585.200	26704
585.254	28983
585.267	29639
585.309	31691
585.340	34023
585.364	35794
585.412	37746
585.419	38116
585.473	43646
585.484	45423
585.528	55219
585.556	65963
585.583	85518
585.628	134065
585.637	150351
585.692	295994
585.700	321930
585.747	417231
585.772	348972
585.801	216091
585.845	79484
585.856	62068
585.910	39019
585.917	37034
585.965	32296
585.989	30675
586.019	29014
586.061	26681
586.074	26236
586.128	26787
586.133	26736
586.183	25568
586.205	25265
586.237	24706
586.277	23132
586.292	22705
586.346	22446
586.349	22418
586.401	21529
586.421	21534
586.455	21534
586.493	21342
586.509	21854
586.564	24616
586.565	24747
586.618	31386
586.637	31674
586.672	28851
586.709	25623
586.727	24694
586.781	24718
586.781	24708
586.835	20907
586.853	19853
586.889	18903
586.925	18328
586.944	18237
586.996	18554
586.998	18557
587.052	18325
587.068	18523
587.106	18566
587.140	17960
587.161	17776
587.212	17704
587.215	17725
587.269	18076
587.284	18394
587.323	18624
587.356	18617
587.377	18688
587.427	19368
587.431	19404
587.485	18853
587.499	18885
587.539	19431
587.571	19804
587.593	20005
587.643	20974
587.648	21058
587.702	20970
587.715	21259
587.755	21709
587.786	21734
587.810	21904
587.858	22250
587.864	22355
587.917	24350
587.930	24618
587.971	25580
588.001	26686
588.025	26996
588.073	27620
588.079	27884
588.133	30197
588.145	30912
588.187	32833
588.217	34107
588.241	35543
588.288	39482
588.295	40053
588.348	45494
588.360	46806
588.402	51508
588.431	54884
588.456	58102
588.503	65577
588.510	66659
588.564	78042
588.575	80901
588.617	91999
588.646	101370
588.671	111473
588.718	136379
588.725	142013
588.778	199848
588.789	216445
588.832	342163
588.861	445949
588.886	600843
588.932	924151
588.939	949472
588.993	1055255
589.004	1053041
589.047	699846
589.075	445550
589.100	327051
589.147	174009
589.154	164944
589.207	126900
589.218	121474
589.261	115504
589.290	115462
589.314	120084
589.361	136837
589.368	143458
589.421	212995
589.433	232445
589.475	398456
589.504	536265
589.528	675758
589.576	927078
589.582	902234
589.635	544360
589.647	463476
589.689	242343
589.718	122242
589.742	97174
589.790	64961
589.795	63143
589.849	51066
589.861	49187
589.902	45537
589.932	42443
589.955	38878
590.004	32180
590.009	31826
590.062	29154
590.075	28584
590.115	27350
590.146	26657
590.168	25767
590.218	23875
590.222	23921
590.275	24840
590.289	25090
590.328	24729
590.360	24475
590.381	24012
590.431	23170
590.435	23139
590.488	22436
590.503	22293
590.541	22592
590.574	22939
590.594	22900
590.645	22809
590.647	22800
590.700	22456
590.716	22373
590.753	22937
590.787	23296
590.806	22972
590.859	22591
590.859	22600
590.912	22533
590.930	22662
590.965	23140
591.001	23462
591.018	23057
591.071	21946
591.072	21930
591.124	22264
591.143	22497
591.177	22826
591.214	23104
591.230	23243
591.283	23741
591.285	23744
591.336	24375
591.356	24759
591.389	24406
591.427	23661
591.442	23357
591.495	22292
591.498	22207
591.547	22076
591.569	22090
591.600	22231
591.640	22230
591.653	22180
591.706	21986
591.711	21966
591.759	23792
591.782	24739
591.811	25189
591.853	25733
591.864	25479
591.917	23957
591.924	23740
591.969	23756
591.995	23775
592.022	24135
592.066	24685
592.075	24901
592.127	26105
592.137	26329
592.180	27177
592.208	27673
592.233	26952
592.279	25416
592.285	25437
592.338	25616
592.350	25620
592.390	25014
592.421	24588
592.443	24876
592.491	25446
592.495	25483
592.548	25877
592.562	25981
592.600	25825
592.633	25671
592.653	25753
592.704	25811
592.705	25978
592.775	27014
592.846	27130
592.916	27920
592.987	28404
593.058	28253
593.128	27400
593.199	27397
593.270	27720
593.341	28075
593.411	29143
593.482	29872
593.553	30673
593.623	30285
593.694	31454
593.764	32215
593.835	30764
593.906	31233
593.976	32277
594.047	32433
594.117	35596
594.188	36571
594.258	34525
594.329	33794
594.399	34857
594.470	35647
594.540	36365
594.611	37274
594.681	36609
594.751	36276
594.822	38978
594.892	39760
594.963	41741
595.033	41109
595.103	44333
595.174	44227
595.244	49341
595.314	53435
595.384	46482
595.455	46294
595.525	48985
595.595	50764
595.665	51666
595.736	48905
595.806	50983
595.876	51855
595.946	51665
596.016	53889
596.087	54380
596.157	56682
596.227	55961
596.297	58426
596.367	62149
596.437	67028
596.507	69700
596.577	72212
596.647	67600
596.717	70649
596.787	72183
596.857	71801
596.927	72496
596.997	73822
597.067	74759
597.137	75429
597.207	75689
597.277	77995
597.347	74548
597.417	73498
597.487	74477
597.557	75913
597.626	77292
597.696	80908
597.766	82559
597.836	82311
597.906	74522
597.975	73074
598.045	74611
598.115	78076
598.185	82633
598.254	91296
598.324	97674
598.394	99372
598.464	97584
598.533	96060
598.603	91775
598.672	89952
598.742	93472
598.812	93157
598.881	95576
598.951	95656
599.020	98619
599.090	100758
599.159	105481
599.229	101662
599.299	101245
599.368	104664
599.437	103551
599.507	98724
599.576	98125
599.646	98911
599.715	98236
599.785	99582
599.854	100241
599.924	99660
599.993	100031
600.062	103291
600.132	105020
600.201	111733
600.270	125001
600.340	128123
600.409	128881
600.478	130197
600.547	133709
600.617	128697
600.686	114918
600.755	111024
600.824	110600
600.894	111574
600.963	113680
601.032	114022
601.101	116098
601.170	116455
601.239	117073
601.308	119032
601.378	124029
601.447	124513
601.516	127120
601.585	130285
601.654	135853
601.723	136427
601.792	142219
601.861	146934
601.930	155137
601.999	162383
602.068	160151
602.137	161769
602.206	162682
602.275	163260
602.343	166122
602.412	168315
602.481	167189
602.550	166241
602.619	173087
602.688	171640
602.756	174154
602.825	173983
602.894	178883
602.963	175781
603.032	179407
603.100	180061
603.169	174405
603.238	185408
603.307	174305
603.375	177236
603.444	185687
603.513	171333
603.581	179746
603.650	189163
603.719	155308
603.787	146732
603.856	152276
603.924	154886
603.993	158790
604.061	163416
604.130	167857
604.198	172992
604.267	175042
604.335	178377
604.404	178622
604.472	185842
604.541	184877
604.609	192269
604.678	199371
604.746	201628
604.815	214549
604.883	204212
604.951	199350
605.020	203215
605.088	187045
605.156	177343
605.225	178970
605.293	174893
605.361	178968
605.429	176741
605.498	183427
605.566	178369
605.634	189160
605.702	188577
605.771	190535
605.839	197727
605.907	181017
605.975	188747
606.043	177667
606.111	173598
606.180	192260
606.248	170632
606.316	167907
606.384	184698
606.452	145375
606.520	122941
606.588	123410
606.656	123588
606.724	120390
606.792	113611
606.860	102968
606.928	95594
606.996	89449
607.064	88392
607.132	91834
607.200	97579
607.267	101811
607.335	102658
607.403	104881
607.471	99843
607.539	99041
607.607	98818
607.674	87320
607.742	88358
607.810	87498
607.878	86663
607.946	89478
608.013	91915
608.081	94397
608.149	94508
608.216	97502
608.284	99942
608.352	97017
608.419	96871
608.487	99037
608.555	93547
608.622	95987
608.690	99867
608.757	108016
608.825	110025
608.893	108997
608.960	104943
609.028	101244
609.095	101422
609.163	96356
609.230	86098
609.298	79023
609.365	83292
609.432	88157
609.500	97174
609.567	113041
609.635	130695
609.702	136996
609.769	130728
609.837	102236
609.904	84414
609.971	89774
610.039	101623
610.106	137375
610.173	272445
610.241	627894
610.308	320463
610.375	116823
610.442	93146
610.509	88682
610.577	89446
610.644	88272
610.711	93109
610.778	95146
610.845	99673
610.912	105192
610.980	110586
611.047	112076
611.114	110303
611.181	104999
611.248	102092
611.315	111076
611.382	113219
611.449	116745
611.516	118716
611.583	117036
611.650	119210
611.717	120760
611.784	122715
611.851	130907
611.918	140039
611.984	166272
612.051	242902
612.118	507119
612.185	1232306
612.252	709719
612.319	193072
612.386	159386
612.452	143483
612.519	137452
612.586	136128
612.653	136950
612.719	141615
612.786	134476
612.853	123891
612.919	120958
612.986	124831
613.053	115644
613.120	108598
613.186	103577
613.253	107806
613.319	104886
613.386	105970
613.453	108652
613.519	110808
613.586	109711
613.652	118817
613.719	112460
613.785	111720
613.852	110653
613.918	108293
613.985	111989
614.051	117523
614.118	125888
614.184	119048
614.250	107523
614.317	111856
614.383	110346
614.449	111898
614.516	109724
614.582	110105
614.648	108943
614.715	109731
614.781	105067
614.847	105708
614.914	105435
614.980	102525
615.046	102404
615.112	105174
615.179	105007
615.245	107758
615.311	106033
615.377	110526
615.443	110182
615.509	112361
615.575	115462
615.642	113362
615.708	118499
615.774	122185
615.840	130895
615.906	142374
615.972	175665
616.038	277346
616.104	607900
616.170	1438092
616.236	1124707
616.302	275336
616.368	206123
616.434	148585
616.500	139135
616.565	155498
616.631	192915
616.697	153713
616.763	164860
616.829	254784
616.895	456459
616.961	407707
617.026	167121
617.092	121073
617.158	114617
617.224	112444
617.289	103988
617.355	99056
617.421	96755
617.487	98196
617.552	92003
617.618	90324
617.684	92372
617.749	94211
617.815	88520
617.880	85933
617.946	87068
618.012	89104
618.077	90385
618.143	85963
618.208	87295
618.274	93978
618.339	94211
618.405	77186
618.470	79286
618.536	78049
618.601	78549
618.667	71350
618.732	68490
618.798	67336
618.863	68028
618.928	66371
618.994	69202
619.059	69334
619.124	75083
619.190	69597
619.255	67321
619.320	68124
619.386	66964
619.451	66003
619.516	65111
619.581	66348
619.647	66874
619.712	67166
619.777	65971
619.842	65722
619.907	68751
619.972	68195
620.038	67198
620.103	65079
620.168	64998
620.233	67410
620.298	67203
620.363	68188
620.428	70609
620.493	71775
620.558	72099
620.623	73104
620.688	73268
620.753	71862
620.818	75750
620.883	75919
620.948	74374
621.013	73057
621.078	72478
621.143	72712
621.207	76676
621.272	74581
621.337	72616
621.402	72105
621.467	73069
621.532	74581
621.596	73724
621.661	70347
621.726	68291
621.791	68953
621.855	71132
621.920	71725
621.985	71136
622.049	73696
622.114	73858
622.179	74570
622.243	75779
622.308	77212
622.373	81287
622.437	77456
622.502	75316
622.566	72909
622.631	72418
622.695	74842
622.760	74893
622.824	74282
622.889	75665
622.953	76682
623.018	87340
623.082	86777
623.147	79255
623.211	77492
623.276	77402
623.340	72847
623.404	71870
623.469	70861
623.533	73988
623.597	69581
623.662	69930
623.726	65403
623.790	61208
623.854	59826
623.919	63441
623.983	62553
624.047	63573
624.111	63431
624.176	66189
624.240	68653
624.304	71662
624.368	64574
624.432	64465
624.496	65743
624.560	70522
624.625	71727
624.689	70534
624.753	72053
624.817	68639
624.881	65494
624.945	62374
625.009	60432
625.073	60850
625.137	63402
625.201	68676
625.265	67569
625.329	62169
625.393	64526
625.456	62426
625.520	63909
625.584	67427
625.648	71305
625.712	79226
625.776	99360
625.839	100447
625.903	62522
625.967	53875
626.031	64635
626.095	82430
626.158	61548
626.222	47415
626.286	45015
626.349	42382
626.413	41038
626.477	41855
626.540	40633
626.604	39631
626.668	40192
626.731	39324
626.795	40569
626.858	39766
626.922	37827
626.986	38100
627.049	36444
627.113	39610
627.176	39646
627.240	38089
627.303	36301
627.366	36154
627.430	38123
627.493	37339
627.557	35210
627.620	39253
627.684	38092
627.747	38423
627.810	32356
627.874	31149
627.937	30686
628.000	33750
628.064	32114
628.127	26504
628.190	27671
628.253	26695
628.317	25598
628.380	24572
628.443	24623
628.506	25542
628.569	23055
628.632	21656
628.696	22366
628.759	22103
628.822	19539
628.885	20249
628.948	20671
629.011	19967
629.074	19526
629.137	18448
629.200	18378
629.263	20878
629.326	18352
629.389	18219
629.452	18986
629.515	19103
629.578	18490
629.641	19638
629.704	17813
629.767	18540
629.830	17819
629.892	16397
629.955	16032
630.018	19324
630.081	18033
630.144	21049
630.207	17346
630.269	19154
630.332	17215
630.395	17381
630.458	16422
630.520	16000
630.583	17286
630.646	16155
630.708	15883
630.771	15676
630.834	17657
630.896	15902
630.959	16638
631.021	15483
631.084	16867
631.146	18183
631.209	18386
631.272	15377
631.334	16809
631.397	16656
631.459	16741
631.522	18856
631.584	18785
631.646	20780
631.709	21719
631.771	24180
631.834	21215
631.896	18836
631.958	17078
632.021	17762
632.083	14770
632.145	16695
632.208	16123
632.270	16894
632.332	14787
632.395	15237
632.457	16268
632.519	15146
632.581	16710
632.643	15121
632.706	15167
632.768	14167
632.830	15591
632.892	16302
632.954	15112
633.016	15410
633.078	15282
633.141	16090
633.203	16120
633.265	15840
633.327	16061
633.389	15018
633.451	16581
633.513	17422
633.575	17372
633.637	16949
633.698	15999
633.760	17183
633.822	17415
633.884	17884
633.946	18230
634.008	17348
634.070	18684
634.132	21040
634.193	22043
634.255	25252
634.317	25802
634.379	25982
634.441	21997
634.502	18955
634.564	17377
634.626	16991
634.687	15856
634.749	15455
634.811	15844
634.873	14162
634.934	15261
634.996	15393
635.057	14466
635.119	14476
635.181	15207
635.242	16346
635.304	13474
635.365	18210
635.427	14897
635.488	16093
635.550	14470
635.611	16109
635.673	14441
635.734	17808
635.796	16956
635.857	20484
635.918	19154
635.980	23553
636.041	23168
636.102	26735
636.164	26904
636.225	27255
636.286	21061
636.348	19556
636.409	18103
636.470	15854
636.531	16409
636.593	16405
636.654	15125
636.715	13902
636.776	12986
636.838	13010
636.899	13793
636.960	13437
637.021	12617
637.082	12241
637.143	12006
637.204	11796
637.265	11705
637.326	12452
637.387	12763
637.448	11472
637.509	12804
637.570	12994
637.631	11559
637.692	11513
637.753	10443
637.814	12340
637.875	11588
637.936	11491
637.997	10862
638.058	11404
638.119	11928
638.179	11800
638.240	11396
638.301	10762
638.362	9740
638.423	10373
638.483	11742
638.544	9634
638.605	10849
638.666	11007
638.726	10942
638.787	11516
638.848	10047
638.908	10508
638.969	10678
639.030	10076
639.090	9224
639.151	10304
639.211	11058
639.272	12941
639.332	16161
639.393	13635
639.453	11184
639.514	12263
639.574	10605
639.635	9131
639.695	11023
639.756	9040
639.816	10195
639.877	11359
639.937	14749
639.997	17358
640.058	9465
640.118	8536
640.178	10097
640.239	9825
640.299	9029
640.359	9510
640.420	10535
640.480	12387
640.540	13519
640.600	13864
640.661	11202
640.721	11288
640.781	16256
640.841	14463
640.901	11253
640.961	10190
641.021	10849
641.082	12118
641.142	12197
641.202	11555
641.262	7664
641.322	10004
641.382	8239
641.442	8522
641.502	8136
641.562	10379
641.622	9226
641.682	11258
641.742	11175
641.802	10207
641.861	9396
641.921	8900
641.981	9940
642.041	10322
642.101	10513
642.161	7722
642.221	7822
642.280	8219
642.340	8179
642.400	7296
642.460	10410
642.519	8727
642.579	8513
642.639	9510
642.698	6483
642.758	10567
642.818	9653
642.877	8451
642.937	8867
642.997	10335
643.056	12447
643.116	9270
643.175	9775
643.235	9426
643.294	9216
643.354	11177
643.414	11580
643.473	13337
643.532	16849
643.592	25323
643.651	43226
643.711	80287
643.770	165856
643.830	416565
643.889	837796
643.948	175539
644.008	31181
644.067	20035
644.126	14666
644.186	12513
644.245	11843
644.304	8985
644.363	11757
644.423	8664
644.482	10359
644.541	9942
644.600	9361
644.659	14265
644.719	17141
644.778	26828
644.837	49863
644.896	107682
644.955	243104
645.014	70219
645.073	16082
645.132	11544
645.191	10696
645.250	9970
645.309	11463
645.368	12352
645.427	16282
645.486	28493
645.545	48179
645.604	14098
645.663	10813
645.722	10524
645.781	10781
645.840	12604
645.898	16806
645.957	24111
646.016	39626
646.075	77552
646.134	155703
646.192	441816
646.251	600509
646.310	79559
646.369	23481
646.427	18593
646.486	11900
646.545	12099
646.603	10110
646.662	9341
646.721	9817
646.779	8375
646.838	8158
646.896	12273
646.955	17441
647.014	28546
647.072	56094
647.131	156638
647.189	65767
647.248	10791
647.306	9417
647.365	7705
647.423	5955
647.481	8835
647.540	5772
647.598	6851
647.657	5722
647.715	7045
647.773	5356
647.832	7291
647.890	4784
647.948	5332
648.007	6277
648.065	5088
648.123	4540
648.181	6403
648.240	6301
648.298	4087
648.356	5962
648.414	5096
648.472	4872
648.531	5874
648.589	4738
648.647	5809
648.705	4807
648.763	4989
648.821	4938
648.879	5949
648.937	7328
648.995	7800
649.053	11872
649.111	19224
649.169	32864
649.227	64291
649.285	141227
649.343	400473
649.401	165257
649.459	29263
649.516	16282
649.574	10088
649.632	13458
649.690	16016
649.748	15056
649.806	19873
649.863	39131
649.921	109006
649.979	64550
650.037	9746
650.094	4856
650.152	5845
650.210	3860
650.268	5637
650.325	5440
650.383	7269
650.440	4349
650.498	4436
650.556	3374
650.613	3892
650.671	3885
650.728	4023
650.786	3966
650.843	6440
650.901	3504
650.958	4151
651.016	3023
651.073	3212
651.131	3542
651.188	2757
651.246	3296
651.303	3044
651.360	3395
651.418	2532
651.475	3259
651.532	1758
651.590	3048
651.647	2368
651.704	2597
651.762	2711
651.819	3480
651.876	2922
651.933	2154
651.990	3308
652.048	1805
652.105	2218
652.162	2688
652.219	2294
652.276	3182
652.333	3031
652.390	1442
652.448	2921
652.505	3033
652.562	3361
652.619	2545
652.676	3273
652.733	3816
652.790	3088
652.847	1535
652.904	3230
652.961	1398
653.017	1914
653.074	3141
653.131	2786
653.188	1548
653.245	2661
653.302	1948
653.359	2313
653.415	2417
653.472	2880
653.529	2905
653.586	2308
653.642	1485
653.699	3166
653.756	1867
653.813	2326
653.869	2717
653.926	2645
653.983	1406
654.039	2014
654.096	1845
654.152	3293
654.209	1649
654.266	2588
654.322	1246
654.379	2695
654.435	2595
654.492	1883
654.548	4269
654.605	4500
654.661	3507
654.717	2897
654.774	2869
654.830	2622
654.887	2390
654.943	2792
655.000	3512
655.056	2834
655.112	2602
655.168	1541
655.225	2067
655.281	2972
655.337	2987
655.394	4002
655.450	3912
655.506	3538
655.562	3782
655.618	4423
655.675	764
655.731	2100
655.787	1557
655.843	3242
655.899	1699
655.955	2423
656.011	2084
656.067	1318
656.123	2062
656.179	2436
656.235	3047
656.291	809
656.347	2713
656.403	1558
656.459	1514
656.515	2505
656.571	2295
656.627	2544
656.683	1831
656.739	2350
656.795	2549
656.850	2198
656.906	3007
656.962	3147
657.018	1919
657.074	2631
657.129	4636
657.185	6527
657.241	13347
657.297	7062
657.352	2440
657.408	2087
657.464	3144
657.519	2264
657.575	598
657.630	2218
657.686	1660
657.742	1225
657.797	1916
657.853	929
657.908	2183
657.964	1444
658.019	1890
658.075	1952
658.130	1386
658.186	637
658.241	1976
658.297	629
658.352	1336
658.407	2293
658.463	1591
658.518	1347
658.573	2188
658.629	1069
658.684	1549
658.739	2663
658.795	1122
658.850	1601
658.905	967
658.960	1606
659.016	1061
659.071	1850
659.126	2015
659.181	955
659.236	4664
659.291	4372
659.346	2179
659.401	2820
659.457	1553
659.512	1378
659.567	2618
659.622	590
659.677	1007
659.732	866
659.787	2234
659.842	1941
659.897	2661
659.952	1342
660.007	1238
660.061	2291
660.116	1337
660.171	531
660.226	1431
660.281	2970
660.336	1670
660.391	1981
660.445	783
660.500	1698
660.555	1603
660.610	1233
660.664	2146
660.719	1490
660.774	2491
660.828	1594
660.883	1200
660.938	1531
660.992	251
661.047	1425
661.101	1230
661.156	945
661.211	510
661.265	1237
661.320	956
661.374	1844
661.429	915
661.483	2174
661.538	700
661.592	983
661.647	1782
661.701	3685
661.755	2063
661.810	2277
661.864	263
661.919	704
661.973	1455
662.027	543
662.081	1341
662.136	1375
662.190	2130
662.244	1860
662.299	1198
662.353	2571
662.407	1346
662.461	1088
662.515	2060
662.569	1285
662.624	317
662.678	1313
662.732	399
662.786	2355
662.840	1371
662.894	786
662.948	1125
663.002	1960
663.056	1687
663.110	572
663.164	693
663.218	1013
663.272	1262
663.326	1615
663.380	1088
663.434	1438
663.488	1096
663.542	1900
663.595	1587
663.649	1427
663.703	1432
663.757	916
663.811	1434
663.864	1266
663.918	1491
663.972	961
664.026	1715
664.079	1608
664.133	1137
664.187	490
664.240	1126
664.294	1316
664.348	1728
664.401	1445
664.455	1693
664.508	837
664.562	714
664.615	1401
664.669	1078
664.722	1577
664.776	1288
664.829	1308
664.883	1205
664.936	1106
664.990	1714
665.043	1807
665.097	314
665.150	2478
665.203	984
665.257	922
665.310	1209
665.363	1440
665.417	1991
665.470	1818
665.523	1585
665.576	1278
665.630	1508
665.683	1526
665.736	820
665.789	1371
665.842	1236
665.895	2060
665.949	818
666.002	429
666.055	1865
666.108	2185
666.161	1841
666.214	1527
666.267	1959
666.320	2695
666.373	2346
666.426	993
666.479	1850
666.532	2087
666.585	2480
666.638	1992
666.691	1940
666.744	2364
666.796	1791
666.849	1768
666.902	1795
666.955	1262
667.008	1239
667.060	1211
667.113	1682
667.166	1760
667.219	1728
667.271	858
667.324	1647
667.377	927
667.430	985
667.482	1493
667.535	1870
667.587	2427
667.640	1324
667.693	1944
667.745	3422
667.798	3677
667.850	1828
667.903	1873
667.955	1824
668.008	1353
668.060	1134
668.113	1496
668.165	826
668.218	2271
668.270	743
668.322	1514
668.375	486
668.427	1789
668.479	946
668.532	1422
668.584	1292
668.636	1415
668.689	1812
668.741	839
668.793	1326
668.845	1377
668.898	1602
668.950	1438
669.002	953
669.054	1052
669.106	1192
669.158	1600
669.211	1978
669.263	1673
669.315	2192
669.367	1712
669.419	1512
669.471	2525
669.523	2054
669.575	2151
669.627	1433
669.679	1815
669.731	1510
669.783	2450
669.835	1507
669.886	1938
669.938	1136
669.990	1858
670.042	1392
670.094	1711
670.146	1453
670.197	1809
670.249	2395
670.301	2064
670.353	3173
670.404	4688
670.456	5393
670.508	8845
670.560	15656
670.611	26684
670.663	47609
670.715	123122
670.766	185235
670.818	46112
670.869	7638
670.921	4822
670.972	4201
671.024	2847
671.075	2957
671.127	2548
671.178	1177
671.230	1814
671.281	1006
671.333	2368
671.384	2321
671.436	4006
671.487	5153
671.538	7556
671.590	10952
671.641	20041
671.692	38463
671.744	71280
671.795	37117
671.846	10513
671.897	5044
671.949	3444
672.000	2091
672.051	2348
672.102	1868
672.153	1438
672.204	1572
672.256	1422
672.307	887
672.358	1524
672.409	1239
672.460	1992
672.511	1040
672.562	537
672.613	1584
672.664	1190
672.715	983
672.766	1211
672.817	-142
672.868	1211
672.919	1069
672.970	857
673.021	1085
673.071	330
673.122	547
673.173	1001
673.224	295
673.275	896
673.326	755
673.376	1419
673.427	616
673.478	961
673.528	654
673.579	488
673.630	-227
673.680	1487
673.731	121
673.782	481
673.832	323
673.883	1458
673.934	411
673.984	921
674.035	255
674.085	978
674.136	1315
674.186	316
674.237	1657
674.287	2245
674.338	1448
674.388	1132
674.438	319
674.489	1129
674.539	847
674.589	1693
674.640	1130
674.690	1621
674.740	1045
674.791	254
674.841	1070
674.891	473
674.942	1387
674.992	810
675.042	443
675.092	383
675.142	718
675.193	794
675.243	341
675.293	872
675.343	270
675.393	319
675.443	997
675.493	864
675.543	261
675.593	920
675.643	610
675.693	1281
675.743	1086
675.793	-453
675.843	253
675.893	541
675.943	612
675.993	313
676.043	620
676.093	509
676.142	245
676.192	575
676.242	311
676.292	26
676.341	-375
676.391	639
676.441	281
676.491	681
676.540	-960
676.590	65
676.640	685
676.689	470
676.739	-141
676.789	989
676.838	-261
676.888	728
676.937	153
676.987	-242
677.037	572
677.086	207
677.136	-36
677.185	158
677.235	-303
677.284	-90
677.333	-471
677.383	498
677.432	-1023
677.482	757
677.531	592
677.580	-137
677.630	-950
677.679	705
677.728	387
677.778	963
677.827	-81
677.876	-45
677.925	-298
677.975	18
678.024	-333
678.073	518
678.122	371
678.171	325
678.220	447
678.269	1261
678.319	1009
678.368	719
678.417	-188
678.466	306
678.515	396
678.564	-293
678.613	149
678.662	-133
678.711	412
678.760	14
678.809	453
678.857	248
678.906	-149
678.955	459
679.004	630
679.053	118
679.102	-515
679.151	295
679.199	88
679.248	689
679.297	-46
679.346	-45
679.394	-1033
679.443	-429
679.492	36
679.540	-58
679.589	-282
679.638	172
679.686	180
679.735	28
679.784	-176
679.832	570
679.881	-561
679.929	605
679.978	350
680.026	-435
680.075	115
680.123	-394
680.172	-731
680.220	-152
680.268	-261
680.317	-861
680.365	-34
680.414	-258
680.462	-191
680.510	536
680.559	-464
680.607	-682
680.655	-568
680.703	-295
680.752	-493
680.800	-571
680.848	109
680.896	-125
680.945	760
680.993	-720
681.041	143
681.089	55
681.137	515
681.185	235
681.233	-991
681.258	-582
681.281	-214
681.329	-318
681.377	392
681.380	385
681.425	-79
681.473	451
681.502	381
681.521	296
681.569	454
681.617	497
681.624	409
681.665	-311
681.713	89
681.745	298
681.761	373
681.809	-43
681.857	606
681.867	494
681.904	22
681.952	742
681.989	424
682.000	302
682.048	-111
682.096	-215
682.111	8
682.143	407
682.191	-296
682.233	809
682.239	959
682.286	1082
682.334	788
682.354	834
682.382	843
682.430	750
682.476	-155
682.477	-190
682.525	327
682.572	66
682.598	366
682.620	599
682.667	680
682.715	1883
682.720	1869
682.763	1545
682.810	637
682.841	1015
682.857	1173
682.905	551
682.952	1332
682.963	1432
683.000	1679
683.047	469
683.085	1817
683.095	2188
683.142	744
683.190	1396
683.206	1480
683.237	1581
683.284	1582
683.328	1505
683.332	1477
683.379	1458
683.426	1046
683.449	1200
683.473	1390
683.521	1647
683.568	2041
683.571	1994
683.615	1082
683.662	2210
683.693	1634
683.709	1323
683.757	1832
683.804	2105
683.814	2301
683.851	2937
683.898	1951
683.936	1697
683.945	1616
683.992	1880
684.039	3031
684.057	2613
684.086	1961
684.133	2709
684.179	2905
684.180	2892
684.227	2642
684.274	2884
684.300	2883
684.321	2879
684.368	2163
684.415	3292
684.422	3159
684.462	2169
684.509	1995
684.543	2108
684.556	2186
684.603	2360
684.649	2562
684.665	2672
684.696	2886
684.743	2636
684.786	2270
684.790	2221
684.837	2334
684.883	3097
684.908	2932
684.930	2780
684.977	3443
685.023	3324
685.029	3257
685.070	2626
685.117	2789
685.150	2919
685.164	3012
685.210	3153
685.257	3572
685.272	3407
685.303	3000
685.350	2999
685.393	3094
685.396	3108
685.443	4206
685.490	4442
685.514	4631
685.536	4483
685.583	3907
685.629	3023
685.636	3089
685.675	3728
685.722	3612
685.757	3458
685.768	3407
685.815	3546
685.861	3625
685.878	3904
685.908	4353
685.954	3638
686.000	4109
686.000	4116
686.047	3976
686.093	5373
686.121	5213
686.139	4822
686.185	4782
686.232	4371
686.242	4269
686.278	4021
686.324	3754
686.363	3641
686.370	3656
686.416	3778
686.463	4298
686.484	4177
686.509	4055
686.555	3945
686.601	4073
686.606	4116
686.647	4315
686.693	3910
686.727	3792
686.739	3786
686.785	3885
686.831	3804
686.848	3766
686.877	3695
686.923	3784
686.969	4019
686.969	4020
687.015	4537
687.061	4367
687.090	5015
687.107	5268
687.153	4828
687.199	4241
687.211	4164
687.245	4185
687.291	4618
687.332	5042
687.336	5084
687.382	5119
687.428	5279
687.453	5498
687.474	5510
687.520	5136
687.565	4969
687.574	4761
687.611	4457
687.657	4982
687.695	5488
687.702	5711
687.748	7791
687.794	9108
687.816	9424
687.839	8416
687.885	7404
687.931	5722
687.937	5492
687.976	5154
688.022	5188
688.058	5358
688.067	5430
688.113	5366
688.158	4732
688.179	4715
688.204	4731
688.249	4866
688.295	5206
688.300	5139
688.340	4798
688.386	5461
688.421	5144
688.431	5068
688.477	5401
688.522	4823
688.542	5256
688.567	5775
688.613	5158
688.658	5707
688.663	5688
688.703	5402
688.749	5368
688.784	5061
688.794	5018
688.839	5323
688.884	5599
688.905	5467
688.930	5275
688.975	5017
689.020	5118
689.026	5143
689.065	5557
689.110	5285
689.146	5547
689.155	5637
689.201	6511
689.246	6514
689.267	6676
689.291	6534
689.336	6232
689.381	5633
689.388	5552
689.426	5608
689.471	5647
689.509	5705
689.516	5690
689.561	5754
689.606	5757
689.630	5766
689.651	5898
689.696	5719
689.741	5645
689.750	5824
689.785	6324
689.830	6001
689.871	5354
689.875	5311
689.920	5655
689.965	6099
689.992	5999
690.010	5921
690.054	5720
690.099	6036
690.112	5975
690.144	5892
690.189	5725
690.233	5693
690.233	5703
690.278	5872
690.323	5828
690.354	5984
690.367	6118
690.412	5833
690.457	6445
690.474	6390
690.501	6172
690.546	6205
690.590	6294
690.595	6304
690.635	6554
690.680	6128
690.716	6052
690.724	6087
690.769	6300
690.813	6715
690.836	6653
690.857	6811
690.902	7345
690.946	8179
690.957	8291
690.991	9326
691.035	10603
691.077	12388
691.080	12435
691.124	11964
691.168	12130
691.198	11842
691.213	11270
691.257	10461
691.301	8837
691.318	8383
691.346	8315
691.390	7200
691.434	7172
691.439	7074
691.478	7007
691.522	7818
691.559	7735
691.567	7716
691.611	8240
691.655	7942
691.680	8152
691.699	8187
691.743	7582
691.787	7606
691.800	7457
691.831	7267
691.875	7102
691.919	7169
691.921	7151
691.964	7255
692.008	7418
692.041	7166
692.052	7124
692.096	7479
692.139	7861
692.162	7665
692.183	7272
692.227	7493
692.271	6875
692.282	6751
692.315	6786
692.359	6845
692.402	7181
692.403	7202
692.447	7345
692.490	8041
692.523	8102
692.534	7992
692.578	8143
692.622	7601
692.643	7523
692.666	7493
692.709	7228
692.753	7067
692.763	7052
692.797	7345
692.840	7357
692.884	7727
692.884	7749
692.928	7827
692.971	8054
693.004	8298
693.015	8272
693.059	8180
693.102	7831
693.124	7699
693.146	7781
693.189	8017
693.233	7720
693.245	7737
693.276	8018
693.320	8646
693.363	8967
693.365	8945
693.407	8546
693.450	8519
693.485	8457
693.493	8631
693.537	9567
693.580	10140
693.605	10656
693.624	11088
693.667	11694
693.710	12555
693.725	12818
693.753	14944
693.797	18156
693.840	21446
693.845	21790
693.883	21043
693.926	20152
693.966	19263
693.970	19033
694.013	16243
694.056	13442
694.086	11419
694.099	11217
694.142	10774
694.185	10160
694.206	9809
694.229	9850
694.272	9904
694.315	10170
694.326	10055
694.358	10181
694.401	10900
694.444	11477
694.446	11478
694.487	11181
694.530	10724
694.566	10596
694.573	10540
694.616	9423
694.659	8802
694.686	8215
694.702	8164
694.745	8287
694.787	8077
694.806	8077
694.830	8213
694.873	8104
694.916	8122
694.926	8067
694.959	8084
695.002	8432
695.044	8513
695.046	8500
695.087	8755
695.130	8895
695.166	9102
695.172	9126
695.215	8687
695.258	8834
695.286	8606
695.301	8612
695.343	8845
695.386	8914
695.406	8950
695.428	8985
695.471	8990
695.514	9183
695.526	9116
695.556	9112
695.599	9489
695.641	9473
695.646	9452
695.684	9452
695.726	9506
695.766	9615
695.769	9619
695.811	9086
695.854	8747
695.886	8477
695.896	8544
695.938	8478
695.981	8732
696.005	8664
696.023	8763
696.065	9228
696.108	9604
696.125	9698
696.150	9612
696.192	9509
696.235	9269
696.245	9241
696.277	9667
696.319	10115
696.361	10469
696.365	10473
696.404	10400
696.446	10258
696.485	10133
696.488	10173
696.530	10338
696.572	10464
696.604	10562
696.614	10530
696.656	10310
696.698	10150
696.724	9835
696.740	9762
696.783	9784
696.825	9710
696.844	9655
696.867	9846
696.909	9965
696.951	10313
696.964	10418
696.992	10516
697.034	10377
697.076	10280
697.083	10263
697.118	10516
697.160	10568
697.202	10700
697.203	10674
697.244	10662
697.286	10652
697.323	10516
697.327	10537
697.369	10469
697.411	10482
697.442	10401
697.453	10467
697.494	10626
697.536	10845
697.562	10863
697.578	11071
697.620	11644
697.661	12212
697.682	12428
697.703	12690
697.744	13259
697.786	13840
697.801	13955
697.828	13990
697.869	14080
697.911	14097
697.921	14065
697.952	13301
697.994	12272
698.035	11269
698.040	11109
698.077	11189
698.118	11280
698.160	11338
698.160	11305
698.201	11440
698.243	11444
698.279	11510
698.284	11548
698.325	11537
698.367	11552
698.399	11504
698.408	11565
698.449	11688
698.491	11855
698.518	11914
698.532	11974
698.573	12059
698.614	12160
698.638	12159
698.656	12155
698.697	12093
698.738	12020
698.757	11959
698.779	12051
698.820	12132
698.862	12232
698.877	12234
698.903	12477
698.944	12804
698.985	13131
698.996	13185
699.026	12863
699.067	12373
699.116	11754
699.235	11510
699.354	11805
699.474	12320
699.593	13107
699.713	12636
699.832	12277
699.951	14259
700.070	12660
700.190	10975
700.309	12692
700.428	12810
700.547	11374
700.667	12091
700.786	12687
700.905	11173
701.024	11476
701.143	10159
701.262	11233
701.381	11291
701.500	11734
701.619	13847
701.738	11199
701.857	11408
701.976	9751
702.095	11236
702.214	12013
702.333	13603
702.452	12813
702.571	11166
702.690	10756
702.809	10706
702.928	9911
703.047	11070
703.165	10953
703.284	10061
703.403	10727
703.522	10701
703.640	11259
703.759	13430
703.878	16490
703.997	10851
704.115	10591
704.234	9656
704.353	10496
704.471	10362
704.590	9412
704.708	10015
704.827	9697
704.946	9664
705.064	9495
705.183	8365
705.301	10075
705.420	10945
705.538	10873
705.656	9676
705.775	10659
705.893	16494
706.012	18781
706.130	10722
706.249	10160
706.367	10809
706.485	10535
706.604	11344
706.722	11699
706.840	15838
706.958	23825
707.077	14571
707.195	9350
707.313	9727
707.431	9367
707.549	9092
707.668	9096
707.786	9790
707.904	8969
708.022	8372
708.140	9226
708.258	8869
708.376	9768
708.494	9667
708.612	10189
708.730	13197
708.848	12496
708.966	11514
709.084	12491
709.202	10182
709.320	10128
709.438	10887
709.556	9967
709.674	9392
709.791	9442
709.909	9440
710.027	9574
710.145	8884
710.263	9527
710.380	9701
710.498	9057
710.616	9002
710.733	9818
710.851	9374
710.969	9776
711.086	9089
711.204	9818
711.322	9137
711.439	10189
711.557	10099
711.674	9792
711.792	9908
711.909	10008
712.027	10186
712.144	9403
712.262	9136
712.379	9479
712.497	11631
712.614	11460
712.732	10174
712.849	9885
712.966	12271
713.084	15139
713.201	11933
713.318	10615
713.436	10927
713.553	11622
713.670	11995
713.787	13700
713.905	13333
714.022	10892
714.139	13425
714.256	18451
714.373	28475
714.490	52441
714.608	159914
714.725	700139
714.842	658220
714.959	47395
715.076	20102
715.193	14666
715.310	13799
715.427	11398
715.544	11145
715.661	10583
715.778	9918
715.895	11196
716.011	11564
716.128	10225
716.245	10674
716.362	14353
716.479	14213
716.596	9833
716.713	9395
716.829	8858
716.946	8553
717.063	8768
717.180	6879
717.296	7568
717.413	8661
717.530	8825
717.646	8863
717.763	8432
717.880	7926
717.996	7964
718.113	7965
718.229	8134
718.346	7694
718.462	9257
718.579	13327
718.695	26559
718.812	14950
718.928	11815
719.045	9066
719.161	7899
719.277	8320
719.394	7609
719.510	8182
719.626	10461
719.743	13743
719.859	21941
719.975	47585
720.092	213958
720.208	484847
720.324	46287
720.440	13239
720.557	12543
720.673	21009
720.789	20712
720.905	35820
721.021	11532
721.137	7459
721.253	8163
721.369	8305
721.486	8836
721.602	11383
721.718	6615
721.834	7075
721.950	7415
722.066	6569
722.181	6429
722.297	7954
722.413	7139
722.529	6626
722.645	7053
722.761	6208
722.877	7046
722.993	7061
723.108	10188
723.224	8296
723.340	6529
723.456	6365
723.571	6187
723.687	5467
723.803	6055
723.918	6369
724.034	5919
724.150	5500
724.265	7248
724.381	14139
724.497	16804
724.612	5762
724.728	5642
724.843	5501
724.959	7254
725.074	13483
725.190	14007
725.305	6769
725.421	6012
725.536	5278
725.651	4864
725.767	5270
725.882	5490
725.997	5859
726.113	6877
726.228	5110
726.343	5018
726.459	5080
726.574	5342
726.689	5661
726.804	5655
726.920	5352
727.035	5252
727.150	5518
727.265	5117
727.380	6435
727.495	5726
727.610	4229
727.725	4836
727.841	6287
727.956	9393
728.071	8479
728.186	5229
728.301	4616
728.416	5716
728.531	4443
728.645	4909
728.760	5330
728.875	6993
728.990	5713
729.105	5378
729.220	6123
729.335	5825
729.449	4422
729.564	4853
729.679	4303
729.794	5113
729.908	5701
730.023	5790
730.138	4544
730.253	4963
730.367	4659
730.482	4342
730.596	4869
730.711	6536
730.826	8261
730.940	9235
731.055	6366
731.169	5943
731.284	4600
731.398	5772
731.513	6806
731.627	6810
731.742	8476
731.856	8048
731.970	9788
732.085	11696
732.199	18286
732.313	34197
732.428	97186
732.542	297787
732.656	156683
732.771	25776
732.885	12903
732.999	9568
733.113	9056
733.227	7935
733.342	8147
733.456	7422
733.570	6226
733.684	6834
733.798	6863
733.912	6024
734.026	6033
734.140	6264
734.254	5908
734.368	9310
734.482	11218
734.596	4930
734.710	5690
734.824	5913
734.938	5460
735.052	6505
735.166	6648
735.280	5992
735.393	5818
735.507	5767
735.621	6442
735.735	10516
735.849	5831
735.962	5442
736.076	5897
736.190	5889
736.303	7735
736.417	8252
736.531	5273
736.644	5785
736.758	5246
736.872	4143
736.985	4654
737.099	3800
737.212	4356
737.326	5707
737.439	4716
737.553	5569
737.666	5391
737.780	4258
737.893	4791
738.007	4303
738.120	4630
738.233	4608
738.347	4444
738.460	4894
738.573	6061
738.687	5326
738.800	5659
738.913	8133
739.026	5976
739.140	4296
739.253	4984
739.366	4926
739.479	4017
739.592	4612
739.705	5115
739.818	4493
739.932	4124
740.045	4693
740.158	4280
740.271	5282
740.384	4622
740.497	4806
740.610	5810
740.723	4905
740.836	4489
740.949	5400
741.062	7985
741.174	6498
741.287	4789
741.400	4942
741.513	5088
741.626	5945
741.739	4849
741.851	4558
741.964	3993
742.077	4370
742.189	4471
742.302	5674
742.415	5476
742.527	4744
742.640	4003
742.753	4536
742.865	4279
742.978	3570
743.090	4094
743.203	3615
743.316	4243
743.428	3298
743.541	3768
743.653	4377
743.766	3777
743.878	3843
743.990	5758
744.103	5532
744.215	4721
744.327	4180
744.440	6272
744.552	11031
744.664	5235
744.777	3701
744.889	2960
745.001	3405
745.113	2795
745.226	2812
745.338	3239
745.450	2991
745.562	3230
745.674	3114
745.786	3375
745.898	3616
746.010	2793
746.122	3018
746.234	3329
746.347	4047
746.459	3001
746.570	3281
746.682	3462
746.794	4036
746.906	2914
747.018	3418
747.130	3483
747.242	3491
747.354	3087
747.466	3322
747.577	2692
747.689	3200
747.801	3930
747.913	3138
748.024	3312
748.136	3139
748.248	3268
748.359	3558
748.471	2741
748.583	2985
748.694	4123
748.806	3838
748.918	3573
749.029	3576
749.141	3721
749.252	3945
749.364	4905
749.475	12110
749.587	6617
749.698	2647
749.809	3387
749.921	3307
750.032	2625
750.144	2707
750.255	2364
750.366	2602
750.478	2968
750.589	3417
750.700	2820
750.811	3388
750.923	5414
751.034	13461
751.145	12701
751.256	3989
751.367	2592
751.479	2343
751.590	2205
751.701	2522
751.812	1791
751.923	2717
752.034	3260
752.145	2362
752.256	2911
752.367	2340
752.478	2856
752.589	2988
752.700	2657
752.811	2813
752.922	2629
753.032	3489
753.143	3924
753.254	2566
753.365	3235
753.476	3049
753.586	3101
753.697	2637
753.808	3033
753.919	2866
754.029	2414
754.140	2680
754.251	2992
754.361	2398
754.472	2766
754.582	2971
754.693	2790
754.804	3926
754.914	1796
755.025	2141
755.135	2771
755.246	2105
755.356	1651
755.466	2624
755.577	2707
755.687	2839
755.798	2516
755.908	2655
756.018	2427
756.129	1902
756.239	3126
756.349	3037
756.460	1961
756.570	3825
756.680	3282
756.790	3214
756.900	3656
757.011	2683
757.121	2274
757.231	2018
757.341	2639
757.451	2133
757.561	1113
757.671	1421
757.781	1922
757.891	3431
758.001	2730
758.111	2552
758.221	3528
758.331	3360
758.441	4178
758.551	5716
758.661	4551
758.771	3688
758.880	3125
758.990	2921
759.100	1897
759.210	3473
759.320	3307
759.429	3233
759.539	3942
759.649	3484
759.758	5190
759.868	4699
759.978	3909
760.087	5286
760.197	4871
760.307	5476
760.416	4461
760.526	4264
760.635	5003
760.745	4882
760.854	5566
760.964	6234
761.073	6359
761.182	6124
761.292	4743
761.401	4166
761.511	3363
761.620	3184
761.729	3222
761.839	2806
761.948	3031
762.057	3975
762.166	4005
762.276	1729
762.385	3821
762.494	3102
762.603	3542
762.712	3269
762.822	3175
762.931	3131
763.040	1973
763.149	2787
763.258	2800
763.367	2145
763.476	2647
763.585	2972
763.694	3517
763.803	3191
763.912	3567
764.021	3397
764.130	3238
764.238	2705
764.347	3607
764.456	3287
764.565	4261
764.674	3506
764.783	4460
764.891	3651
765.000	4931
765.109	5132
765.217	5107
765.326	7367
765.435	8428
765.543	8232
765.652	9647
765.761	12338
765.869	17768
765.978	28382
766.086	48258
766.195	94402
766.303	236455
766.412	539430
766.520	416581
766.629	143372
766.737	56138
766.846	31029
766.954	20684
767.062	15897
767.171	13257
767.279	11040
767.387	8025
767.496	6902
767.604	6466
767.712	6314
767.820	4988
767.928	5351
768.037	4212
768.145	5144
768.253	5692
768.361	4771
768.469	4436
768.577	4094
768.685	5233
768.793	4932
768.901	5213
769.009	6329
769.117	6308
769.225	7786
769.333	11766
769.441	19241
769.549	35734
769.657	83572
769.765	258688
769.873	426991
769.981	163508
770.088	41857
770.196	20586
770.304	13757
770.412	10842
770.519	8710
770.627	6383
770.735	5265
770.842	5874
770.950	5764
771.058	4594
771.165	5056
771.273	3669
771.380	4888
771.488	3786
771.595	4707
771.703	4509
771.810	4061
771.918	4736
772.025	4556
772.133	4305
772.240	4369
772.348	4670
772.455	4559
772.562	3867
772.670	3175
772.777	4443
772.884	4136
772.991	4124
773.099	4173
773.206	2658
773.313	3373
773.420	3865
773.528	3278
773.635	3003
773.742	3542
773.849	3724
773.956	2780
774.063	3647
774.170	2685
774.277	3315
774.384	2807
774.491	3776
774.598	3629
774.705	3502
774.812	5112
774.919	3620
775.026	3173
775.133	3474
775.239	3111
775.346	3541
775.453	3548
775.560	2778
775.667	2251
775.773	2346
775.880	2956
775.987	1762
776.093	3731
776.200	3068
776.307	1549
776.413	2665
776.520	3061
776.627	3251
776.733	2602
776.840	1881
776.946	4082
777.053	2509
777.159	3760
777.266	2383
777.372	4697
777.478	2498
777.585	3353
777.691	2578
777.798	2842
777.904	3493
778.010	5404
778.117	4816
778.223	3000
778.329	1809
778.435	1269
778.542	3274
778.648	2555
778.754	2618
778.860	2365
778.966	2932
779.072	1975
779.178	2592
779.284	2287
779.391	2221
779.497	2029
779.603	3225
779.708	624
779.815	3912
779.920	6084
780.026	8403
780.132	3016
780.238	1904
780.344	2182
780.450	2936
780.556	1509
780.661	1725
780.767	2335
780.873	2182
780.979	2858
781.085	1751
781.190	2969
781.296	2441
781.402	1871
781.507	1321
781.613	1103
781.719	1506
781.824	1931
781.930	2504
782.035	2229
782.141	1553
782.246	1479
782.352	2189
782.457	1894
782.563	1462
782.668	645
782.773	2146
782.879	1121
782.984	1871
783.090	2639
783.195	5937
783.300	3201
783.405	2196
783.511	1559
783.616	1727
783.721	1688
783.826	1674
783.932	2172
784.037	1653
784.142	2402
784.247	1453
784.352	2035
784.457	1594
784.562	2035
784.667	1960
784.772	1239
784.877	1329
784.982	1842
785.087	1866
785.192	2551
785.297	1300
785.402	1649
785.507	1920
785.611	1538
785.716	1861
785.821	1780
785.926	734
786.031	1364
786.135	1717
786.240	2081
786.345	1311
786.450	1978
786.554	1511
786.659	1512
786.763	286
786.868	2176
786.973	2649
787.077	1601
787.182	1260
787.286	2552
787.391	1661
787.495	238
787.600	816
787.704	503
787.809	1603
787.913	740
788.017	1560
788.122	2438
788.226	1560
788.330	307
788.435	1165
788.539	1883
788.643	-51
788.747	747
788.852	1340
788.956	355
789.060	2126
789.164	1481
789.268	899
789.372	1955
789.476	976
789.580	1763
789.684	1032
789.788	1616
789.892	558
789.996	1836
790.100	841
790.204	1074
790.308	1299
790.412	565
790.516	1804
790.620	1615
790.724	927
790.828	431
790.931	132
791.035	2470
791.139	1513
791.242	1024
791.346	1339
791.450	1153
791.554	926
791.657	763
791.761	2235
791.864	1686
791.968	1659
792.072	1624
792.175	803
792.279	1050
792.382	1981
792.486	766
792.589	1319
792.693	1670
792.796	-562
792.899	2822
793.003	2282
793.106	405
793.209	1373
793.313	2519
793.416	-308
793.519	2130
793.623	3759
793.726	5564
793.829	1342
793.932	1400
794.035	-22
794.138	2184
794.242	1876
794.345	1063
794.448	2519
794.551	4947
794.654	4863
794.757	4721
794.860	1347
794.963	973
795.066	404
795.169	1637
795.272	332
795.375	1963
795.477	801
795.580	1099
795.683	189
795.786	581
795.889	-292
795.991	1148
796.094	1754
796.197	509
796.300	1440
796.402	632
796.505	360
796.608	727
796.710	919
796.813	1083
796.915	884
797.018	602
797.120	1726
797.223	-74
797.326	1705
797.428	160
797.530	643
797.633	317
797.735	2178
797.838	2393
797.940	2620
798.042	764
798.145	351
798.247	1931
798.349	-317
798.452	1661
798.554	924
798.656	288
798.758	2153
798.860	985
798.962	385
799.065	261
799.167	75
799.269	1995
799.371	2591
799.473	3042
799.575	2041
799.677	1208
799.779	3397
799.881	3390
799.983	2490
800.085	1296
800.187	1787
800.289	78
800.390	810
800.492	1487
800.594	1381
800.696	364
800.798	1017
800.899	707
801.001	1280
801.103	507
801.205	1265
801.306	1246
801.408	654
801.509	878
801.611	1384
801.713	1213
801.814	730
801.916	425
802.017	255
802.119	203
802.220	1140
802.322	-629
802.423	3167
802.525	514
802.626	858
802.727	1116
802.829	1133
802.930	-1196
803.031	1920
803.133	840
803.234	-154
803.335	1692
803.436	-396
803.538	822
803.639	-745
803.740	533
803.841	-486
803.942	1209
804.043	840
804.144	669
804.245	306
804.346	539
804.447	1043
804.548	2156
804.649	3544
804.750	670
804.851	231
804.952	-5
805.053	593
805.154	-384
805.255	980
805.355	883
805.456	-324
805.557	1258
805.658	-420
805.758	1322
805.859	589
805.960	471
806.061	-68
806.161	280
806.262	415
806.362	-401
806.463	945
806.564	177
806.664	356
806.765	1346
806.865	763
806.966	611
807.066	-639
807.166	163
807.267	741
807.367	99
807.468	681
807.568	-1110
807.668	1224
807.769	484
807.869	149
807.969	662
808.069	1431
808.170	641
808.270	384
808.370	557
808.470	1796
808.570	1125
808.670	257
808.770	86
808.870	-73
808.970	665
809.070	-594
809.170	-185
809.271	857
809.370	618
809.470	472
809.570	-336
809.670	124
809.770	369
809.870	277
809.970	-277
810.070	-185
810.169	530
810.269	-875
810.369	492
810.469	576
810.568	310
810.668	105
810.768	585
810.867	1026
810.967	-550
811.066	-20
811.166	-318
811.265	698
811.365	-704
811.464	406
811.564	432
811.663	147
811.763	-647
811.862	410
811.962	1319
812.061	273
812.160	-541
812.260	1270
812.359	39
812.458	48
812.557	1169
812.657	1660
812.756	985
812.855	507
812.954	63
813.053	668
813.153	239
813.252	-415
813.351	82
813.450	-346
813.549	-1064
813.648	-438
813.747	374
813.846	503
813.945	403
814.044	-60
814.143	-210
814.242	-18
814.341	-337
814.439	165
814.538	576
814.637	287
814.736	19
814.835	1109
814.933	-483
815.032	590
815.131	365
815.229	1159
815.328	1738
815.427	1094
815.525	1176
815.624	1609
815.722	963
815.821	1454
815.919	1182
816.018	1421
816.116	1807
816.215	1386
816.313	1385
816.412	1579
816.510	1909
816.609	3269
816.707	1604
816.805	1744
816.904	1812
817.002	2329
817.100	2290
817.198	3645
817.296	2732
817.395	2548
817.493	3068
817.591	2551
817.689	2585
817.787	3173
817.885	4283
817.983	7748
818.081	15405
818.179	36456
818.277	95967
818.375	85410
818.473	22476
818.571	8880
818.669	6205
818.767	5844
818.865	5321
818.963	6075
819.061	8603
819.158	14943
819.256	33116
819.354	76189
819.452	184815
819.549	119440
819.647	30599
819.745	11383
819.842	8279
819.940	5113
820.038	3540
820.135	3371
820.233	3536
820.330	1243
820.428	1547
820.525	2151
820.623	1464
820.720	1229
820.818	1375
820.915	1532
821.012	1431
821.110	514
821.207	1829
821.304	1328
821.402	301
821.499	1834
821.596	1636
821.693	1194
821.791	2052
821.888	3046
821.985	6469
822.082	4538
822.179	1919
822.276	1108
822.373	671
822.470	977
822.567	1212
822.664	477
822.761	1379
822.858	70
822.955	718
823.052	1262
823.149	910
823.246	981
823.343	593
823.440	1061
823.536	1221
823.633	377
823.730	996
823.827	1183
823.923	1228
824.020	1412
824.117	243
824.213	898
824.310	845
824.407	427
824.503	1173
824.600	662
824.696	1016
824.793	1996
824.889	750
824.986	412
825.082	65
825.179	1249
825.275	1006
825.371	1195
825.468	1077
825.564	-473
825.660	890
825.757	1432
825.853	1483
825.949	-332
826.045	1013
826.142	816
826.238	688
826.334	1312
826.430	521
826.526	1596
826.622	3
826.718	1129
826.814	173
826.910	929
827.006	552
827.102	450
827.198	917
827.294	-83
827.390	584
827.486	384
827.582	-246
827.678	-541
827.774	1221
827.869	-637
827.965	632
828.061	-268
828.157	597
828.252	109
828.348	-248
828.444	391
828.539	-375
828.635	810
828.731	1263
828.826	234
828.922	1081
829.017	432
829.113	1877
829.208	111
829.304	1114
829.399	1431
829.495	1462
829.590	699
829.685	-657
829.781	715
829.876	-155
829.971	467
830.066	375
830.162	-407
830.257	242
830.352	-591
830.447	1416
830.543	670
830.638	-958
830.733	2286
830.828	692
830.923	1463
831.018	471
831.113	639
831.208	69
831.303	-580
831.398	394
831.493	-192
831.588	1443
831.683	61
831.778	872
831.873	1277
831.967	534
832.062	-152
832.157	-144
832.252	1118
832.346	489
832.441	1550
832.536	1475
832.631	5524
832.725	4679
832.820	-678
832.914	164
833.009	-109
833.104	1145
833.198	2479
833.293	494
833.387	743
833.482	985
833.576	-103
833.670	1413
833.765	959
833.859	1512
833.954	1104
834.048	245
834.142	142
834.237	-335
834.331	308
834.425	-43
834.519	-544
834.613	753
834.708	97
834.802	673
834.896	475
834.990	-188
835.084	566
835.178	-383
835.272	-57
835.366	-567
835.460	562
835.554	-328
835.648	441
835.742	-350
835.836	870
835.930	-425
836.024	325
836.117	974
836.211	234
836.305	477
836.399	1123
836.493	277
836.586	611
836.680	-29
836.774	-840
836.867	1199
836.961	-430
837.055	-405
837.148	-293
837.242	-56
837.335	-365
837.429	-353
837.522	315
837.616	373
837.709	1556
837.803	-50
837.896	1212
837.989	-286
838.083	903
838.176	1274
838.269	1505
838.363	522
838.456	103
838.549	2039
838.642	2696
838.735	7202
838.829	2731
838.922	-718
839.015	-77
839.108	-513
839.201	362
839.294	322
839.387	-74
839.480	-118
839.573	411
839.666	728
839.759	-555
839.852	-947
839.945	573
840.038	-572
840.131	-149
840.223	38
840.316	313
840.409	-1335
840.502	-1059
840.594	-90
840.687	-664
840.780	-589
840.873	-688
840.965	-214
841.058	353
841.150	1854
841.243	754
841.336	549
841.428	-131
841.521	-922
841.613	-655
841.706	190
841.798	-25
841.890	-322
841.983	-235
842.075	547
842.167	-784
842.260	-281
842.352	569
842.444	540
842.537	1661
842.629	2757
842.721	-439
842.813	-164
842.905	-856
842.997	1030
843.090	12
843.182	332
843.274	1172
843.366	4618
843.458	9721
843.550	5942
843.642	-230
843.734	357
843.826	-251
843.918	1095
844.009	345
844.101	-130
844.193	-752
844.285	278
844.377	-238
844.469	140
844.560	-506
844.652	212
844.744	401
844.835	-437
844.927	-113
845.019	-89
845.110	46
845.202	-616
845.293	198
845.385	-1014
845.476	-75
845.568	-40
845.659	-596
845.751	412
845.842	-1067
845.934	-557
846.025	-1056
846.116	19
846.208	-77
846.299	-709
846.390	332
846.482	-536
846.573	394
846.664	1218
846.755	1061
846.846	1539
846.937	-1753
847.029	-712
847.120	-199
847.211	-611
847.302	1339
847.393	-1104
847.484	309
847.575	-358
847.666	170
847.757	-815
847.847	-233
847.938	1425
848.029	-440
848.120	-264
848.211	-294
848.302	-563
848.392	-701
848.483	-435
848.574	-731
848.664	-626
848.755	439
848.846	77
848.936	-837
849.027	509
849.118	696
849.208	928
849.299	1037
849.389	3611
849.480	11640
849.570	25811
849.661	50994
849.751	89412
849.841	30783
849.932	2919
850.022	891
850.112	753
850.203	471
850.293	223
850.383	557
850.474	-427
850.564	44
850.654	111
850.744	64
850.834	40
850.924	-107
851.014	-172
851.104	-39
851.194	71
851.284	102
851.374	703
851.464	728
851.554	110
851.644	257
851.734	802
851.824	544
851.914	-821
852.004	867
852.094	-808
852.183	-318
852.273	-830
852.363	-28
852.452	468
852.542	9
852.632	-412
852.721	-1
852.811	482
852.901	20
852.990	324
853.080	741
853.169	258
853.259	808
853.348	570
853.438	3395
853.527	5512
853.617	6366
853.706	14238
853.795	26222
853.885	60146
853.974	117729
854.063	212596
854.152	322415
854.242	130271
854.331	27384
854.420	10316
854.509	7451
854.598	5386
854.687	4083
854.777	2619
854.866	2400
854.955	1267
855.044	1327
855.133	1242
855.222	818
855.311	-763
855.400	683
855.488	606
855.577	222
855.666	447
855.755	782
855.844	182
855.933	-61
856.021	460
856.110	61
856.199	-80
856.288	-752
856.376	-1053
856.465	-1366
856.554	-420
856.642	-913
856.731	-414
856.819	-66
856.908	140
856.996	-348
857.085	-1060
857.173	-311
857.262	76
857.350	-507
857.438	-260
857.527	-539
857.615	-338
857.703	-658
857.792	68
857.880	-490
857.968	-154
858.056	-381
858.145	-117
858.233	-302
858.321	-738
858.409	376
858.497	-794
858.585	-996
858.673	344
858.761	-128
858.849	-45
858.937	-1064
859.025	-310
859.113	-591
859.201	-478
859.289	931
859.377	-683
859.465	-671
859.552	-709
859.640	-556
859.728	-311
859.816	-332
859.903	-356
859.991	-413
860.079	-371
860.166	-494
860.254	-1201
860.342	-27
860.429	-728
860.517	-702
860.604	-164
860.692	8
860.779	-863
860.867	-268
860.954	-604
861.042	246
861.129	-346
861.216	-277
861.304	-594
861.391	149
861.478	-1184
861.565	-105
861.653	756
861.740	-727
861.827	-910
861.914	-534
862.001	-815
862.089	344
862.176	-518
862.263	-1048
862.350	136
862.437	89
862.524	-509
862.611	-1000
862.698	-703
862.785	-658
862.871	170
862.958	-261
863.045	-880
863.132	-343
863.219	-230
863.306	-1461
863.392	87
863.479	97
863.566	45
863.652	143
863.739	-975
863.826	-20
863.912	-630
863.999	-392
864.086	-248
864.172	-491
864.259	-282
864.345	-363
864.432	667
864.518	-436
864.604	-198
864.691	-215
864.777	-82
864.863	-80
864.950	526
865.036	139
865.122	1703
865.209	2629
865.295	2650
865.381	2435
865.467	3098
865.553	4652
865.639	7540
865.726	14015
865.812	31027
865.898	61257
865.984	95498
866.070	175375
866.156	191078
866.242	52059
866.328	11432
866.414	5306
866.499	4919
866.585	2904
866.671	2596
866.757	2024
866.843	1793
866.928	869
867.014	1347
867.100	1749
867.186	1617
867.271	1528
867.357	1529
867.442	2174
867.528	1431
867.614	1399
867.699	887
867.785	689
867.870	359
867.956	658
868.041	1503
868.127	851
868.212	1985
868.297	1308
868.383	1002
868.468	1974
868.553	3782
868.639	4117
868.724	8445
868.809	7463
868.894	1703
868.979	896
869.065	1050
869.150	87
869.235	362
869.320	477
869.405	-191
869.490	108
869.575	409
869.660	246
869.745	362
869.830	-75
869.915	-98
870.000	-298
870.085	289
870.169	735
870.254	-255
870.339	-473
870.424	-624
870.509	233
870.593	375
870.678	731
870.763	-152
870.847	593
870.932	-531
871.016	534
871.101	-562
871.186	391
871.270	136
871.355	-798
871.439	48
871.523	297
871.608	-516
871.692	612
871.777	32
871.861	306
871.945	150
872.030	331
872.114	-191
872.198	108
872.282	-339
872.367	-602
872.451	104
872.535	-133
872.619	551
872.703	-536
872.787	342
872.871	-114
872.955	-895
873.039	-1444
873.123	-444
873.207	370
873.291	-547
873.375	-111
873.459	406
873.543	-420
873.627	23
873.711	120
873.794	268
873.878	-245
873.962	-1015
874.045	16
874.129	62
874.137	21
874.213	-385
874.245	34
874.296	712
874.352	91
874.380	-210
874.460	9
874.464	17
874.547	-265
874.568	-239
874.631	-180
874.676	-167
874.714	-161
874.784	765
874.798	953
874.881	1408
874.892	1188
874.965	-315
874.999	-118
875.048	142
875.107	396
875.131	487
875.215	747
875.215	746
875.298	-28
875.323	-132
875.381	-323
875.430	251
875.465	619
875.538	-254
875.548	-376
875.631	-380
875.646	-323
875.714	-14
875.753	-192
875.798	-341
875.861	381
875.881	551
875.964	-98
875.968	-101
876.047	6
876.076	-80
876.130	-233
876.183	110
876.213	310
876.291	1219
876.296	1272
876.379	90
876.398	111
876.462	202
876.506	339
876.545	490
876.613	371
876.628	359
876.711	501
876.721	431
876.794	-84
876.828	164
876.877	363
876.935	163
876.960	170
877.043	179
877.043	180
877.125	333
877.150	488
877.208	954
877.258	650
877.291	283
877.365	66
877.374	77
877.456	316
877.472	252
877.539	-44
877.579	332
877.622	683
877.687	393
877.704	345
877.787	139
877.794	177
877.869	460
877.901	400
877.952	280
878.008	148
878.034	155
878.115	-154
878.117	-163
878.199	246
878.222	227
878.282	409
878.329	628
878.364	689
878.437	867
878.447	863
878.529	97
878.544	-27
878.611	-357
878.651	-258
878.694	-38
878.758	310
878.776	342
878.858	838
878.865	803
878.941	222
878.972	63
879.023	-52
879.078	-195
879.105	-116
879.185	415
879.187	423
879.269	891
879.292	866
879.351	589
879.399	412
879.433	279
879.506	440
879.516	494
879.598	-125
879.613	61
879.680	831
879.720	682
879.762	434
879.827	16
879.844	-41
879.926	570
879.933	591
880.007	938
880.040	1122
880.089	1065
880.147	1553
880.171	2032
880.253	4555
880.254	4572
880.335	6394
880.360	6687
880.417	7999
880.467	12362
880.499	15270
880.574	17874
880.580	17852
880.662	5860
880.680	4751
880.744	1475
880.787	673
880.825	225
880.893	316
880.907	403
880.989	936
881.000	894
881.070	745
881.106	944
881.152	1007
881.213	797
881.233	711
881.315	417
881.319	416
881.396	477
881.426	377
881.478	439
881.532	653
881.559	650
881.639	454
881.641	452
881.722	144
881.745	140
881.803	498
881.852	619
881.885	573
881.958	1123
881.966	1166
882.047	1326
882.064	1137
882.129	533
882.171	717
882.210	1199
882.277	2262
882.291	2400
882.372	1299
882.383	1298
882.454	1024
882.489	743
882.535	489
882.596	450
882.616	522
882.697	909
882.702	926
882.778	953
882.808	846
882.859	592
882.914	443
882.940	357
883.020	-423
883.021	-421
883.102	224
883.127	300
883.183	564
883.233	848
883.264	797
883.339	559
883.345	526
883.426	117
883.445	110
883.507	789
883.551	866
883.587	712
883.657	902
883.668	972
883.749	1066
883.763	1055
883.830	618
883.869	538
883.910	647
883.975	711
883.991	695
884.072	759
884.081	731
884.152	985
884.187	1099
884.233	928
884.292	786
884.314	746
884.394	598
884.398	570
884.475	521
884.504	622
884.555	533
884.610	336
884.636	535
884.716	1217
884.716	1225
884.797	1367
884.821	1247
884.877	1138
884.927	1164
884.958	998
885.033	769
885.038	750
885.118	-61
885.139	-289
885.199	-82
885.244	456
885.279	651
885.350	746
885.359	824
885.439	1166
885.456	1273
885.520	686
885.561	354
885.600	470
885.667	646
885.680	726
885.760	959
885.773	1014
885.840	861
885.878	705
885.920	569
885.984	568
886.000	714
886.080	1163
886.089	1204
886.160	889
886.195	760
886.240	839
886.300	960
886.320	1033
886.400	1289
886.406	1293
886.480	702
886.511	518
886.560	1094
886.616	1539
886.640	1366
886.720	968
886.722	947
886.800	710
886.827	772
886.879	859
886.932	726
886.959	916
887.038	1546
887.039	1546
887.119	956
887.143	836
887.198	980
887.248	990
887.278	1133
887.354	1462
887.358	1442
887.437	945
887.459	831
887.517	889
887.564	799
887.596	650
887.669	328
887.676	392
887.755	1274
887.774	1426
887.835	1301
887.880	1314
887.914	1270
887.985	1040
887.994	1074
888.073	1409
888.090	1431
888.153	1333
888.195	1305
888.232	1297
888.300	1316
888.311	1286
888.391	1119
888.405	1041
888.470	1057
888.510	1055
888.549	1107
888.615	1348
888.628	1394
888.708	1484
888.720	1496
888.787	1089
888.825	820
888.866	971
888.930	1284
888.945	1368
889.024	1751
889.035	1785
889.103	1992
889.140	2117
889.182	1934
889.245	1646
889.261	1531
889.340	949
889.349	876
889.419	826
889.454	802
889.498	689
889.559	522
889.577	603
889.656	966
889.664	1001
889.735	1222
889.768	1327
889.814	1414
889.873	1520
889.978	1126
890.083	1233
890.187	1735
890.292	936
890.397	1573
890.501	2109
890.606	492
890.710	858
890.815	2205
890.919	1147
891.024	1241
891.128	1020
891.233	1162
891.337	1140
891.442	1610
891.546	931
891.650	1482
891.755	1083
891.859	2672
891.963	1939
892.068	1888
892.172	1061
892.276	826
892.380	460
892.484	1828
892.589	1126
892.693	995
892.797	920
892.901	879
893.005	925
893.109	1411
893.213	1129
893.317	1284
893.421	185
893.525	1210
893.629	-19
893.733	775
893.837	1981
893.941	765
894.045	999
894.148	816
894.252	1123
894.356	1534
894.460	1923
894.564	1818
894.667	1268
894.771	168
894.875	682
894.978	364
895.082	498
895.186	1726
895.289	1960
895.393	1234
895.496	1168
895.600	776
895.703	1152
895.807	792
895.910	811
896.014	1241
896.117	1149
896.221	1357
896.324	1372
896.427	844
896.531	712
896.634	770
896.737	1745
896.840	1736
896.944	918
897.047	812
897.150	624
897.253	7
897.356	446
897.460	997
897.563	778
897.666	1205
897.769	1752
897.872	627
897.975	1272
898.078	707
898.181	949
898.284	1184
898.387	719
898.490	1715
898.593	685
898.695	1206
898.798	735
898.901	1727
899.004	1309
899.107	1451
899.209	740
899.312	1094
899.415	30
899.518	356
899.620	1080
899.723	756
899.826	1811
899.928	1490
900.031	1515
900.133	1114
900.236	1335
900.338	706
900.441	834
900.543	1517
900.646	920
900.748	825
900.851	1251
900.953	1090
901.055	1060
901.158	1685
901.260	509
901.362	1345
901.465	1163
901.567	786
901.669	1463
901.771	713
901.873	1102
901.976	647
902.078	1633
902.180	369
902.282	171
902.384	592
902.486	857
902.588	1118
902.690	1162
902.792	1039
902.894	754
902.996	1012
903.098	494
903.200	767
903.302	1253
903.404	1043
903.505	527
903.607	322
903.709	1426
903.811	1296
903.913	890
904.014	855
904.116	582
904.218	485
904.319	698
904.421	1824
904.523	1182
904.624	1038
904.726	1134
904.827	512
904.929	-92
905.030	1083
905.132	1732
905.233	473
905.335	583
905.436	746
905.537	1159
905.639	1558
905.740	946
905.841	1028
905.943	1015
906.044	500
906.145	1370
906.247	234
906.348	568
906.449	1196
906.550	925
906.651	899
906.752	975
906.854	1185
906.955	520
907.056	627
907.157	1818
907.258	920
907.359	808
907.460	1204
907.561	398
907.662	721
907.762	876
907.863	734
907.964	794
908.065	1506
908.166	11
908.267	115
908.367	898
908.468	742
908.569	1320
908.670	1911
908.770	1845
908.871	1706
908.971	1053
909.072	599
909.173	1363
909.273	511
909.374	479
909.474	831
909.575	981
909.675	1583
909.776	1256
909.876	946
909.977	912
910.077	791
910.177	1015
910.278	1189
910.378	959
910.478	878
910.579	1738
910.679	1402
910.779	1235
910.879	1060
910.980	1197
911.080	389
911.180	1286
911.280	417
911.380	709
911.480	487
911.580	896
911.680	689
911.780	706
911.880	275
911.980	425
912.080	1176
912.180	743
912.280	870
912.380	1953
912.480	1622
912.580	1124
912.679	960
912.779	959
912.879	1122
912.979	625
913.078	171
913.178	463
913.278	757
913.377	1442
913.477	795
913.577	1302
913.676	972
913.776	1797
913.875	887
913.975	1299
914.074	450
914.174	1324
914.273	521
914.373	1450
914.472	136
914.572	925
914.671	70
914.770	780
914.870	618
914.969	775
915.068	367
915.167	1087
915.267	77
915.366	691
915.465	1545
915.564	989
915.663	499
915.763	683
915.862	421
915.961	738
916.060	652
916.159	909
916.258	642
916.357	1175
916.456	1505
916.555	1114
916.654	797
916.752	472
916.851	417
916.950	1526
917.049	1546
917.148	455
917.247	534
917.345	1209
917.444	1113
917.543	1088
917.642	1393
917.740	542
917.839	1723
917.937	1190
918.036	2349
918.135	45
918.233	652
918.332	892
918.430	-321
918.529	1541
918.627	1151
918.726	334
918.824	1207
918.923	467
919.021	1118
919.119	1251
919.218	223
919.316	1330
919.414	1427
919.512	573
919.611	961
919.709	722
919.807	91
919.905	1187
920.003	1158
920.102	465
920.200	1110
920.298	898
920.396	883
920.494	913
920.592	1623
920.690	1103
920.788	794
920.886	821
920.984	1553
921.082	782
921.180	2265
921.277	1042
921.375	1391
921.473	1660
921.571	2207
921.669	1496
921.766	1194
921.864	1761
921.962	1447
922.060	1422
922.157	1611
922.255	1430
922.352	1436
922.450	1748
922.548	1773
922.645	1529
922.743	3086
922.840	2706
922.938	3564
923.035	3760
923.133	3225
923.230	3170
923.327	4093
923.425	4567
923.522	3556
923.619	4255
923.717	2384
923.814	3893
923.911	2917
924.008	3628
924.106	3378
924.203	3122
924.300	3597
924.397	3257
924.494	3803
924.591	3487
924.688	3254
924.786	3281
924.883	3657
924.979	2939
925.077	3000
925.173	2688
925.270	3246
925.367	3482
925.464	3330
925.561	4154
925.658	3279
925.755	2742
925.852	3084
925.948	4121
926.045	3901
926.142	3728
926.239	3052
926.335	1937
926.432	3852
926.529	3373
926.625	3992
926.722	3054
926.818	3868
926.915	2990
927.011	3003
927.108	2165
927.204	3210
927.301	2195
927.397	3024
927.494	3434
927.590	2735
927.687	1856
927.783	2910
927.879	2544
927.976	2287
928.072	1994
928.168	2940
928.264	3720
928.361	2956
928.457	3844
928.553	2773
928.649	2851
928.745	2980
928.841	2266
928.937	2690
929.033	2666
929.129	2840
929.225	2753
929.321	2523
929.417	2722
929.513	2472
929.609	2528
929.705	2131
929.801	3634
929.897	2477
929.993	2417
930.089	2452
930.184	1772
930.280	2211
930.376	2773
930.471	1109
930.567	1758
930.663	3304
930.758	2405
930.854	1969
930.950	2451
931.045	1830
931.141	2620
931.236	2853
931.332	2629
931.427	1796
931.523	2712
931.618	2952
931.714	1697
931.809	1668
931.905	2612
932.000	1828
932.095	1594
932.191	2531
932.286	2695
932.381	2885
932.476	2091
932.572	2186
932.667	2217
932.762	1608
932.857	2498
932.952	2768
933.047	2177
933.142	2298
933.237	1581
933.332	2977
933.427	2723
933.522	1621
933.617	1407
933.712	2784
933.807	2217
933.902	2617
933.997	2606
934.092	1646
934.187	1888
934.282	2900
934.376	2675
934.471	2244
934.566	2218
934.661	2184
934.755	2400
934.850	2784
934.945	2190
935.039	1712
935.134	2003
935.228	2209
935.323	2563
935.417	1967
935.512	1637
935.606	1099
935.701	2182
935.795	2566
935.890	2402
935.984	2303
936.079	1054
936.173	1708
936.267	2033
936.362	1513
936.456	2009
936.550	2937
936.644	2026
936.738	1552
936.833	1322
936.927	1985
937.021	1340
937.115	2363
937.209	1619
937.303	2546
937.397	1331
937.491	1819
937.585	1870
937.679	1061
937.773	1957
937.867	1118
937.961	1597
938.055	3150
938.149	2038
938.243	1189
938.337	1062
938.430	1804
938.524	2377
938.618	1355
938.712	1791
938.805	1306
938.899	1803
938.993	1686
939.086	840
939.180	1878
939.274	896
939.367	1443
939.461	1572
939.554	1149
939.648	1124
939.741	1361
939.835	2116
939.928	1597
940.022	2366
940.115	1602
940.208	2080
940.302	2077
940.395	1832
940.488	1033
940.582	1108
940.675	388
940.768	1593
940.861	1368
940.954	2248
941.048	278
941.141	1698
941.234	1112
941.327	1712
941.420	1914
941.513	2510
941.606	840
941.699	2717
941.792	1570
941.885	1327
941.978	1532
942.071	1021
942.164	857
942.257	1125
942.349	918
942.442	1188
942.535	536
942.628	1329
942.721	1243
942.813	-142
942.906	1721
942.999	768
943.091	620
943.184	332
943.277	849
943.369	1230
943.462	263
943.554	1026
943.647	753
943.739	1737
943.832	1635
943.924	365
944.017	1724
944.109	497
944.201	1115
944.294	1203
944.386	1242
944.478	217
944.571	342
944.663	679
944.755	796
944.847	1442
944.940	693
945.032	241
945.124	459
945.216	1593
945.308	1388
945.400	1082
945.492	636
945.584	939
945.676	584
945.768	1506
945.860	760
945.952	764
946.044	1156
946.136	892
946.228	1345
946.320	621
946.412	600
946.503	1286
946.595	1042
946.687	63
946.779	772
946.870	1018
946.962	437
947.054	1089
947.145	884
947.237	678
947.329	362
947.420	943
947.512	706
947.603	183
947.695	1209
947.786	-60
947.878	140
947.969	670
948.061	819
948.152	504
948.243	812
948.335	271
948.426	113
948.517	1177
948.609	1920
948.700	1029
948.791	861
948.882	510
948.973	151
949.065	119
949.156	711
949.247	135
949.338	596
949.429	-203
949.520	613
949.611	-233
949.702	719
949.793	1052
949.884	638
949.975	773
950.066	-714
950.157	752
950.247	1015
950.338	50
950.429	42
950.520	975
950.611	922
950.701	1418
950.792	507
950.883	576
950.973	441
951.064	1134
951.155	462
951.245	1340
951.336	840
951.427	266
951.517	979
951.608	475
951.698	587
951.788	187
951.879	304
951.969	944
952.060	711
952.150	-352
952.240	1449
952.331	-300
952.421	1217
952.511	-184
952.602	175
952.692	66
952.782	5
952.872	130
952.962	754
953.052	239
953.143	303
953.233	817
953.323	1415
953.413	-144
953.503	828
953.593	627
953.683	122
953.773	-356
953.863	84
953.953	-385
954.042	401
954.132	142
954.222	640
954.312	765
954.402	-346
954.492	1115
954.581	774
954.671	425
954.761	344
954.850	1491
954.940	107
955.030	300
955.119	-152
955.209	-279
955.298	-561
955.388	101
955.477	1294
955.567	-516
955.656	-325
955.746	490
955.835	838
955.925	-627
956.014	894
956.103	196
956.193	862
956.282	-206
956.371	1235
956.461	425
956.550	416
956.639	29
956.728	-632
956.817	1083
956.906	-219
956.995	1268
957.085	250
957.174	1032
957.263	-278
957.352	-75
957.441	-270
957.530	-771
957.619	787
957.708	238
957.796	177
957.885	708
957.974	263
958.063	398
958.152	-196
958.241	86
958.329	-412
958.418	59
958.507	679
958.596	892
958.684	-278
958.773	961
958.861	163
958.950	206
959.039	82
959.127	-213
959.216	571
959.304	409
959.393	207
959.481	955
959.570	429
959.658	526
959.746	913
959.835	1523
959.923	126
960.011	761
960.100	537
960.188	519
960.276	151
960.365	83
960.453	366
960.541	-382
960.629	246
960.717	38
960.805	-496
960.893	332
960.981	-1120
961.069	714
961.158	316
961.245	1093
961.333	1231
961.421	-26
961.509	507
961.597	-125
961.685	-235
961.773	-820
961.861	5
961.949	536
962.036	-753
962.124	827
962.212	-1209
962.299	-524
962.387	-1162
962.475	-73
962.562	-890
962.650	582
962.738	429
962.825	-824
962.913	47
963.000	-402
963.088	37
963.175	549
963.263	686
963.350	-406
963.438	-9
963.525	482
963.612	690
963.700	383
963.787	3713
963.874	1525
963.962	226
964.049	-236
964.136	-552
964.223	-855
964.310	-540
964.398	-140
964.485	-493
964.572	638
964.659	525
964.746	108
964.833	508
964.920	-937
965.007	-454
965.094	406
965.181	325
965.268	-31
965.355	-371
965.441	-288
965.528	-467
965.615	16
965.702	216
965.789	-643
965.875	-84
965.962	385
966.049	-48
966.136	653
966.222	-109
966.309	-452
966.395	-481
966.482	354
966.569	344
966.655	-113
966.742	31
966.828	150
966.915	-597
967.001	-418
967.087	-719
967.174	-391
967.260	548
967.347	-137
967.433	863
967.519	2631
967.605	483
967.692	94
967.778	99
967.864	63
967.950	-1098
968.036	85
968.123	789
968.209	-906
968.295	-1043
968.381	1055
968.467	497
968.553	-1128
968.639	320
968.725	-866
968.811	401
968.897	683
968.983	252
969.069	-618
969.154	241
969.240	1028
969.326	-739
969.412	-53
969.497	111
969.583	-777
969.669	1261
969.755	558
969.840	-445
969.926	1306
970.012	-23
970.097	766
970.183	413
970.268	-758
970.354	716
970.439	-379
970.525	1842
970.610	-587
970.696	74
970.781	533
970.866	-225
970.952	-223
971.037	-753
971.122	62
971.208	206
971.293	264
971.378	-892
971.463	-40
971.549	-249
971.634	-225
971.719	-295
971.804	-591
971.889	750
971.974	-819
972.059	-120
972.144	57
972.229	-257
972.314	-430
972.399	889
972.484	-257
972.569	-274
972.654	-457
972.739	913
972.824	427
972.908	-135
972.993	-445
973.078	-644
973.163	343
973.247	-477
973.332	-1994
973.417	1400
973.501	-257
973.586	118
973.671	-178
973.755	-590
973.840	436
973.924	-10
974.009	277
974.093	-183
974.178	1526
974.262	763
974.346	-16
974.431	-367
974.515	-666
974.600	-221
974.684	253
974.768	-593
974.852	-8
974.937	-1452
975.021	-814
975.105	-351
975.189	-92
975.273	116
975.358	-864
975.442	-709
975.526	640
975.610	-600
975.694	-516
975.778	-33
975.862	333
975.946	-2072
976.030	1064
976.114	-863
976.198	-49
976.281	-8
976.365	403
976.449	-204
976.533	-340
976.617	-630
976.700	-337
976.784	-276
976.868	363
976.951	502
977.035	94
977.119	101
977.202	-231
977.286	1298
977.369	-758
977.453	219
977.536	335
977.620	-520
977.703	-87
977.787	-361
977.870	677
977.953	471
978.037	-993
978.120	217
978.203	-212
978.287	630
978.370	-778
978.453	-284
978.536	315
978.620	861
978.703	359
978.786	362
978.869	-490
978.952	-1059
979.035	1163
979.118	895
979.201	357
979.284	603
979.367	-893
979.450	-75
979.533	-392
979.616	-409
979.699	-393
979.782	177
979.865	90
979.948	-365
980.030	-103
980.113	146
980.196	-919
980.279	119
980.361	-43
980.444	-382
980.526	-217
980.609	-102
980.692	-143
980.774	-123
980.857	-995
980.939	808
981.022	-204
981.104	27
981.187	114
981.269	7
981.352	271
981.434	-807
981.516	-906
981.599	378
981.681	17
981.763	-393
981.846	-370
981.928	91
982.010	-238
982.092	-1045
982.174	415
982.256	-402
982.339	-96
982.421	44
982.503	613
982.585	-717
982.667	-163
982.749	438
982.831	-417
982.913	-1129
982.995	600
983.077	-582
983.158	486
983.240	-1484
983.322	713
983.404	806
983.486	-310
983.568	-166
983.649	66
983.731	669
983.813	-171
983.894	690
983.976	-476
984.058	-261
984.139	-227
984.221	-370
984.302	705
984.384	-292
984.465	-575
984.547	146
984.628	-532
984.710	399
984.791	-352
984.872	610
984.954	539
985.035	455
985.116	-707
985.198	-83
985.279	424
985.360	-436
985.441	-312
985.522	532
985.604	-109
985.685	-1933
985.766	779
985.847	1603
985.928	-643
986.009	-375
986.090	-448
986.171	726
986.252	465
986.333	-124
986.414	410
986.495	-45
986.576	348
986.656	-313
986.737	-128
986.818	208
986.899	-533
986.980	-223
987.060	2131
987.141	-374
987.222	95
987.302	-35
987.383	341
987.464	-398
987.544	657
987.625	229
987.705	274
987.786	303
987.866	37
987.947	610
988.027	-320
988.108	687
988.188	532
988.268	-447
988.349	502
988.429	-240
988.509	1237
988.589	289
988.670	-632
988.750	442
988.830	35
988.910	1092
988.990	-332
989.070	-519
989.151	-207
989.231	-1046
989.311	508
989.391	-317
989.471	-366
989.551	157
989.631	-896
989.711	-261
989.791	-699
989.870	-839
989.950	28
990.030	-682
990.110	91
990.190	-645
990.269	-308
990.349	-652
990.429	-100
990.509	96
990.588	-430
990.668	-53
990.747	-212
990.827	-595
990.907	515
990.986	-681
991.066	155
991.145	-793
991.225	252
991.304	-454
991.383	139
991.463	-622
991.542	110
991.622	164
991.701	-407
991.780	-972
991.859	-346
991.939	-1214
992.018	-302
992.097	204
992.176	-403
992.256	-323
992.335	-100
992.414	468
992.493	-1128
992.572	-394
992.651	748
992.730	-520
992.809	-118
992.888	-1223
992.967	-627
993.046	2
993.125	-1034
993.203	-1203
993.282	14
993.361	-738
993.440	-693
993.519	-1053
993.597	222
993.676	-1396
993.755	406
993.834	-755
993.912	-1861
993.991	320
994.069	-774
994.148	-694
994.226	-979
994.305	-619
994.384	-562
994.462	567
994.540	-1286
994.619	-954
994.697	-41
994.776	-1091
994.854	-21
994.932	-703
995.011	-410
995.089	-1047
995.167	-1120
995.245	-90
995.324	-1322
995.402	-758
995.480	-589
995.558	-994
995.636	-1653
995.714	-989
995.792	193
995.870	-1344
995.948	-1287
996.026	336
996.104	-2014
996.182	-1329
996.260	-1257
996.338	-463
996.416	-1240
996.494	-1146
996.572	317
996.649	-1751
996.727	-1469
996.805	-443
996.883	-437
996.960	-397
997.038	-261
997.116	115
997.193	-1049
997.271	-713
997.348	-1363
997.426	-715
997.504	-1533
997.581	-712
997.658	-210
997.736	-1578
997.813	-1350
997.891	-461
997.968	-1201
998.046	-1240
998.123	-1463
998.200	-1904
998.277	-888
998.355	-602
998.432	-1749
998.509	-1157
998.586	-452
998.663	-623
998.741	-1102
998.818	-399
998.895	-992
998.972	-731
999.049	-964
999.126	-61
999.203	-470
999.280	-1056
999.357	-1219
999.434	-556
999.511	-608
999.587	-522
999.664	-1627
999.741	-715
999.818	160
999.895	-1054
999.971	-1142
1000.048	-1286
1000.125	-587
1000.202	-1678
1000.278	-896
1000.355	-211
1000.431	-1279
1000.508	-1520
1000.584	-1261
1000.661	-840
1000.738	-2005
1000.814	-1106
1000.890	-365
1000.967	-1113
1001.043	-960
1001.120	-2407
1001.196	-1252
1001.272	-1756
1001.349	-1085
1001.425	-520
1001.501	-938
1001.577	-2220
1001.654	-529
1001.730	-977
1001.806	-2061
1001.882	-2579
1001.958	-740
1002.034	-1461
1002.110	-1913
1002.186	-1243
1002.262	-1664
1002.338	-2178
1002.414	-1141
1002.490	-622
1002.566	-1377
1002.642	-1267
1002.718	-388
1002.794	-1897
1002.870	-1473
1002.945	-1475
1003.021	-1338
1003.097	-1497
1003.173	-892
1003.248	-1878
1003.324	-1219
1003.400	-558
1003.475	-1227
1003.551	-937
1003.626	-1531
1003.702	-941
1003.777	-1466
1003.853	-1476
1003.928	-1403
1004.004	-1438
1004.079	-382
1004.155	-1165
1004.230	-2469
1004.305	-333
1004.381	-1464
1004.456	-1531
1004.531	-1496
1004.607	-1856
1004.682	-1299
1004.757	-1041
1004.832	-761
1004.907	-1439
1004.982	-874
1005.057	-1117
1005.133	-915
1005.208	-1195
1005.283	-727
1005.358	-377
1005.433	-2329
1005.508	-1376
1005.583	-1432
1005.657	-1627
1005.732	-214
1005.807	-2107
1005.882	-1431
1005.957	-1954
1006.032	-1117
1006.106	-735
1006.181	-1859
1006.256	-1261
1006.331	-1836
1006.405	-1030
1006.480	-1363
1006.554	-1469
1006.629	-1527
1006.704	-1787
1006.778	-1108
1006.853	-964
1006.927	-1482
1007.002	-2281
1007.076	-790
1007.150	-1436
1007.225	-1557
1007.299	63
1007.373	-1950
1007.448	-1338
1007.522	-260
1007.596	-2055
1007.671	-1532
1007.745	-1021
1007.819	-2257
1007.893	-1257
1007.967	-1287
1008.041	-1996
1008.115	-716
1008.190	-1476
1008.264	-1223
1008.338	-2263
1008.412	-1383
1008.486	-1176
1008.560	-1143
1008.633	-2296
1008.707	-2470
1008.781	-1443
1008.855	-1644
1008.929	-948
1009.003	-1664
1009.076	-1800
1009.150	-1325
1009.224	-1284
1009.298	-1758
1009.371	-1874
1009.445	-1236
1009.519	-1558
1009.592	-2138
1009.666	-1404
1009.739	-1733
1009.813	-2544
1009.886	-557
1009.960	-2366
1010.033	-1555
1010.107	-1472
1010.180	-2000
1010.253	-1386
1010.327	-1314
1010.400	-807
1010.473	-886
1010.547	-421
1010.620	-1457
1010.693	-2061
1010.766	-2053
1010.840	-1213
1010.913	-1398
1010.986	-2118
1011.059	-756
1011.132	-1785
1011.205	-774
1011.278	-843
1011.351	-2225
1011.424	-1367
1011.497	-2641
1011.570	-1946
1011.643	-1575
1011.716	-1844
1011.789	-1490
1011.862	-1606
1011.934	-1508
1012.007	-1722
1012.080	-1892
1012.153	-1656
1012.225	-944
1012.298	-1208
1012.371	-1814
1012.443	-955
1012.516	-2503
1012.588	-1566
1012.661	-875
1012.733	-1264
1012.806	-1364
1012.879	-1578
1012.951	-1786
1013.023	-1118
1013.096	-1838
1013.168	-2266
1013.241	-1192
1013.313	-2228
1013.385	-1842
1013.458	-1562
1013.530	-1244
1013.602	-2167
1013.674	-1454
1013.746	-2337
1013.819	-1660
1013.891	-1563
1013.963	-2806
1014.035	-1604
1014.107	-1861
1014.179	-1085
1014.251	-2254
1014.323	-1800
1014.395	-1560
1014.467	-2270
1014.539	-1534
1014.611	-1121
1014.683	-1638
1014.754	-1531
1014.826	-2148
1014.898	-941
1014.970	-2522
1015.042	-865
1015.113	-1496
1015.185	-1664
1015.257	-2044
1015.328	-922
1015.400	-2461
1015.471	-1792
1015.543	-2667
1015.615	-1727
1015.686	-1700
1015.757	-1388
1015.829	-850
1015.901	-2058
1015.972	-1821
1016.043	-1889
1016.115	-2158
1016.186	-2304
1016.257	-2832
1016.328	-1492
1016.400	-1407
1016.471	-1802
1016.542	-1693
1016.613	-334
1016.685	-2093
1016.756	-1587
1016.827	-1689
1016.898	-2029
1016.969	-935
1017.040	-1727
1017.111	-2295
1017.182	-2745
1017.253	-1600
1017.324	-1908
1017.395	-1431
1017.466	-1289
1017.537	-2041
1017.608	-1368
1017.678	-2642
1017.749	-1756
1017.820	-1961
1017.891	-1943
1017.961	-2415
1018.032	-1547
1018.103	-1999
1018.173	-1316
1018.244	-2093
1018.315	-1515
1018.385	-1707
1018.456	-1971
1018.526	-2266
1018.597	-2439
1018.667	-1916
1018.738	-1451
1018.808	-1601
1018.878	-1494
1018.949	-1516
1019.019	-1096
1019.089	-1911
1019.160	-1614
1019.230	-2381
1019.300	-1356
1019.371	-2731
1019.441	-1582
1019.511	-1575
1019.581	-1583
1019.651	-1386
1019.721	-1498
1019.791	-1958
1019.861	-2047
1019.931	-1737
1020.001	-1643
1020.071	-1837
1020.141	-1953
1020.211	-2155
1020.281	-2872
1020.351	-2170
1020.421	-1915
1020.491	-1621
1020.560	-2554
1020.630	-2255
1020.700	-2223
1020.770	-2391
1020.839	-2190
1020.909	-2179
1020.979	-2350
1021.048	-1459
1021.118	-1851
1021.187	-2096
1021.257	-1824
1021.326	-1661
1021.396	-2644
1021.465	-1509
1021.535	-2724
1021.604	-3038
1021.674	-1655
1021.743	-2146
1021.812	-2634
1021.882	-2105
1021.951	-3135
1022.020	-1741
1022.089	-2293
1022.159	-2276
1022.228	-1785
1022.297	-2107
1022.366	-1876
1022.435	-2256
1022.504	-1906
1022.573	-1941
1022.642	-1403
1022.711	-2454
1022.781	-1500
1022.849	-1890
1022.918	-2339
1022.987	-2081
1023.056	-1200
1023.125	-1948
1023.194	-2445
1023.263	-2144
1023.331	-1529
1023.400	-2894
1023.469	-2262
1023.538	-1849
1023.606	-2301
1023.675	-1835
1023.744	-3241
1023.812	-2330
1023.881	-1867
1023.949	-2501
1024.018	-2142
1024.086	-2265
1024.155	-2060
1024.223	-3054
1024.292	-2350
1024.360	-1533
1024.429	-2186
1024.497	-2869
1024.565	-1809
1024.634	-2579
1024.702	-2057
1024.770	-1720
1024.838	-2416
1024.907	-1741
1024.975	-2517
1025.043	-1746
1025.111	-2468
1025.179	-1485
1025.247	-1799
1025.315	-2309
1025.383	-1589
1025.451	-2150
1025.519	-2447
1025.587	-1584
1025.655	-2352
1025.723	-2464
1025.791	-2110
1025.859	-1797
1025.927	-1759
1025.995	-1969
1026.062	-2535
1026.130	-1373
1026.198	-2017
1026.266	-1821
1026.333	-1330
1026.401	-1780
1026.469	-2080
1026.536	-1762
1026.604	-2824
1026.671	-2834
1026.739	-2568
1026.806	-2413
1026.874	-2323
1026.941	-2149
1027.009	-1623
1027.076	-2643
1027.144	-1891
1027.211	-3001
1027.278	-2107
1027.345	-2221
1027.413	-1318
1027.480	-1797
1027.547	-2029
1027.614	-1664
1027.682	-2519
1027.749	-2072
1027.816	-2186
1027.883	-1997
1027.950	-2100
1028.017	-2584
1028.084	-1711
1028.151	-3316
1028.218	-2261
1028.285	-2067
1028.352	-2374
1028.419	-2663
1028.486	-2341
1028.553	-2016
1028.619	-2655
1028.686	-2230
1028.753	-2517
1028.820	-2464
1028.886	-2294
1028.953	-2304
1029.020	-2373
1029.086	-2614
1029.153	-2709
1029.220	-2381
1029.286	-2865
1029.353	-1748
1029.419	-2235
1029.486	-2564
1029.552	-2637
1029.619	-2782
1029.685	-2626
1029.751	-2632
1029.818	-1325
1029.884	-2904
1029.951	-1881
1030.017	-2462
1030.083	-2545
1030.149	-1777
1030.216	-2746
1030.282	-2443
1030.348	-2285
1030.414	-2653
1030.480	-2468
1030.546	-1628
1030.612	-2598
1030.678	-2590
1030.744	-2346
1030.810	-2549
1030.876	-2655
1030.942	-1949
1031.008	-2154
1031.074	-2477
1031.140	-2475
1031.206	-1933
1031.272	-2342
1031.337	-1722
1031.403	-1040
1031.469	-2255
1031.534	-1512
1031.600	-1668
1031.666	-2653
1031.731	-2666
1031.797	-2291
1031.863	-2223
1031.928	-1694
1031.994	-2301
1032.059	-2448
1032.125	-2276
1032.190	-2499
1032.256	-1731
1032.321	-2422
1032.386	-1647
1032.452	-1996
1032.517	-3212
1032.582	-2335
1032.647	-1399
1032.713	-2766
1032.778	-2023
1032.843	-2154
1032.908	-2657
1032.974	-2253
1033.039	-2644
1033.104	-1279
1033.169	-2662
1033.234	-1892
1033.299	-1676
1033.364	-2283
1033.429	-1798
1033.494	-1330
1033.559	-2236
1033.624	-2579
1033.688	-2079
1033.753	-3197
1033.818	-2402
1033.883	-1828
1033.948	-1450
1034.013	-2035
1034.077	-1807
1034.142	-2293
1034.207	-1360
1034.271	-714
1034.336	-839
1034.400	-867
1034.465	-1056
1034.530	-2577
1034.594	-2509
1034.658	-2621
1034.723	-2743
1034.787	-2148
1034.852	-2258
1034.916	-2143
1034.981	-2651
1035.045	-2036
1035.109	-1991
1035.173	-2194
1035.238	-2667
1035.302	-2396
1035.366	-2003
1035.430	-2520
1035.495	-3393
1035.559	-2010
1035.623	-2481
1035.687	-2856
1035.751	-2266
1035.815	-2050
1035.879	-1648
1035.943	-2279
1036.007	-2210
1036.071	-1420
1036.135	-2492
1036.198	-2652
1036.262	-2363
1036.326	-1569
1036.390	-2441
1036.454	-2225
1036.517	-2192
1036.581	-2004
1036.645	-1675
1036.709	-2084
1036.772	-2009
1036.836	-2056
1036.900	-2195
1036.963	-2872
1037.026	-2401
1037.090	-2396
1037.154	-1982
1037.217	-2658
1037.280	-2702
1037.344	-2352
1037.407	-2836
1037.471	-2323
1037.534	-2507
1037.597	-2401
1037.661	-2227
1037.724	-2052
1037.787	-2291
1037.850	-2333
1037.913	-2167
1037.977	-2876
1038.040	-2244
1038.103	-2223
1038.166	-2095
1038.229	-2526
1038.292	-3029
1038.355	-2244
1038.418	-2193
1038.481	-1756
1038.544	-2598
1038.607	-1452
1038.670	-1704
1038.732	-1541
1038.795	-2276
1038.858	-2804
1038.921	-1983
1038.984	-1870
1039.046	-1766
1039.109	-1954
1039.172	-2070
1039.234	-2269
1039.297	-2349
1039.360	-1878
1039.422	-2461
1039.485	-2429
1039.547	-2363
1039.610	-2773
1039.672	-2494
1039.734	-2638
1039.797	-1875
1039.859	-2728
1039.922	-3226
1039.984	-2270
1040.046	-2394
1040.109	-2446
1040.171	-2084
1040.233	-3081
1040.295	-2510
1040.358	-2027
1040.420	-1804
1040.482	-2854
1040.544	-3206
1040.606	-2466
1040.668	-2237
1040.730	-2417
1040.792	-2962
1040.854	-2227
1040.916	-2859
1040.978	-2645
1041.040	-1753
1041.102	-2152
1041.164	-1874
1041.225	-2025
1041.287	-1828
1041.349	-2618
1041.411	-2338
1041.472	-2461
1041.534	-2750
1041.596	-2704
1041.657	-2486
1041.719	-2596
1041.781	-2329
1041.842	-2163
1041.904	-1293
1041.965	-2565
1042.027	-1723
1042.088	-1904
1042.150	-2694
1042.211	-2007
1042.272	-1908
1042.334	-1748
1042.395	-1894
1042.456	-2010
1042.518	-2239
1042.579	-2777
1042.640	-2704
1042.701	-1899
1042.763	-2483
1042.824	-2198
1042.885	-1766
1042.946	-2587
1043.007	-1779
1043.068	-1623
1043.129	-2575
1043.190	-1980
1043.251	-2273
1043.312	-2581
1043.373	-604
1043.434	-2652
1043.495	-2871
1043.556	-2277
1043.616	-2666
1043.677	-2121
1043.738	-1745
1043.799	-2197
1043.859	-2631
1043.920	-2438
1043.981	-2266
1044.041	-2673
1044.102	-2398
1044.162	-2035
1044.223	-2427
1044.284	-2215
1044.344	-1925
1044.405	-2646
1044.465	-2410
1044.525	-2672
1044.586	-1816
1044.646	-2381
1044.707	-2208
1044.767	-2012
1044.827	-1680
1044.887	-1648
1044.948	-1642
1045.008	-1811
1045.068	-2618
1045.128	-1610
1045.188	-2274
1045.249	-2016
1045.309	-2435
1045.369	-1559
1045.429	-2470
1045.489	-2586
1045.549	-2076
1045.609	-1964
1045.669	-1960
1045.729	-1274
1045.789	-1647
1045.848	-1390
1045.908	-1564
1045.968	-1628
1046.028	-2034
1046.088	-2405
1046.147	-1125
1046.207	-1701
1046.267	-1854
1046.326	-2112
1046.386	-1442
1046.446	-2299
1046.505	-845
1046.565	-1485
1046.624	-993
1046.684	-1040
1046.743	-1700
1046.803	-682
1046.862	-907
1046.922	0
