'Start Wavelength	183.907
'End Wavelength	1046.922
'Gate Delay	5.000
'Gate Width (ms)	1.050
'Laser Output Level	0.000
'X Position	0.000
'Y Position	0.000
'Z Position	0.000
'Grid Point Number	1.000
'Shot Number	100.000
183.907	389.000
183.977	-323.000
184.047	-12
184.116	126
184.186	289
184.256	-590
184.325	110
184.395	-1238
184.465	366
184.534	-922
184.604	-848
184.674	-72
184.743	-515
184.813	515
184.883	298
184.952	-805
185.022	300
185.092	-37
185.161	-162
185.231	186
185.301	-26
185.370	-421
185.440	161
185.509	-83
185.579	113
185.649	-990
185.718	377
185.788	-247
185.857	-267
185.927	-706
185.996	-149
186.066	-847
186.136	-221
186.205	-313
186.275	-370
186.344	-424
186.414	519
186.483	-847
186.553	402
186.622	-280
186.692	-688
186.761	-261
186.831	-220
186.900	-542
186.970	752
187.039	156
187.109	841
187.178	-894
187.248	-239
187.317	-141
187.387	-124
187.456	114
187.526	-923
187.595	247
187.664	108
187.734	-825
187.803	-340
187.873	-214
187.942	61
188.012	-444
188.081	95
188.150	-718
188.220	-112
188.289	136
188.358	-347
188.428	-263
188.497	-678
188.567	171
188.636	240
188.705	147
188.775	-206
188.844	-463
188.913	535
188.983	-608
189.052	231
189.121	146
189.191	-525
189.260	-477
189.329	-120
189.399	-1381
189.468	107
189.537	-343
189.606	550
189.676	-734
189.745	561
189.814	-370
189.883	-874
189.953	-174
190.022	253
190.091	-395
190.161	-716
190.230	-460
190.299	-12
190.368	-70
190.437	-409
190.507	-767
190.576	-393
190.645	290
190.714	-62
190.783	-1553
190.853	215
190.922	-165
190.991	-53
191.060	-514
191.129	-790
191.198	-244
191.268	-927
191.337	-299
191.406	437
191.475	-544
191.544	-202
191.613	-642
191.682	275
191.752	-510
191.821	490
191.890	-1039
191.959	-434
192.028	-330
192.097	138
192.166	366
192.235	-502
192.304	339
192.373	-230
192.442	-312
192.511	-159
192.580	-944
192.650	-208
192.719	-576
192.788	182
192.857	-42
192.926	-144
192.995	-478
193.064	-1048
193.133	-786
193.202	-296
193.271	-469
193.340	411
193.409	-455
193.478	413
193.547	-1127
193.615	-392
193.684	191
193.753	-97
193.822	-214
193.891	-547
193.960	-311
194.029	-577
194.098	-761
194.167	-665
194.236	16
194.305	241
194.374	-1037
194.443	-145
194.512	-219
194.580	-303
194.649	-353
194.718	265
194.787	-544
194.856	348
194.925	656
194.994	-501
195.062	-519
195.131	-518
195.200	-47
195.269	-823
195.338	35
195.407	-107
195.475	-1237
195.544	-30
195.613	-831
195.682	53
195.751	-516
195.819	131
195.888	-343
195.957	600
196.026	-413
196.094	343
196.163	-717
196.232	405
196.301	-530
196.369	156
196.438	-514
196.507	-650
196.576	-638
196.644	153
196.713	263
196.782	-373
196.850	-202
196.919	345
196.988	-559
197.056	-718
197.125	19
197.194	-177
197.262	-907
197.331	-181
197.400	-559
197.468	153
197.537	-855
197.606	-207
197.674	-46
197.743	101
197.812	-1522
197.880	236
197.949	-832
198.017	169
198.086	-467
198.155	292
198.223	202
198.292	-344
198.360	0
198.429	-295
198.497	-719
198.566	-733
198.635	-943
198.703	751
198.772	-140
198.840	-583
198.909	-765
198.977	205
199.046	-877
199.114	355
199.183	-844
199.251	9
199.320	-480
199.388	-83
199.457	-1154
199.525	-48
199.594	-804
199.662	-5
199.731	-388
199.799	-124
199.867	-643
199.936	-202
200.004	-338
200.073	364
200.141	-551
200.210	-541
200.278	-1198
200.346	675
200.415	-551
200.483	-530
200.552	117
200.620	-711
200.688	-706
200.757	-415
200.825	-452
200.893	-288
200.962	-638
201.030	-431
201.098	-972
201.167	-470
201.235	-461
201.303	67
201.372	237
201.440	-471
201.508	-527
201.577	-258
201.645	-822
201.713	-1034
201.781	-709
201.850	1
201.918	-333
201.986	-745
202.055	-183
202.123	-97
202.191	-387
202.259	231
202.327	-1210
202.396	-77
202.464	-224
202.532	220
202.600	-613
202.669	-473
202.737	-1059
202.805	-378
202.873	-644
202.941	-351
203.009	265
203.078	-246
203.146	-1104
203.214	218
203.282	-1374
203.350	-256
203.418	-762
203.487	-399
203.555	-495
203.623	543
203.691	-481
203.759	-121
203.827	-386
203.895	-819
203.963	-358
204.031	-839
204.099	-735
204.168	-604
204.236	-838
204.304	-572
204.372	-994
204.440	-217
204.508	-584
204.576	-601
204.644	148
204.712	-266
204.780	-391
204.848	69
204.916	-1113
204.984	-250
205.052	108
205.120	14
205.188	-991
205.256	-509
205.324	-410
205.392	-315
205.460	-384
205.528	134
205.596	-1069
205.664	-713
205.732	-1172
205.799	-792
205.867	-1311
205.935	-386
206.003	211
206.071	-1020
206.139	-936
206.207	299
206.275	-951
206.343	-976
206.411	-704
206.478	-558
206.546	-790
206.614	-1208
206.682	-436
206.750	-942
206.818	-643
206.885	-545
206.953	-558
207.021	675
207.089	-649
207.157	80
207.225	-361
207.292	-154
207.360	-531
207.428	-599
207.496	-224
207.563	-636
207.631	-421
207.699	-667
207.767	-786
207.834	-639
207.902	-1048
207.970	-1290
208.038	-73
208.105	-167
208.173	67
208.241	-221
208.309	12
208.376	-598
208.444	221
208.512	-1317
208.579	-805
208.647	235
208.715	-327
208.782	-208
208.850	-948
208.918	-215
208.985	-599
209.053	-88
209.120	29
209.188	-366
209.256	-801
209.323	-1037
209.391	-1296
209.459	761
209.526	-885
209.594	-222
209.661	-452
209.729	261
209.796	-734
209.864	-256
209.932	-2211
209.999	284
210.067	-262
210.134	-289
210.202	-345
210.269	-398
210.337	-612
210.404	-447
210.472	-340
210.539	319
210.607	-1729
210.674	-678
210.742	-306
210.809	-553
210.877	-565
210.944	-55
211.012	-1881
211.079	795
211.146	-1300
211.214	-121
211.281	-91
211.349	-491
211.416	-297
211.484	-173
211.551	-1995
211.618	-1049
211.686	-1356
211.753	-1529
211.821	-194
211.888	-769
211.955	-483
212.023	-746
212.090	93
212.157	-547
212.225	-1264
212.292	459
212.359	-1416
212.427	-378
212.494	-1463
212.561	-1043
212.629	-974
212.696	-215
212.763	-861
212.831	-1020
212.898	-371
212.965	-351
213.032	-991
213.100	-465
213.167	-852
213.234	75
213.301	-920
213.369	-192
213.436	177
213.503	-861
213.570	-1007
213.638	-347
213.705	-797
213.772	-925
213.839	-888
213.906	-555
213.973	-871
214.041	-560
214.108	-561
214.175	-227
214.242	-1601
214.309	-543
214.376	-1059
214.444	-1051
214.511	-1106
214.578	-509
214.645	-1168
214.712	-29
214.779	-1294
214.846	-689
214.913	-679
214.980	-712
215.048	128
215.115	11
215.182	-421
215.249	-981
215.316	-922
215.383	7
215.450	-437
215.517	-819
215.584	-743
215.651	-501
215.718	-502
215.785	135
215.852	-1461
215.919	-765
215.986	-932
216.053	-141
216.120	-1370
216.187	-938
216.254	-146
216.321	-870
216.388	-775
216.455	-1051
216.522	-1554
216.589	-1431
216.656	-504
216.722	-1006
216.789	-368
216.856	-707
216.923	-749
216.990	42
217.057	-1009
217.124	-263
217.191	-1444
217.258	-563
217.324	-823
217.391	-670
217.458	-818
217.525	-397
217.592	-1028
217.659	-1147
217.725	-598
217.792	-775
217.859	-1164
217.926	-814
217.993	-1175
218.059	-425
218.126	-1350
218.193	-145
218.260	-826
218.327	-1112
218.393	-696
218.460	-475
218.527	-1467
218.594	-1175
218.660	-1321
218.727	797
218.794	-1035
218.860	-631
218.927	-666
218.994	-583
219.061	-649
219.127	-1220
219.194	-1048
219.261	-832
219.327	-772
219.394	1361
219.461	-1073
219.527	-118
219.594	-1355
219.661	-963
219.727	-1186
219.794	-353
219.860	-1372
219.927	-796
219.994	-650
220.060	-556
220.127	-857
220.193	-671
220.260	-1705
220.326	-587
220.393	-774
220.460	-119
220.526	-1207
220.593	-1521
220.659	420
220.726	-1004
220.792	-1021
220.859	-1322
220.925	-568
220.992	-931
221.058	-1099
221.125	-73
221.191	-1171
221.258	-1399
221.324	-356
221.391	-597
221.457	-832
221.524	-961
221.590	-8
221.657	-28
221.723	-1314
221.789	-1279
221.856	-1224
221.922	-1183
221.989	-349
222.055	-920
222.121	-1906
222.188	1606
222.254	-871
222.321	-993
222.387	-1441
222.453	-499
222.520	-1038
222.586	-792
222.652	-1227
222.719	-595
222.785	-84
222.851	-663
222.918	-444
222.984	-602
223.050	-1608
223.116	-1559
223.183	-78
223.249	-1428
223.315	-1139
223.382	-534
223.448	-1021
223.514	217
223.580	-96
223.647	-1458
223.713	-1650
223.779	-866
223.845	-812
223.911	-669
223.978	-1540
224.044	-90
224.110	-771
224.176	-364
224.242	-983
224.309	-1559
224.375	-312
224.441	-781
224.507	-550
224.573	-1950
224.639	-353
224.705	-549
224.772	-933
224.838	-803
224.904	348
224.970	-1473
225.036	-315
225.102	-1046
225.168	-146
225.234	-861
225.300	-701
225.366	-826
225.432	-357
225.499	-1045
225.565	-1409
225.631	-923
225.697	-1414
225.763	-1099
225.829	-1125
225.895	-1263
225.961	-636
226.027	-859
226.093	-1723
226.159	106
226.225	-530
226.291	-725
226.357	-824
226.423	-297
226.489	-393
226.554	-803
226.620	-880
226.686	-751
226.752	-1498
226.818	-1103
226.884	-1679
226.950	-951
227.016	-524
227.082	-163
227.148	-856
227.214	-259
227.279	-1227
227.345	-796
227.411	-1482
227.477	-971
227.543	-429
227.609	-319
227.674	-716
227.740	-969
227.806	-799
227.872	-1082
227.938	-631
228.003	-330
228.069	-726
228.135	-1719
228.201	-414
228.267	-784
228.332	-237
228.398	-1512
228.464	-360
228.530	-885
228.595	-1090
228.661	-1420
228.727	-1779
228.792	687
228.858	-864
228.924	-2257
228.990	562
229.055	-1502
229.121	-1278
229.187	-257
229.252	-1103
229.318	-1081
229.384	-515
229.449	-764
229.515	-2197
229.581	-1625
229.646	341
229.712	-311
229.777	-1505
229.843	-1153
229.909	-819
229.974	-643
230.040	-1247
230.105	-1351
230.171	-1859
230.236	-1672
230.302	-1701
230.368	-499
230.433	-1262
230.499	-305
230.564	-392
230.630	-1510
230.695	-1408
230.761	-46
230.826	-2833
230.892	-16
230.957	-1753
231.023	-503
231.088	-1256
231.154	-733
231.219	-1431
231.284	-917
231.350	-817
231.415	-1467
231.481	-1193
231.546	-789
231.612	-599
231.677	-1100
231.742	-3375
231.808	429
231.873	-1793
231.939	-2311
232.004	74
232.069	-539
232.135	-1862
232.200	-1061
232.265	68
232.331	-723
232.396	-1034
232.461	-1089
232.527	-1007
232.592	-793
232.657	-1341
232.723	-800
232.788	-1427
232.853	107
232.918	-1169
232.984	-815
233.049	-1213
233.114	-1554
233.179	-1863
233.245	-745
233.310	-1164
233.375	-1941
233.440	-338
233.506	-1263
233.571	-1782
233.636	-108
233.701	-714
233.766	-998
233.832	-878
233.897	-1186
233.962	-2857
234.027	268
234.092	-1009
234.157	-402
234.222	-1391
234.288	-549
234.353	-1108
234.418	-305
234.483	395
234.548	-1004
234.613	-1011
234.678	-1449
234.743	-1995
234.808	37
234.873	-2226
234.938	44
235.004	-1528
235.069	-1197
235.134	-2062
235.199	-897
235.264	-1007
235.329	-1973
235.394	-508
235.459	-109
235.524	-2042
235.589	-412
235.654	-1904
235.719	-1247
235.784	-761
235.849	-749
235.913	-1053
235.978	-983
236.043	-1069
236.108	-1475
236.173	-2154
236.238	-303
236.303	-1836
236.368	-984
236.433	-410
236.498	-1700
236.563	-957
236.627	-74
236.692	-337
236.757	-1062
236.822	-1328
236.887	-1333
236.952	-724
237.017	-1919
237.081	-304
237.146	-1994
237.211	-610
237.276	-1174
237.341	-975
237.405	-1677
237.470	-1527
237.535	-835
237.600	-1370
237.664	139
237.729	-1596
237.794	-1331
237.859	-1004
237.923	-1109
237.988	-1188
238.053	-375
238.118	-980
238.182	-1500
238.247	291
238.312	-1915
238.376	-373
238.441	-1994
238.506	-114
238.570	-1021
238.635	-796
238.700	-867
238.764	-1302
238.829	-640
238.893	-2360
238.958	-155
239.023	-1452
239.087	-523
239.152	-682
239.216	-1044
239.281	-710
239.346	-290
239.410	-1174
239.475	-1380
239.539	-510
239.604	-1859
239.668	-91
239.733	-870
239.797	-920
239.862	-22
239.926	-1070
239.991	-57
240.055	-1261
240.120	-992
240.184	-1026
240.249	-1517
240.313	-1438
240.378	-594
240.442	-1799
240.507	-608
240.571	-1932
240.635	-1333
240.700	-1326
240.764	-789
240.829	-1519
240.893	-2055
240.957	-751
241.022	-590
241.086	-362
241.151	-1967
241.215	-1828
241.279	-264
241.344	-1625
241.408	-1608
241.472	-2044
241.537	519
241.601	-852
241.665	-2051
241.730	-1491
241.794	243
241.858	-2387
241.922	-1213
241.987	-1165
242.051	-951
242.115	-2501
242.179	-610
242.244	-571
242.308	-394
242.372	-1351
242.436	-1594
242.501	-728
242.565	-1927
242.629	-1879
242.693	275
242.757	-2081
242.822	-1401
242.886	-1315
242.950	-27
243.014	-2277
243.078	-1902
243.142	-1453
243.206	-2332
243.271	-1013
243.335	-1527
243.399	-817
243.463	-1799
243.527	-1153
243.591	-1234
243.655	-1309
243.719	-760
243.783	-936
243.847	-1360
243.911	-1305
243.975	-2131
244.040	-2550
244.104	418
244.168	-1887
244.232	-1107
244.296	-1657
244.360	-357
244.424	-2677
244.488	-540
244.552	-1453
244.615	-2638
244.679	-898
244.743	-405
244.807	-2726
244.871	-465
244.935	-1099
244.999	-1876
245.063	-1653
245.127	-832
245.191	-997
245.255	-1398
245.319	-744
245.383	-2728
245.446	-869
245.510	-1798
245.574	-1171
245.638	-450
245.702	-2070
245.766	-569
245.829	-607
245.893	-1642
245.957	-2033
246.021	-776
246.085	-1957
246.149	-1469
246.212	23
246.276	-2078
246.340	-2045
246.404	-437
246.467	-173
246.531	-2502
246.595	-468
246.659	-186
246.722	-2647
246.786	-524
246.850	-1168
246.913	-1651
246.977	-2014
247.041	-686
247.104	-1147
247.168	-817
247.232	-1786
247.295	-695
247.359	-1193
247.423	-1536
247.486	-1706
247.550	195
247.614	-1114
247.677	-636
247.741	-1761
247.804	-1113
247.868	-1236
247.932	-1834
247.995	-1070
248.059	-1078
248.122	-1842
248.186	-187
248.249	-1853
248.313	-411
248.376	-545
248.440	-1719
248.503	-2929
248.567	728
248.630	-2413
248.694	-1101
248.757	-655
248.821	-1039
248.884	472
248.948	-1759
249.011	-1761
249.075	-1075
249.138	-705
249.202	-1476
249.265	-1991
249.328	-300
249.392	-2684
249.455	-903
249.519	-1395
249.582	-1130
249.645	-1524
249.709	-1712
249.772	-1827
249.835	-1415
249.899	-1285
249.962	-680
250.025	-1451
250.089	-1131
250.152	-1160
250.215	-893
250.279	-1622
250.342	-769
250.405	-265
250.468	-1586
250.532	-1925
250.595	-838
250.658	-1963
250.721	-1180
250.785	-1669
250.848	-641
250.911	-1508
250.974	-231
251.038	-1900
251.101	-750
251.164	-2170
251.227	-446
251.290	-2190
251.354	-694
251.417	-1669
251.480	-1259
251.543	-1217
251.606	-1001
251.669	-1430
251.732	-706
251.795	-745
251.859	-769
251.922	-1339
251.985	-908
252.048	-808
252.111	-1438
252.174	-2322
252.237	-831
252.300	-1119
252.363	-1331
252.426	-754
252.489	-1355
252.552	-1708
252.615	-1181
252.678	-651
252.741	-555
252.804	-2390
252.867	-952
252.930	-598
252.993	-2455
253.056	-674
253.119	-1558
253.182	-1249
253.245	-852
253.308	-708
253.371	-1408
253.434	-1554
253.497	-180
253.559	-145
253.622	-1880
253.685	-1682
253.748	-1326
253.811	-932
253.874	-303
253.937	-1986
254.000	-760
254.062	-759
254.125	-1900
254.188	-566
254.251	-1730
254.314	-2078
254.376	-1886
254.439	-1435
254.502	-1451
254.565	-1419
254.628	-623
254.690	-2183
254.753	-1406
254.816	-1657
254.878	-857
254.941	-1216
255.004	-1107
255.067	-2035
255.129	-1622
255.192	-951
255.255	-1590
255.317	-1561
255.380	-757
255.443	-1761
255.505	-997
255.568	-3083
255.631	-1180
255.693	-1753
255.756	-2195
255.819	-962
255.881	-1996
255.944	-1294
256.006	-1297
256.069	-1827
256.132	-1082
256.194	-1749
256.257	-1367
256.319	-1525
256.382	-2481
256.444	-495
256.507	-1697
256.569	-1439
256.632	-1376
256.694	-1966
256.757	-171
256.819	-490
256.882	-1903
256.944	-1603
257.007	20
257.069	-1393
257.132	-1231
257.194	-693
257.257	-1192
257.319	-2306
257.381	-2422
257.444	-248
257.506	-1537
257.569	-1531
257.631	-1155
257.693	-2132
257.756	-1771
257.818	-2103
257.880	-875
257.943	-649
258.005	-1452
258.067	-1904
258.130	-899
258.192	-1501
258.254	-1546
258.317	-1689
258.379	-653
258.441	-1587
258.503	-777
258.566	-1840
258.628	-714
258.690	-1746
258.753	-836
258.815	-1473
258.877	-1306
258.939	-1340
259.001	-888
259.064	-1618
259.126	-1909
259.188	-2189
259.250	-916
259.312	-2575
259.375	-1638
259.437	-1670
259.499	-801
259.561	-1410
259.623	-1377
259.685	-1861
259.747	-1329
259.809	-1684
259.872	-1235
259.934	-1522
259.996	-1026
260.058	-1398
260.120	-1711
260.182	-976
260.244	-837
260.306	-1927
260.368	-642
260.430	-2211
260.492	-672
260.554	-1028
260.616	-2115
260.678	-1243
260.740	-1106
260.802	-1769
260.864	-1657
260.926	-2111
260.988	-160
261.050	-1745
261.112	-2088
261.174	-646
261.236	-1049
261.298	-1396
261.359	-333
261.421	-660
261.483	-2480
261.545	-569
261.607	-1960
261.669	-1091
261.731	-1305
261.793	-841
261.854	-2162
261.916	-289
261.978	-2463
262.040	-1608
262.102	-43
262.164	-2115
262.225	-789
262.287	-1372
262.349	-1778
262.411	-1593
262.472	-628
262.534	-1699
262.596	-1299
262.658	-593
262.719	-1488
262.781	-1024
262.843	-2107
262.904	-1443
262.966	-651
263.028	-1244
263.090	-1289
263.151	-1470
263.213	-646
263.275	-1809
263.336	-1353
263.398	-263
263.459	-2177
263.521	-1877
263.583	-958
263.644	-880
263.706	-1196
263.767	-2239
263.829	-913
263.891	-1682
263.952	-1209
264.014	-1662
264.075	-1678
264.137	-994
264.198	-1011
264.260	-2192
264.321	-1776
264.383	-1340
264.444	-1983
264.506	-1936
264.567	-1051
264.629	-635
264.690	-2576
264.752	-1484
264.813	-1527
264.875	-2079
264.936	-112
264.998	-1870
265.059	-1430
265.120	-938
265.182	-1548
265.243	-2015
265.305	-1391
265.366	-1476
265.427	-1115
265.489	-1434
265.550	-2552
265.611	-1733
265.673	-2209
265.734	-754
265.795	-212
265.857	-2183
265.918	-834
265.979	-587
266.040	-1641
266.102	-1880
266.163	-203
266.224	-1574
266.286	-1837
266.347	-2242
266.408	-1594
266.469	-1085
266.530	-1077
266.592	-2016
266.653	-838
266.714	-1257
266.775	-1105
266.836	-1460
266.898	-1117
266.959	-1699
267.020	-1870
267.081	-225
267.142	-1552
267.203	-1733
267.264	-1871
267.326	-300
267.387	-893
267.448	-2027
267.509	-1201
267.570	-1622
267.631	-1476
267.692	-1736
267.753	-713
267.814	-2219
267.875	-762
267.936	-1367
267.997	-1602
268.058	-1851
268.119	-1742
268.180	-1849
268.241	-1367
268.302	-1475
268.363	-877
268.424	-2125
268.485	-1020
268.546	-1568
268.607	-931
268.668	-1271
268.729	-1213
268.790	-1737
268.851	-1074
268.912	-2212
268.972	-1444
269.033	-1564
269.094	-1696
269.155	-752
269.216	-1359
269.277	-1553
269.338	-1328
269.398	-1718
269.459	-1922
269.520	-938
269.581	-1925
269.642	-1442
269.702	-1483
269.763	-1595
269.824	-1214
269.885	-1890
269.945	-651
270.006	-814
270.067	-2086
270.128	-601
270.188	-1710
270.249	-1452
270.310	-1540
270.370	-1009
270.431	-803
270.492	-1613
270.553	-974
270.613	-1368
270.674	-601
270.734	-1970
270.795	-924
270.856	-1569
270.916	-1918
270.977	-1657
271.038	-526
271.098	-1627
271.159	-1677
271.219	-1968
271.280	-483
271.340	-311
271.401	-1843
271.462	-2001
271.522	-1025
271.583	-1923
271.643	-1030
271.704	-1640
271.764	-1014
271.825	-1430
271.885	-290
271.946	-1402
272.006	-1417
272.066	-1221
272.127	-977
272.187	-787
272.248	-1273
272.308	-2128
272.369	-1226
272.429	-1626
272.489	-883
272.550	-1703
272.610	-489
272.671	-1377
272.731	-1286
272.791	-1851
272.852	-1879
272.912	-1035
272.972	-1020
273.033	-1204
273.093	-1662
273.153	-1977
273.214	-1849
273.274	-1495
273.334	-1114
273.394	-1770
273.455	-2248
273.515	-1597
273.575	-1247
273.635	-1112
273.696	-292
273.756	-1316
273.816	-678
273.876	-1448
273.936	-1236
273.997	-1365
274.057	-1534
274.117	-2321
274.177	-547
274.237	-1204
274.297	-144
274.358	-1520
274.418	-1212
274.478	-1514
274.538	-1038
274.598	-3058
274.658	-950
274.718	-730
274.778	-894
274.838	-1686
274.898	-2286
274.958	-1555
275.018	-1084
275.078	-1714
275.138	-773
275.198	-1549
275.258	-1873
275.318	-1114
275.378	-1511
275.438	-1444
275.498	-1685
275.558	-1699
275.618	-1080
275.678	-2116
275.738	-875
275.798	-1701
275.858	-1347
275.918	-913
275.978	-795
276.038	-1057
276.098	-2135
276.157	-1695
276.217	-1055
276.277	-1684
276.337	-957
276.397	-855
276.457	-797
276.517	-1588
276.576	-1364
276.636	-1334
276.696	-981
276.756	-1604
276.815	-1662
276.875	-2179
276.935	-975
276.995	-1428
277.055	-1223
277.114	-1076
277.174	-744
277.234	-689
277.293	-1937
277.353	-1455
277.413	-795
277.472	-1653
277.532	-1401
277.592	-1982
277.651	-1147
277.711	-1631
277.771	-888
277.830	-1118
277.890	-860
277.950	-1826
278.009	-84
278.069	-255
278.128	-791
278.188	-953
278.248	-760
278.307	-1395
278.367	-463
278.426	-1840
278.486	-695
278.545	-1583
278.605	-1272
278.664	-1476
278.724	-1283
278.783	-1215
278.843	-253
278.902	-1464
278.962	-1707
279.021	-1771
279.081	-439
279.140	-1642
279.199	-1510
279.259	-1347
279.318	-405
279.378	-1106
279.437	-822
279.496	186
279.556	4524
279.615	3141
279.675	-389
279.734	-599
279.793	-1101
279.853	21
279.912	-293
279.971	-624
280.031	-1037
280.090	-1012
280.149	1026
280.208	-600
280.268	995
280.327	1973
280.386	-710
280.445	-1440
280.505	-1776
280.564	-1081
280.623	-1494
280.682	-1051
280.742	-1038
280.801	-1886
280.860	-1607
280.919	-1336
280.978	-342
281.037	-1106
281.097	-1155
281.156	-1167
281.215	-1755
281.274	-2264
281.333	-317
281.392	-1464
281.451	-1131
281.510	-1552
281.569	-1130
281.628	-770
281.688	-1211
281.747	-1386
281.806	-788
281.865	-1468
281.924	-1289
281.983	-1818
282.042	-1214
282.101	-1237
282.160	-1047
282.219	-1711
282.278	-933
282.337	-764
282.396	-1530
282.454	-2134
282.513	-1354
282.572	-1312
282.631	-481
282.690	-794
282.749	-1008
282.808	-1372
282.867	-1297
282.926	-998
282.985	-1156
283.043	-1475
283.102	-1213
283.161	-2340
283.220	-1030
283.279	-1311
283.338	-961
283.396	-1583
283.455	-1260
283.514	-1182
283.573	-977
283.631	-1244
283.690	-492
283.749	-1130
283.808	-1049
283.866	-763
283.925	-1428
283.984	-733
284.043	-1431
284.101	-1678
284.160	-1894
284.219	-743
284.277	-1507
284.336	-1417
284.395	-60
284.453	-1205
284.512	-1330
284.570	-1347
284.629	-754
284.688	-2038
284.746	-188
284.805	-1234
284.863	-991
284.922	-775
284.981	-1137
285.039	-572
285.098	292
285.156	1134
285.215	7629
285.273	9227
285.332	3155
285.390	591
285.449	-702
285.507	-561
285.566	-210
285.624	-908
285.683	180
285.741	-1187
285.799	-1114
285.858	-1446
285.916	-514
285.975	-1365
286.033	-1214
286.091	-1055
286.150	-962
286.208	-1282
286.267	-706
286.325	-1350
286.383	-1034
286.442	-1370
286.500	-812
286.558	-1220
286.616	-1092
286.675	-1311
286.733	-808
286.791	-1291
286.850	-568
286.908	-1003
286.966	-918
287.024	-934
287.083	-921
287.141	-1463
287.199	-208
287.257	-1206
287.315	-71
287.374	-1264
287.432	-720
287.490	-1977
287.548	-850
287.606	-1185
287.664	-1065
287.723	-1225
287.781	-663
287.839	-867
287.897	-935
287.955	-1206
288.013	-137
288.071	-1558
288.129	-1328
288.187	-1046
288.245	-1032
288.303	-1277
288.361	-917
288.419	-1396
288.477	-1077
288.535	-1612
288.593	-539
288.651	-773
288.709	-1527
288.767	-1617
288.825	-1011
288.883	-1164
288.941	-1399
288.999	-1472
289.057	-1215
289.115	-1815
289.173	-591
289.231	-706
289.289	-671
289.346	-542
289.404	-451
289.462	-1212
289.520	-1115
289.578	-1580
289.636	-522
289.694	-505
289.751	-655
289.809	-1266
289.867	-1322
289.925	-1509
289.983	-1772
290.040	-1711
290.098	-903
290.156	-1366
290.214	-885
290.271	-1054
290.329	-554
290.387	-1303
290.444	-1444
290.502	-1746
290.560	-559
290.617	-860
290.675	-236
290.733	-1918
290.790	-378
290.848	-916
290.906	-775
290.963	-937
291.021	-424
291.078	-1605
291.136	-1046
291.194	-737
291.251	-1075
291.309	-1432
291.366	-867
291.424	-1575
291.481	-819
291.539	-684
291.596	-939
291.654	-1475
291.711	-399
291.769	-1365
291.826	-1543
291.884	-1361
291.941	-611
291.999	-1096
292.056	-243
292.114	-1333
292.171	-910
292.228	-504
292.286	-515
292.343	-1081
292.401	-516
292.458	-920
292.515	-803
292.573	-1087
292.630	-835
292.687	-747
292.745	-914
292.802	-1206
292.859	-619
292.917	-1245
292.974	-1244
293.031	-655
293.089	-881
293.146	-1305
293.203	-1667
293.260	-1380
293.318	-1497
293.375	-943
293.432	-1227
293.489	-472
293.546	-611
293.604	-1556
293.661	-1005
293.718	-472
293.775	-289
293.832	-842
293.889	-1174
293.947	-361
294.004	-872
294.061	-1156
294.118	-763
294.175	-876
294.232	-1175
294.289	-1623
294.346	-967
294.403	-746
294.460	-1091
294.517	-1522
294.574	-379
294.631	-573
294.688	-742
294.745	-1202
294.802	-383
294.859	-476
294.916	-652
294.973	-2138
295.030	-536
295.087	-1826
295.144	-243
295.201	-321
295.258	-837
295.315	-1937
295.372	-391
295.429	-849
295.486	-1118
295.542	-1455
295.599	-1056
295.656	-440
295.713	-519
295.770	-158
295.827	-754
295.883	-863
295.940	-799
295.997	-636
296.054	-1229
296.111	-1113
296.167	-475
296.224	-1318
296.281	-1401
296.338	-1749
296.394	-1312
296.451	-1768
296.508	-1498
296.564	-859
296.621	-937
296.678	-681
296.734	58
296.791	-407
296.848	-610
296.904	-1591
296.961	-813
297.018	-647
297.074	-921
297.131	-545
297.187	-214
297.244	-613
297.301	-747
297.357	565
297.414	-632
297.470	-1146
297.527	-785
297.583	-657
297.640	-93
297.696	-1004
297.753	-888
297.809	-1382
297.866	-1456
297.922	-86
297.979	-468
298.035	-1549
298.092	-58
298.148	-758
298.204	-795
298.261	-1094
298.317	-531
298.374	43
298.430	-282
298.486	-1115
298.543	-1697
298.599	-548
298.656	-746
298.712	-1226
298.768	-393
298.824	36
298.881	-1178
298.937	-600
298.993	-326
299.050	-1348
299.106	-891
299.162	-1713
299.218	-1201
299.275	-1016
299.331	-489
299.387	-815
299.443	459
299.500	3165
299.556	3580
299.612	493
299.668	939
299.724	2447
299.780	3653
299.837	1187
299.893	696
299.949	1494
300.005	3720
300.061	2723
300.117	4109
300.173	1900
300.229	517
300.285	-751
300.341	730
300.397	-464
300.453	152
300.510	-490
300.566	715
300.622	833
300.678	3930
300.734	7165
300.790	3974
300.845	1015
300.901	2909
300.957	3984
301.013	2329
301.069	-51
301.125	-88
301.181	-68
301.237	-96
301.293	-1198
301.349	586
301.405	-829
301.461	-631
301.516	-1055
301.572	-1073
301.628	-708
301.684	-772
301.740	-683
301.796	-682
301.851	-724
301.907	-869
301.963	-809
302.019	-224
302.074	1072
302.130	2219
302.186	295
302.242	117
302.297	-1265
302.353	-789
302.409	-780
302.464	-832
302.520	-1101
302.576	-903
302.631	26
302.687	64
302.743	-1546
302.798	-1243
302.854	-1214
302.910	-882
302.965	-1597
303.021	-107
303.076	-335
303.132	-245
303.187	-1106
303.243	-1119
303.299	-1150
303.354	-723
303.410	-1102
303.465	-826
303.521	-1035
303.576	-873
303.632	-936
303.687	-704
303.743	-833
303.798	236
303.853	39
303.909	-1026
303.964	-1420
304.020	-794
304.075	-1003
304.130	-367
304.186	-1121
304.241	520
304.297	78
304.352	-393
304.358	-444
304.407	-853
304.449	-138
304.463	104
304.518	-1740
304.539	-1500
304.573	-1113
304.629	-674
304.630	-671
304.684	-611
304.720	-811
304.739	-908
304.794	348
304.811	138
304.850	-357
304.902	-648
304.905	-669
304.960	-785
304.992	-687
305.015	-620
305.071	-1165
305.083	-917
305.126	21
305.173	-530
305.181	-631
305.236	-949
305.264	-685
305.292	-425
305.347	-703
305.354	-777
305.402	-1219
305.445	-601
305.457	-433
305.512	-784
305.535	-463
305.567	5
305.622	-1039
305.626	-1011
305.678	-524
305.716	-686
305.733	-799
305.788	-572
305.807	-378
305.843	120
305.897	-181
305.898	-187
305.953	271
305.988	-45
306.008	-225
306.063	-266
306.078	-121
306.118	243
306.168	-684
306.173	-763
306.228	-473
306.259	-501
306.283	-540
306.338	-169
306.349	-373
306.393	-1280
306.440	-623
306.448	-476
306.503	-617
306.530	-430
306.558	-289
306.613	-480
306.620	-591
306.668	-1178
306.711	-845
306.723	-773
306.778	-498
306.801	-542
306.833	-497
306.888	145
306.892	135
306.943	-105
306.982	-172
306.997	-245
307.052	-735
307.072	-610
307.107	-189
307.162	-135
307.163	-132
307.217	50
307.253	-425
307.272	-581
307.327	-244
307.343	-226
307.381	-336
307.434	-712
307.436	-719
307.491	-216
307.524	155
307.546	313
307.600	-484
307.614	-576
307.655	-809
307.704	-776
307.710	-748
307.765	-497
307.795	-567
307.819	-611
307.874	-93
307.885	-193
307.929	-638
307.975	-186
307.984	-145
308.038	168
308.065	-57
308.093	-123
308.148	-252
308.156	-243
308.202	-372
308.246	-543
308.257	-524
308.312	-335
308.336	-89
308.366	173
308.421	214
308.426	184
308.475	-213
308.517	-184
308.530	-139
308.585	-516
308.607	-316
308.639	-20
308.694	-327
308.697	-303
308.748	233
308.787	139
308.803	33
308.857	-364
308.877	-352
308.912	-311
308.967	-279
308.967	-285
309.021	-113
309.058	-3
309.076	-121
309.130	-155
309.148	-176
309.185	286
309.238	800
309.239	799
309.293	431
309.328	114
309.348	-29
309.402	-71
309.418	-217
309.457	-332
309.508	-475
309.511	-466
309.566	82
309.598	204
309.620	117
309.674	70
309.688	62
309.729	280
309.778	231
309.783	241
309.837	677
309.868	671
309.892	303
309.946	-187
309.959	-322
310.001	141
310.049	464
310.055	439
310.109	624
310.139	468
310.163	201
310.218	48
310.229	-69
310.272	125
310.319	464
310.326	431
310.381	134
310.409	1
310.435	-9
310.489	-163
310.499	-169
310.543	-258
310.589	-229
310.598	-197
310.652	-309
310.679	-293
310.706	-120
310.760	178
310.769	230
310.814	405
310.859	595
310.868	577
310.923	374
310.948	249
310.977	129
311.031	-9
311.038	-35
311.085	389
311.128	789
311.139	686
311.193	100
311.218	-119
311.247	69
311.301	275
311.308	298
311.356	51
311.398	-106
311.410	22
311.464	698
311.488	948
311.518	677
311.572	127
311.578	69
311.626	631
311.668	1162
311.680	1002
311.734	134
311.758	-179
311.788	9
311.842	258
311.847	286
311.896	266
311.937	284
311.950	339
312.004	569
312.027	670
312.058	420
312.112	-18
312.117	-58
312.165	215
312.207	457
312.297	80
312.386	244
312.476	457
312.566	538
312.656	290
312.745	516
312.835	965
312.925	1313
313.015	-178
313.104	339
313.194	592
313.284	755
313.374	947
313.463	118
313.553	790
313.643	916
313.732	1459
313.822	707
313.912	883
314.001	401
314.091	682
314.180	165
314.270	388
314.360	558
314.449	789
314.539	833
314.628	927
314.718	692
314.808	1322
314.897	684
314.987	957
315.076	1981
315.166	1236
315.255	1034
315.345	1409
315.434	1111
315.524	1242
315.613	1984
315.703	1222
315.792	3118
315.881	5774
315.971	1907
316.060	1762
316.150	1117
316.239	1304
316.328	1537
316.418	1233
316.507	1028
316.597	992
316.686	2148
316.775	542
316.865	1450
316.954	1376
317.043	1090
317.133	1435
317.222	714
317.311	1257
317.400	344
317.490	1277
317.579	1238
317.668	482
317.757	1445
317.847	3035
317.936	8768
318.025	3493
318.114	2158
318.203	1670
318.293	1730
318.382	1331
318.471	1527
318.560	1602
318.649	1608
318.738	413
318.828	1109
318.917	383
319.006	561
319.095	606
319.184	1407
319.273	912
319.362	920
319.451	1208
319.540	892
319.629	1077
319.718	1343
319.807	696
319.896	689
319.985	1433
320.074	802
320.163	669
320.252	1022
320.341	866
320.430	756
320.519	759
320.608	870
320.697	1625
320.786	1100
320.875	1168
320.964	2029
321.053	1194
321.142	827
321.230	2510
321.319	2595
321.408	2322
321.497	2399
321.586	2674
321.675	1362
321.764	1603
321.852	1793
321.941	1535
322.030	1137
322.119	1253
322.207	2206
322.296	2303
322.385	2070
322.474	2496
322.562	3903
322.651	2270
322.740	1450
322.829	1863
322.917	1203
323.006	583
323.095	1612
323.183	1118
323.272	822
323.361	848
323.449	1458
323.538	806
323.626	1203
323.715	1051
323.804	522
323.892	928
323.981	589
324.069	929
324.158	520
324.246	289
324.335	1122
324.424	1077
324.512	697
324.601	739
324.689	1301
324.778	465
324.866	248
324.954	540
325.043	468
325.131	-704
325.220	1670
325.308	501
325.397	871
325.485	763
325.574	634
325.662	1030
325.750	203
325.839	1470
325.927	919
326.015	400
326.104	837
326.192	787
326.280	714
326.369	180
326.457	1011
326.545	532
326.634	127
326.722	1065
326.810	370
326.898	1226
326.987	1266
327.075	-507
327.163	923
327.251	828
327.340	1098
327.428	1390
327.516	1234
327.604	928
327.692	257
327.781	493
327.869	764
327.957	544
328.045	-158
328.133	977
328.221	579
328.309	588
328.397	1301
328.485	829
328.574	1074
328.662	1587
328.750	1257
328.838	582
328.926	1138
329.014	594
329.102	248
329.190	221
329.278	420
329.366	84
329.454	-207
329.542	679
329.630	306
329.718	536
329.806	-343
329.893	952
329.981	198
330.069	70
330.157	1270
330.245	585
330.333	85
330.421	671
330.509	495
330.597	485
330.684	367
330.772	1485
330.860	800
330.948	878
331.036	273
331.123	718
331.211	-203
331.299	541
331.387	581
331.475	482
331.562	163
331.650	1194
331.738	241
331.825	1
331.913	53
332.001	-54
332.089	737
332.176	122
332.264	340
332.352	572
332.439	573
332.527	1087
332.614	-311
332.702	323
332.790	416
332.877	196
332.965	931
333.052	409
333.140	402
333.228	937
333.315	492
333.403	1220
333.490	1427
333.578	382
333.665	1626
333.753	1193
333.840	1050
333.928	1174
334.015	1115
334.103	1552
334.190	2279
334.278	2778
334.365	3700
334.452	4176
334.540	2912
334.627	1651
334.715	2132
334.802	3260
334.889	6001
334.977	9222
335.064	6835
335.151	2205
335.239	2196
335.326	2021
335.413	2017
335.501	1671
335.588	2523
335.675	1943
335.762	2079
335.850	3055
335.937	4535
336.024	6649
336.111	11358
336.199	11456
336.286	5517
336.373	3120
336.460	2001
336.547	1908
336.635	1343
336.722	959
336.809	1139
336.896	-251
336.983	548
337.070	1281
337.157	543
337.245	775
337.332	1775
337.419	878
337.506	621
337.593	883
337.680	499
337.767	1305
337.854	71
337.941	63
338.028	638
338.115	-158
338.202	1761
338.289	977
338.376	644
338.463	536
338.550	-538
338.637	1005
338.724	920
338.811	411
338.898	718
338.984	431
339.071	347
339.158	1066
339.245	463
339.332	-152
339.419	905
339.506	247
339.593	-326
339.679	1095
339.766	1
339.853	607
339.940	1136
340.027	198
340.113	303
340.200	418
340.287	573
340.374	390
340.460	188
340.547	-486
340.634	1055
340.720	962
340.807	440
340.894	402
340.980	-185
341.067	183
341.154	1181
341.240	302
341.327	630
341.414	1099
341.500	409
341.587	683
341.674	1111
341.760	864
341.847	628
341.933	312
342.020	13
342.106	1223
342.193	876
342.279	340
342.366	321
342.452	-46
342.539	62
342.625	517
342.712	563
342.798	196
342.885	252
342.971	-464
343.058	52
343.144	716
343.230	656
343.317	505
343.403	-28
343.490	786
343.576	-71
343.662	-36
343.749	0
343.835	680
343.921	714
344.008	1266
344.094	1441
344.180	1130
344.267	-149
344.353	-1
344.439	677
344.525	-61
344.612	516
344.698	-839
344.784	-256
344.870	896
344.957	-303
345.043	1071
345.129	-3
345.215	622
345.301	211
345.387	539
345.474	325
345.560	-345
345.646	-665
345.732	172
345.818	499
345.904	-147
345.990	-358
346.076	-91
346.162	786
346.249	1725
346.335	-30
346.421	205
346.507	474
346.593	1007
346.679	-484
346.765	1799
346.851	471
346.937	-182
347.023	1398
347.108	594
347.194	271
347.280	543
347.366	1068
347.452	2163
347.538	1811
347.624	1686
347.710	917
347.796	251
347.882	-209
347.967	61
348.053	180
348.139	88
348.225	476
348.311	-280
348.397	-74
348.482	244
348.568	1266
348.654	258
348.740	3445
348.825	2241
348.911	1844
348.997	1316
349.083	1230
349.168	512
349.254	339
349.340	1037
349.425	427
349.511	85
349.597	-289
349.682	-115
349.768	990
349.854	-27
349.939	678
350.025	-4
350.110	990
350.196	817
350.282	519
350.367	1425
350.453	143
350.538	589
350.624	46
350.709	290
350.795	121
350.880	38
350.966	876
351.051	179
351.137	112
351.222	738
351.308	550
351.393	507
351.479	-111
351.564	329
351.649	664
351.735	301
351.820	188
351.906	147
351.991	122
352.076	-914
352.162	1400
352.247	404
352.332	1137
352.418	263
352.503	232
352.588	82
352.673	-201
352.759	589
352.844	-513
352.929	155
353.014	-365
353.100	477
353.185	804
353.270	-162
353.355	774
353.441	786
353.526	-244
353.611	181
353.696	-624
353.781	528
353.866	-590
353.952	849
354.037	320
354.122	869
354.207	-118
354.292	30
354.377	129
354.462	398
354.547	-513
354.632	668
354.717	332
354.802	-489
354.887	-143
354.972	497
355.057	332
355.142	-24
355.227	242
355.312	189
355.397	-23
355.482	1082
355.567	-815
355.652	539
355.737	1036
355.822	-72
355.907	-785
355.991	884
356.076	-364
356.161	665
356.246	123
356.331	923
356.416	-414
356.501	2096
356.585	-83
356.670	-309
356.755	1728
356.840	542
356.924	958
357.009	2330
357.094	1432
357.179	520
357.263	368
357.348	653
357.433	283
357.517	285
357.602	435
357.687	346
357.771	1187
357.856	393
357.941	923
358.025	1005
358.110	2404
358.195	1586
358.279	390
358.364	924
358.448	1047
358.533	1080
358.617	459
358.702	1022
358.787	178
358.871	83
358.956	95
359.040	-237
359.125	-185
359.209	326
359.294	410
359.378	588
359.462	1857
359.547	682
359.631	279
359.716	-535
359.800	900
359.885	1219
359.969	-704
360.053	1124
360.138	76
360.222	553
360.306	-304
360.391	213
360.475	402
360.559	530
360.644	903
360.728	-131
360.812	2032
360.896	2150
360.981	557
361.065	84
361.149	770
361.233	376
361.318	104
361.402	851
361.486	1984
361.570	279
361.654	1153
361.739	389
361.823	1432
361.907	2385
361.991	986
362.075	1594
362.159	1665
362.243	5228
362.327	9338
362.411	15783
362.495	5987
362.580	2910
362.664	3441
362.748	2820
362.832	5513
362.916	9625
363.000	25607
363.084	32924
363.168	11067
363.252	3884
363.336	2309
363.420	2310
363.503	1315
363.587	1086
363.671	2008
363.755	475
363.839	3306
363.923	1283
364.007	2667
364.091	3325
364.175	4041
364.258	13437
364.342	24720
364.426	48817
364.510	25439
364.594	8984
364.677	3922
364.761	2345
364.845	2360
364.929	1648
365.013	1371
365.096	1606
365.180	428
365.264	1044
365.347	2020
365.431	294
365.515	-351
365.598	323
365.682	2445
365.766	-158
365.849	1139
365.933	242
366.017	2607
366.100	-297
366.184	358
366.267	2373
366.351	1047
366.435	221
366.518	520
366.602	867
366.685	1281
366.769	669
366.852	403
366.936	463
367.019	627
367.103	-108
367.186	2121
367.270	945
367.353	350
367.436	1586
367.520	906
367.603	1190
367.687	215
367.770	242
367.853	1780
367.937	1107
368.020	1311
368.104	-639
368.187	1193
368.270	386
368.353	868
368.437	583
368.520	511
368.603	164
368.687	-537
368.770	623
368.853	289
368.936	500
369.020	1309
369.103	423
369.186	335
369.269	-622
369.352	1022
369.436	287
369.519	592
369.602	-371
369.685	2039
369.768	-1121
369.851	1098
369.934	-282
370.018	83
370.101	-282
370.184	2454
370.267	1561
370.350	98
370.433	743
370.516	2045
370.599	3969
370.682	-334
370.765	2484
370.848	1813
370.931	-273
371.014	1802
371.097	-280
371.180	1538
371.263	711
371.346	-447
371.429	1010
371.511	-325
371.594	-264
371.677	1074
371.760	1182
371.843	551
371.926	1017
372.009	2503
372.091	2947
372.174	107
372.257	1330
372.340	165
372.423	176
372.505	830
372.588	200
372.671	1151
372.754	-200
372.836	885
372.919	686
373.002	1610
373.085	-474
373.167	848
373.250	123
373.332	1331
373.415	3094
373.498	2793
373.580	2854
373.663	5268
373.746	5652
373.828	934
373.911	1629
373.993	29
374.076	636
374.159	1343
374.241	396
374.324	1461
374.406	2264
374.489	842
374.571	2673
374.654	284
374.736	1638
374.819	1073
374.901	3692
374.983	1975
375.066	2110
375.148	1478
375.231	703
375.313	1895
375.395	320
375.478	829
375.560	1840
375.643	931
375.725	1350
375.807	1532
375.890	2481
375.972	211
376.054	1050
376.136	982
376.219	368
376.301	1287
376.383	259
376.465	1263
376.548	339
376.630	481
376.712	1643
376.794	90
376.877	716
376.959	265
377.041	847
377.123	402
377.205	901
377.287	-525
377.369	658
377.452	180
377.534	772
377.616	331
377.698	175
377.780	-214
377.862	667
377.944	1622
378.026	-388
378.108	748
378.190	492
378.272	1370
378.354	331
378.436	-17
378.518	-1045
378.600	-26
378.682	4
378.764	179
378.846	1126
378.928	-71
379.010	-337
379.091	1219
379.173	1027
379.255	-552
379.337	440
379.419	480
379.501	1746
379.583	209
379.664	337
379.746	-750
379.828	1489
379.910	144
379.991	967
380.073	561
380.155	-56
380.237	172
380.318	776
380.400	-88
380.482	922
380.564	343
380.645	125
380.727	20
380.809	795
380.890	390
380.972	-489
381.053	232
381.135	1606
381.217	-604
381.298	1067
381.380	322
381.461	0
381.543	907
381.624	315
381.706	0
381.787	668
381.869	1347
381.951	559
382.032	498
382.113	3730
382.195	-791
382.276	1753
382.358	60
382.439	-332
382.521	2273
382.602	2483
382.684	1228
382.765	1010
382.846	150
382.928	2667
383.009	832
383.090	1708
383.172	3419
383.253	4777
383.334	1693
383.416	1704
383.497	1581
383.578	914
383.659	1399
383.741	3578
383.822	9079
383.903	3580
383.984	771
384.066	3074
384.147	927
384.228	1304
384.309	1185
384.390	622
384.471	843
384.553	306
384.634	444
384.715	1320
384.796	723
384.877	425
384.958	597
385.039	40
385.120	234
385.201	1856
385.282	349
385.363	662
385.444	558
385.525	1294
385.606	1398
385.687	706
385.768	1602
385.849	546
385.930	2876
386.011	3558
386.092	1010
386.173	1266
386.254	1268
386.335	1970
386.416	559
386.496	1174
386.577	1032
386.658	1178
386.739	568
386.820	1512
386.901	678
386.981	2226
387.062	1832
387.143	941
387.224	2567
387.304	2936
387.385	3035
387.466	1589
387.547	3375
387.627	1671
387.708	2867
387.789	3283
387.869	2229
387.950	3403
388.031	999
388.111	-815
388.192	2362
388.273	1989
388.353	1267
388.434	1800
388.514	1297
388.595	2227
388.676	959
388.756	1729
388.837	1947
388.917	950
388.998	-688
389.078	1059
389.159	1015
389.239	-589
389.320	2480
389.400	-787
389.480	913
389.561	619
389.641	1357
389.722	1789
389.802	-31
389.883	1073
389.963	1720
390.043	841
390.124	-197
390.204	1121
390.284	803
390.365	-179
390.445	1484
390.525	889
390.605	431
390.686	190
390.766	1768
390.846	2159
390.927	856
391.007	132
391.087	1940
391.167	733
391.247	-233
391.328	1942
391.408	1731
391.488	1853
391.568	103
391.648	727
391.728	1166
391.808	2301
391.888	715
391.969	1116
392.049	851
392.129	2615
392.209	1622
392.289	3671
392.369	2431
392.449	2221
392.529	3198
392.609	4005
392.689	3417
392.769	4515
392.849	4106
392.929	7212
393.009	9162
393.089	11723
393.169	23609
393.248	49493
393.328	113212
393.408	111853
393.488	47896
393.568	19825
393.648	11217
393.728	7287
393.807	4447
393.887	4617
393.967	4211
394.047	2745
394.127	1207
394.206	2422
394.286	1628
394.366	2059
394.446	2531
394.525	1400
394.605	1754
394.685	1266
394.764	3004
394.844	3608
394.924	5130
395.003	2294
395.083	1180
395.163	1663
395.242	300
395.322	1276
395.402	-357
395.481	2468
395.561	1651
395.640	7911
395.720	14349
395.799	6481
395.879	1569
395.958	1404
396.038	1148
396.117	1551
396.197	2422
396.276	3483
396.356	2776
396.435	3760
396.515	5741
396.594	7955
396.673	18327
396.753	49085
396.832	103181
396.912	72534
396.991	22993
397.070	11689
397.150	5357
397.229	7541
397.308	13080
397.388	20549
397.467	9864
397.546	3567
397.625	809
397.705	3738
397.784	2112
397.863	1707
397.942	1923
398.022	1228
398.101	72
398.180	1513
398.259	953
398.338	1766
398.417	1320
398.497	721
398.576	1735
398.655	38
398.734	855
398.813	1399
398.892	366
398.971	961
399.050	616
399.129	109
399.208	904
399.287	1666
399.366	139
399.445	-55
399.524	282
399.603	-199
399.682	396
399.761	61
399.840	1590
399.919	1027
399.998	-350
400.077	-877
400.156	-254
400.235	2827
400.313	650
400.392	-1105
400.471	837
400.550	711
400.629	-427
400.708	1503
400.786	-750
400.865	-14
400.944	-1008
401.023	2013
401.102	-345
401.180	234
401.259	13
401.338	245
401.416	534
401.495	-830
401.574	826
401.652	-498
401.731	610
401.810	-616
401.888	24
401.967	-212
402.046	356
402.124	748
402.203	-1085
402.281	958
402.360	-397
402.438	547
402.517	-1568
402.596	464
402.674	-206
402.753	470
402.831	652
402.910	1263
402.988	-633
403.066	2013
403.145	2047
403.223	1288
403.302	2112
403.380	1989
403.459	1887
403.537	337
403.615	157
403.694	-33
403.772	1309
403.850	-107
403.929	180
404.007	147
404.085	1402
404.164	-149
404.242	-175
404.320	488
404.398	394
404.477	-499
404.555	1629
404.633	672
404.711	24
404.789	414
404.868	113
404.946	-16
405.024	-200
405.102	-261
405.180	-344
405.258	-1184
405.336	595
405.415	-851
405.493	527
405.571	1017
405.649	-406
405.727	-1123
405.805	896
405.883	542
405.961	817
406.039	-205
406.117	-1192
406.195	175
406.273	-710
406.351	645
406.429	190
406.507	-870
406.585	-1054
406.663	-587
406.740	-557
406.818	-355
406.896	-463
406.974	1251
407.052	-1121
407.130	510
407.208	-124
407.285	1119
407.363	-1040
407.441	-81
407.519	-382
407.596	315
407.674	3299
407.752	11862
407.830	6703
407.907	1491
407.985	-724
408.063	912
408.141	-374
408.218	441
408.296	-750
408.373	-368
408.451	658
408.529	394
408.606	671
408.684	697
408.762	1159
408.839	500
408.917	1072
408.994	1209
409.072	-139
409.149	518
409.227	3076
409.304	3362
409.382	4641
409.459	4425
409.537	7243
409.614	6175
409.692	4319
409.769	3802
409.846	7620
409.924	8298
410.001	3217
410.079	3509
410.156	3212
410.233	1947
410.311	1560
410.388	1832
410.465	1596
410.543	662
410.620	1640
410.697	1207
410.775	1406
410.852	-911
410.929	2328
411.006	2434
411.083	1216
411.161	164
411.238	1160
411.315	815
411.392	-67
411.469	660
411.547	878
411.624	-1066
411.701	238
411.778	1048
411.855	365
411.932	-589
412.009	-956
412.086	201
412.163	90
412.240	11
412.317	381
412.394	-98
412.471	673
412.548	-16
412.625	-112
412.702	1043
412.779	514
412.856	393
412.933	-199
413.010	554
413.087	-142
413.164	145
413.241	346
413.318	-1104
413.395	579
413.471	-253
413.548	540
413.625	530
413.702	-903
413.779	-127
413.855	-410
413.932	-404
414.009	-797
414.086	41
414.162	83
414.239	330
414.316	-17
414.393	813
414.469	-1689
414.546	210
414.623	-21
414.699	53
414.776	-748
414.853	-301
414.929	655
415.006	-281
415.082	-433
415.159	-596
415.236	-637
415.312	484
415.389	547
415.465	-1284
415.542	-97
415.618	-528
415.695	711
415.771	-770
415.848	-1062
415.924	44
416.000	-613
416.077	193
416.153	-1480
416.230	-1402
416.306	-675
416.383	-655
416.459	173
416.535	-785
416.612	-1251
416.688	-598
416.764	-765
416.841	-668
416.917	-341
416.993	-876
417.069	298
417.146	-276
417.222	-666
417.298	-472
417.374	-296
417.451	16
417.527	-523
417.603	-904
417.679	-172
417.755	-566
417.831	-1023
417.908	-866
417.984	-407
418.060	-822
418.136	-40
418.212	-673
418.288	-749
418.364	-156
418.440	-183
418.516	430
418.592	-952
418.668	-192
418.744	-85
418.820	-374
418.896	-423
418.972	-539
419.048	-845
419.124	585
419.200	-1046
419.276	621
419.352	189
419.428	482
419.504	-308
419.579	-111
419.655	-84
419.731	-390
419.807	193
419.883	183
419.959	506
420.034	683
420.110	153
420.186	448
420.262	825
420.337	134
420.413	1168
420.489	1047
420.565	2336
420.640	1063
420.716	1714
420.792	1137
420.867	2182
420.943	1573
421.019	2727
421.094	2149
421.170	3216
421.245	2653
421.321	3015
421.397	3523
421.472	7685
421.548	12942
421.623	8329
421.699	6559
421.774	7059
421.850	7581
421.925	9919
422.001	11356
422.076	14443
422.152	17399
422.227	22705
422.302	30996
422.378	39834
422.453	52848
422.529	70970
422.604	81636
422.679	77049
422.755	82784
422.830	74306
422.905	55097
422.981	40715
423.056	30864
423.131	25411
423.207	19180
423.282	15235
423.357	12823
423.432	10598
423.508	9869
423.583	7097
423.658	7410
423.733	6135
423.808	5329
423.883	5422
423.959	5486
424.034	5748
424.109	5134
424.184	3865
424.259	3281
424.334	3280
424.409	2237
424.484	1959
424.559	1753
424.634	2036
424.709	2261
424.784	1331
424.859	1618
424.934	1122
425.009	797
425.084	1613
425.159	-207
425.234	1537
425.309	409
425.384	1575
425.459	51
425.534	1285
425.609	584
425.683	426
425.758	351
425.833	580
425.908	778
425.983	285
426.058	1065
426.132	485
426.207	-74
426.282	1342
426.357	-507
426.431	127
426.506	821
426.581	546
426.655	649
426.730	132
426.805	338
426.879	1371
426.954	39
427.029	-501
427.103	333
427.178	839
427.253	-244
427.327	16
427.402	-545
427.476	55
427.551	-1099
427.625	535
427.700	58
427.774	-350
427.849	718
427.923	-834
427.998	267
428.072	978
428.147	3106
428.221	12324
428.296	33031
428.370	17564
428.444	3237
428.519	657
428.593	-200
428.667	254
428.742	2011
428.816	4649
428.890	21014
428.965	29286
429.039	8193
429.113	1604
429.188	496
429.262	437
429.336	152
429.410	68
429.485	1058
429.559	709
429.633	-16
429.707	879
429.781	4275
429.855	19384
429.930	25638
430.004	7051
430.078	4884
430.152	14719
430.226	42635
430.300	42414
430.374	10699
430.448	3430
430.522	2169
430.596	1532
430.670	8081
430.744	25921
430.818	26359
430.892	4785
430.966	1281
431.040	511
431.114	66
431.188	-702
431.262	-1007
431.336	-548
431.410	101
431.484	-631
431.557	412
431.631	-37
431.705	2167
431.779	9738
431.853	31949
431.927	20775
432.000	4037
432.074	526
432.148	498
432.222	-476
432.295	-30
432.369	139
432.443	-454
432.516	-613
432.590	285
432.664	293
432.737	-720
432.811	-770
432.885	-1165
432.958	-71
433.032	-1658
433.106	-991
433.179	-715
433.253	-665
433.326	-845
433.400	-1065
433.473	-595
433.547	-517
433.620	-858
433.694	-1188
433.767	-220
433.841	-468
433.914	-383
433.988	-406
434.061	-667
434.134	-1332
434.208	-1253
434.281	-114
434.355	-1254
434.428	-568
434.501	-843
434.575	-856
434.648	-971
434.721	-1155
434.795	-1367
434.868	-1290
434.941	-1129
435.014	-1135
435.088	-393
435.161	-507
435.234	322
435.307	376
435.381	204
435.454	1417
435.527	4552
435.600	4245
435.673	3870
435.746	2366
435.819	1518
435.892	592
435.966	909
436.039	-8
436.112	1036
436.185	-193
436.258	-16
436.331	-791
436.404	-224
436.477	-500
436.550	-283
436.623	247
436.696	-470
436.769	-1003
436.842	-584
436.915	-1118
436.987	-528
437.060	-38
437.133	-719
437.206	-868
437.279	-484
437.352	-601
437.425	-828
437.498	-569
437.570	-338
437.643	-925
437.716	29
437.789	-679
437.861	-1173
437.934	-338
438.007	-766
438.080	-1005
438.152	-969
438.225	-810
438.298	-437
438.370	1829
438.443	318
438.516	-157
438.588	-814
438.661	-1509
438.734	-886
438.806	-801
438.879	-359
438.951	-625
439.024	155
439.096	-928
439.169	-16
439.241	-758
439.314	-685
439.386	-594
439.459	-1389
439.531	-230
439.604	-754
439.676	-553
439.749	-1068
439.821	-385
439.893	-913
439.966	-563
440.038	-573
440.110	-721
440.183	72
440.255	-246
440.327	330
440.400	-584
440.472	-157
440.544	186
440.617	-645
440.689	684
440.761	-498
440.833	-246
440.905	-596
440.978	-173
441.050	-222
441.122	616
441.194	-215
441.266	-537
441.338	-573
441.411	290
441.483	175
441.555	484
441.627	-17
441.699	461
441.771	-144
441.843	298
441.915	432
441.987	453
442.059	-330
442.131	471
442.203	1240
442.275	2098
442.347	4605
442.419	9342
442.491	35039
442.563	63800
442.635	33475
442.706	9535
442.778	4341
442.850	2630
442.922	2524
442.994	1760
443.066	2429
443.137	3542
443.209	4986
443.281	7859
443.353	16647
443.425	42418
443.496	88180
443.568	91400
443.640	49247
443.711	18122
443.783	7940
443.855	4909
443.926	3081
443.998	2473
444.070	1806
444.141	1430
444.213	1392
444.285	1455
444.356	652
444.428	1596
444.499	1418
444.571	1198
444.642	1708
444.714	1505
444.785	1439
444.857	1949
444.928	2662
445.000	3599
445.071	4538
445.143	5998
445.214	9540
445.285	15413
445.357	32635
445.428	71429
445.500	106452
445.571	94738
445.642	73142
445.714	35274
445.785	14928
445.856	6294
445.928	4369
445.999	2783
446.070	1594
446.141	2025
446.213	1737
446.284	486
446.355	976
446.426	818
446.497	588
446.569	127
446.640	-60
446.711	1317
446.782	106
446.853	-294
446.924	474
446.995	-64
447.066	-422
447.138	4
447.209	674
447.280	129
447.351	-175
447.422	-743
447.493	-482
447.564	-908
447.635	-889
447.706	147
447.777	265
447.847	29
447.918	-634
447.989	-712
448.060	-1133
448.131	-430
448.202	-377
448.273	-492
448.344	-420
448.414	-275
448.485	-234
448.556	787
448.627	-687
448.698	93
448.768	-285
448.839	-808
448.910	-830
448.981	-934
449.051	-306
449.122	-40
449.193	-517
449.263	-922
449.334	-512
449.405	727
449.475	-164
449.546	520
449.616	-319
449.687	1101
449.758	-380
449.828	-838
449.899	-997
449.969	-1037
450.040	-1085
450.110	-20
450.181	-209
450.251	-590
450.322	-9
450.392	12
450.463	-206
450.533	198
450.604	-39
450.674	-737
450.744	1150
450.815	-151
450.885	339
450.955	741
451.026	119
451.096	-167
451.166	403
451.237	554
451.307	1025
451.377	840
451.447	323
451.518	624
451.588	-50
451.658	192
451.728	-449
451.799	-830
451.869	32
451.939	-556
452.009	-65
452.079	-282
452.149	342
452.219	-538
452.289	-629
452.360	471
452.430	751
452.500	1672
452.570	2979
452.640	7219
452.710	18215
452.780	21982
452.850	14109
452.920	6770
452.990	3624
453.060	2466
453.129	1405
453.199	888
453.269	386
453.339	306
453.409	231
453.479	696
453.549	300
453.619	-359
453.688	-795
453.758	470
453.828	266
453.898	-750
453.968	-574
454.037	318
454.087	325
454.107	322
454.168	36
454.177	-12
454.247	-374
454.249	-363
454.316	-492
454.330	-456
454.386	-324
454.411	-601
454.456	-1158
454.492	-583
454.525	-78
454.574	240
454.595	361
454.655	-320
454.665	-452
454.734	-309
454.736	-275
454.804	496
454.817	368
454.873	-119
454.898	-68
454.943	-60
454.979	-7
455.013	19
455.060	322
455.082	434
455.141	17
455.152	-48
455.221	529
455.222	550
455.291	1297
455.303	1759
455.360	3379
455.384	5182
455.430	7760
455.465	6051
455.499	4608
455.546	1883
455.569	648
455.627	755
455.638	784
455.707	363
455.708	373
455.777	287
455.789	429
455.846	953
455.869	932
455.916	981
455.950	630
455.985	279
456.031	175
456.054	93
456.112	1124
456.124	1290
456.193	-105
456.193	-122
456.262	636
456.274	791
456.332	1465
456.355	1232
456.401	769
456.436	781
456.470	664
456.516	849
456.540	992
456.597	526
456.609	409
456.678	1455
456.678	1446
456.747	1335
456.759	1269
456.817	981
456.840	1140
456.886	1442
456.920	1607
456.955	1620
457.001	1646
457.024	1738
457.082	1668
457.093	1618
457.162	1548
457.163	1564
457.232	1868
457.243	1816
457.301	1549
457.324	1720
457.370	2101
457.405	2318
457.439	2469
457.485	3565
457.508	4133
457.566	3825
457.577	3939
457.646	6196
457.647	6243
457.715	13834
457.727	15807
457.784	30275
457.808	39794
457.853	50137
457.889	58207
457.922	57289
457.969	41216
457.991	42322
458.050	48032
458.060	49556
458.129	80078
458.130	81019
458.198	78863
458.211	73115
458.267	48338
458.292	34888
458.336	23321
458.372	20283
458.405	24569
458.453	35254
458.474	44306
458.533	79362
458.543	82000
458.611	119162
458.614	120017
458.680	80794
458.694	66307
458.749	36797
458.775	26718
458.818	16179
458.855	12444
458.887	9943
458.936	7346
458.955	6556
459.016	5787
459.024	5654
459.093	5217
459.097	5150
459.162	3891
459.177	3795
459.230	3750
459.257	3916
459.299	4020
459.338	3826
459.368	3717
459.418	3706
459.437	3618
459.499	3011
459.505	2986
459.574	3469
459.579	3436
459.643	2756
459.659	2928
459.711	3479
459.740	3431
459.780	3238
459.820	3039
459.849	3078
459.900	2998
459.917	2888
459.981	3620
459.986	3680
460.054	2700
460.061	2764
460.123	3226
460.141	3209
460.191	3448
460.222	3671
460.260	3605
460.302	3582
460.328	3720
460.382	3872
460.397	4005
460.462	4739
460.465	4926
460.534	9714
460.543	10371
460.602	28163
460.623	35223
460.671	55385
460.703	73566
460.739	66978
460.783	52102
460.808	44081
460.864	13432
460.876	10857
460.944	4726
460.945	4668
461.013	3922
461.024	3847
461.081	3378
461.104	3375
461.150	3176
461.184	2945
461.218	3038
461.264	2866
461.286	2700
461.345	2999
461.355	3083
461.423	2915
461.425	2913
461.491	2773
461.505	2839
461.559	2837
461.585	2792
461.628	3049
461.665	3266
461.696	3144
461.745	2648
461.764	2550
461.825	2679
461.832	2756
461.901	3435
461.905	3471
461.969	2866
461.985	2760
462.037	3663
462.065	4071
462.105	3465
462.145	2980
462.173	3131
462.225	2769
462.241	2557
462.305	2652
462.310	2711
462.378	3233
462.385	3338
462.446	3335
462.465	3252
462.514	3680
462.545	3732
462.582	3095
462.625	2732
462.650	3057
462.705	3303
462.718	3150
462.785	3062
462.786	3065
462.854	2823
462.865	2737
462.922	2600
462.945	2655
462.990	2823
463.025	2980
463.058	3087
463.104	3269
463.126	3311
463.184	3235
463.194	3245
463.262	3177
463.264	3181
463.330	2869
463.344	2798
463.398	3291
463.424	3391
463.466	2714
463.504	2404
463.533	3007
463.583	3703
463.601	3572
463.663	3199
463.669	3174
463.737	2932
463.743	2905
463.805	3416
463.823	3572
463.873	3583
463.903	3518
463.940	3184
463.982	2744
464.008	2768
464.062	3035
464.076	3113
464.142	3190
464.144	3183
464.211	3008
464.221	2970
464.279	3161
464.301	3235
464.347	2782
464.381	2404
464.414	2754
464.461	3223
464.482	3321
464.540	3634
464.550	3609
464.617	3182
464.620	3168
464.685	3242
464.699	3282
464.753	3537
464.779	3573
464.820	3321
464.859	3145
464.888	3071
464.938	2905
464.956	3160
465.018	4026
465.023	4042
465.091	4133
465.098	4146
465.158	3889
465.177	3815
465.226	3926
465.257	3968
465.293	3890
465.336	3764
465.361	3630
465.416	3226
465.428	3366
465.495	4206
465.496	4206
465.563	3010
465.575	2799
465.631	3547
465.654	3895
465.698	4321
465.734	4675
465.765	4241
465.813	3463
465.833	3639
465.893	4249
465.900	4240
465.968	3967
465.972	3939
466.035	4091
466.052	4162
466.102	3825
466.131	3622
466.170	3397
466.210	3110
466.237	3337
466.290	3823
466.304	3739
466.369	3256
466.372	3288
466.439	4141
466.449	4247
466.506	3885
466.528	3749
466.573	3823
466.607	3865
466.641	4175
466.687	4625
466.708	4343
466.766	3520
466.775	3599
466.842	4130
466.845	4150
466.909	4421
466.925	4482
466.977	4414
467.004	4374
467.044	4617
467.083	4832
467.111	4454
467.163	3741
467.178	3821
467.242	4125
467.245	4146
467.312	4495
467.321	4537
467.379	4142
467.400	3987
467.446	4088
467.480	4154
467.559	5581
467.638	4770
467.717	4704
467.796	5174
467.875	5547
467.955	5273
468.034	5448
468.113	7725
468.192	8489
468.271	11283
468.350	16205
468.429	23142
468.508	24710
468.588	15921
468.667	8915
468.746	7104
468.825	5558
468.904	5776
468.983	4884
469.062	5369
469.141	5542
469.220	4129
469.299	4680
469.378	4067
469.456	4094
469.535	4501
469.614	4055
469.693	3697
469.772	5120
469.851	4300
469.930	4390
470.009	4351
470.088	4532
470.166	4567
470.245	4879
470.324	4464
470.403	4555
470.482	5250
470.560	4601
470.639	4087
470.718	4678
470.797	4057
470.875	4134
470.954	3925
471.033	4567
471.111	4673
471.190	3511
471.269	3711
471.347	3996
471.426	5061
471.505	4063
471.583	3947
471.662	4289
471.740	4719
471.819	4078
471.898	3629
471.976	5088
472.055	4252
472.133	6338
472.212	7599
472.290	4925
472.369	3710
472.447	4488
472.526	4602
472.604	4413
472.683	4645
472.761	3928
472.839	4165
472.918	4998
472.996	4326
473.075	5477
473.153	4884
473.231	3702
473.310	5165
473.388	4214
473.466	5084
473.545	4795
473.623	5106
473.701	4373
473.780	4820
473.858	3683
473.936	6587
474.014	4121
474.093	5304
474.171	7171
474.249	5033
474.327	4791
474.405	4089
474.484	5102
474.562	5250
474.640	4953
474.718	4774
474.796	4744
474.874	4290
474.952	3936
475.030	4762
475.108	4298
475.187	4414
475.265	5992
475.343	4814
475.421	4917
475.499	3379
475.577	5211
475.655	3688
475.733	4065
475.811	4637
475.889	4746
475.966	4446
476.044	3383
476.122	4684
476.200	4385
476.278	5857
476.356	4844
476.434	4074
476.512	4050
476.590	5063
476.667	4088
476.745	4152
476.823	4206
476.901	3880
476.979	4398
477.056	4514
477.134	3923
477.212	3881
477.290	4229
477.367	4783
477.445	4654
477.523	3504
477.601	3920
477.678	4093
477.756	3508
477.834	4254
477.911	3863
477.989	4040
478.066	3854
478.144	4433
478.222	4275
478.299	6021
478.377	7662
478.454	6250
478.532	4167
478.609	4056
478.687	4600
478.764	3294
478.842	3721
478.919	4235
478.997	3843
479.074	4028
479.152	3791
479.229	4663
479.307	3635
479.384	5115
479.461	4664
479.539	4040
479.616	3950
479.694	3464
479.771	4800
479.848	4432
479.926	3327
480.003	4375
480.080	4133
480.157	4663
480.235	3674
480.312	4422
480.389	4466
480.467	3817
480.544	4935
480.621	5221
480.698	5009
480.775	5357
480.853	4446
480.930	5376
481.007	5439
481.084	7986
481.161	14315
481.238	8585
481.315	4121
481.392	4916
481.470	4994
481.547	3616
481.624	4249
481.701	4773
481.778	4043
481.855	4678
481.932	5195
482.009	5787
482.086	5999
482.163	7119
482.240	8437
482.317	9335
482.393	7504
482.470	6640
482.547	6587
482.624	6269
482.701	5900
482.778	6080
482.855	5103
482.932	6616
483.009	5881
483.085	9063
483.162	11721
483.239	12093
483.316	8333
483.393	8393
483.469	6739
483.546	6119
483.623	6236
483.699	5216
483.776	4221
483.853	3944
483.930	5114
484.006	5196
484.083	5943
484.160	5065
484.236	5618
484.313	5025
484.389	5356
484.466	7189
484.543	8232
484.619	10414
484.696	13349
484.772	8252
484.849	6005
484.925	4962
485.002	4784
485.078	5392
485.155	4230
485.231	4144
485.308	4167
485.384	3617
485.461	5000
485.537	4768
485.614	5556
485.690	4149
485.766	4621
485.843	4331
485.919	3804
485.995	4492
486.072	4621
486.148	3369
486.224	4103
486.301	4032
486.377	3902
486.453	3404
486.530	3819
486.606	5327
486.682	5000
486.758	4717
486.835	6244
486.911	6046
486.987	6419
487.063	6719
487.139	9094
487.215	13057
487.292	12877
487.368	12399
487.444	15923
487.520	22927
487.596	36573
487.672	78251
487.748	234884
487.824	360315
487.900	121993
487.976	36389
488.052	18561
488.128	13359
488.204	8413
488.280	7461
488.356	6460
488.432	6576
488.508	5715
488.584	5168
488.660	5100
488.736	5257
488.812	3642
488.888	4702
488.964	4258
489.039	4573
489.115	5550
489.191	6614
489.267	4502
489.343	3618
489.418	4375
489.494	4216
489.570	3420
489.646	4395
489.722	3796
489.797	3640
489.873	4262
489.949	4460
490.024	4819
490.100	3709
490.176	3938
490.251	4292
490.327	4430
490.403	3830
490.478	4842
490.554	4626
490.629	4255
490.705	4555
490.781	3946
490.856	3572
490.932	3843
491.007	3476
491.083	3545
491.158	3304
491.234	3910
491.309	4088
491.385	3228
491.460	2986
491.536	4069
491.611	2308
491.686	3361
491.762	3007
491.837	3464
491.913	4225
491.988	4285
492.063	3742
492.139	3972
492.214	3080
492.289	3839
492.365	2947
492.440	3508
492.515	2919
492.590	2772
492.666	2610
492.741	3037
492.816	2825
492.891	3148
492.967	2969
493.042	4012
493.117	3538
493.192	4851
493.267	6322
493.342	16137
493.418	20404
493.493	3938
493.568	2804
493.643	2434
493.718	3492
493.793	3045
493.868	2777
493.943	2919
494.018	2829
494.093	2936
494.168	3494
494.243	2243
494.318	3072
494.393	3624
494.468	3119
494.543	2372
494.618	1864
494.693	2347
494.768	2670
494.842	2366
494.917	3748
494.992	3237
495.067	2241
495.142	3026
495.217	3069
495.292	3452
495.366	2436
495.441	1455
495.516	3171
495.591	3513
495.665	3312
495.740	4013
495.815	3313
495.890	3104
495.964	2412
496.039	4630
496.114	6016
496.188	12936
496.263	8650
496.338	2548
496.412	2558
496.487	2892
496.561	3571
496.636	1943
496.710	3475
496.785	3942
496.860	3166
496.934	2509
497.009	2538
497.083	2468
497.158	2809
497.232	2599
497.307	3247
497.381	2582
497.455	2906
497.530	3010
497.604	2259
497.679	2263
497.753	3434
497.827	1814
497.902	2350
497.976	2146
498.050	3044
498.125	3444
498.199	2597
498.273	2171
498.348	2075
498.422	2509
498.496	2809
498.570	3376
498.645	2476
498.719	1798
498.793	2078
498.867	2121
498.941	3161
499.016	3291
499.090	2527
499.164	3513
499.238	4023
499.312	2987
499.386	3574
499.460	2915
499.534	2547
499.609	2922
499.683	2190
499.757	3192
499.831	2975
499.905	1411
499.979	2275
500.053	3060
500.127	2460
500.201	1971
500.275	3345
500.349	3421
500.422	2648
500.496	3439
500.570	2953
500.644	3353
500.718	2512
500.792	2784
500.866	3652
500.940	3152
501.013	4453
501.087	2902
501.161	2170
501.235	1926
501.309	4461
501.382	2325
501.456	4103
501.530	2607
501.603	1935
501.677	2503
501.751	2495
501.825	3772
501.898	2723
501.972	2449
502.046	2551
502.119	2460
502.193	3876
502.266	2475
502.340	2355
502.413	2841
502.487	3167
502.561	2740
502.634	4501
502.708	3806
502.781	1692
502.855	3319
502.928	2919
503.002	3489
503.075	1901
503.149	3198
503.222	3482
503.295	3298
503.369	3768
503.442	4095
503.516	4548
503.589	5002
503.662	6189
503.736	8145
503.809	10619
503.882	14702
503.956	22121
504.029	45829
504.102	134040
504.175	196901
504.249	73154
504.322	28125
504.395	13858
504.468	9412
504.542	6953
504.615	4443
504.688	4778
504.761	2569
504.834	5223
504.907	2957
504.980	3118
505.053	3723
505.127	248
505.200	5196
505.273	3010
505.346	1837
505.419	1645
505.492	4147
505.565	2128
505.638	3324
505.711	1634
505.784	1664
505.857	1643
505.930	4035
506.003	1291
506.076	4708
506.149	1820
506.221	463
506.294	4590
506.367	1088
506.440	1578
506.513	3077
506.586	1915
506.659	1380
506.731	2743
506.804	1388
506.877	1719
506.950	1655
507.022	2761
507.095	811
507.168	1975
507.241	2539
507.313	1679
507.386	1200
507.459	2549
507.531	2191
507.604	1409
507.677	3299
507.749	429
507.822	2574
507.894	1158
507.967	2752
508.040	961
508.112	2367
508.185	2021
508.257	882
508.330	3274
508.402	173
508.475	1573
508.547	2376
508.620	1175
508.692	1210
508.765	2002
508.837	756
508.909	2474
508.982	1991
509.054	2914
509.127	1140
509.199	2449
509.271	590
509.344	1584
509.416	1027
509.488	1151
509.560	2929
509.633	1477
509.705	1703
509.777	1965
509.849	1583
509.922	379
509.994	1368
510.066	2093
510.138	432
510.210	3740
510.283	961
510.355	1302
510.427	1993
510.499	2120
510.571	1799
510.643	278
510.715	2998
510.787	-254
510.859	2690
510.931	1384
511.003	1854
511.076	2517
511.148	799
511.219	350
511.291	2372
511.363	1824
511.435	1542
511.507	1410
511.579	2791
511.651	2168
511.723	1835
511.795	1736
511.867	1746
511.939	1710
512.010	565
512.082	2159
512.154	823
512.226	1937
512.298	2576
512.369	1331
512.441	2774
512.513	2020
512.585	176
512.656	2615
512.728	1465
512.800	1414
512.871	2925
512.943	3085
513.015	958
513.086	1918
513.158	1965
513.230	800
513.301	1739
513.373	2023
513.444	1952
513.516	2029
513.588	1989
513.659	1507
513.731	1781
513.802	-180
513.874	3111
513.945	1178
514.016	955
514.088	2756
514.159	253
514.231	3011
514.302	1773
514.374	2392
514.445	74
514.516	4080
514.588	1270
514.659	1173
514.730	448
514.802	3056
514.873	-283
514.944	3464
515.016	2772
515.087	1134
515.158	1440
515.229	1375
515.301	408
515.372	2379
515.443	1006
515.514	1671
515.585	2069
515.656	1921
515.728	3065
515.799	1252
515.870	1881
515.941	1779
516.012	221
516.083	2335
516.154	200
516.225	2701
516.296	3168
516.367	2526
516.438	2260
516.509	1776
516.580	1346
516.651	7063
516.722	11366
516.793	6059
516.864	3094
516.935	2767
517.006	3093
517.077	3571
517.148	5904
517.219	19491
517.289	26050
517.360	3623
517.431	3762
517.502	2614
517.573	3051
517.643	2636
517.714	2045
517.785	3382
517.856	2483
517.926	4606
517.997	4855
518.068	4898
518.138	7342
518.209	7033
518.280	17974
518.350	55411
518.421	21981
518.492	14675
518.562	17468
518.633	23897
518.703	38167
518.774	92360
518.845	232997
518.915	203075
518.986	58261
519.056	24098
519.127	15060
519.197	9464
519.268	7397
519.338	6385
519.408	4971
519.479	4095
519.549	3615
519.620	4627
519.690	3420
519.760	2650
519.831	3264
519.901	1851
519.971	1788
520.042	1707
520.112	1005
520.182	3434
520.253	2472
520.323	1264
520.393	1316
520.463	3816
520.534	351
520.604	4797
520.674	2847
520.744	1581
520.814	1001
520.885	2961
520.955	2181
521.025	980
521.095	1126
521.165	2906
521.235	1677
521.305	1251
521.375	1831
521.445	2751
521.515	1726
521.585	3393
521.655	-44
521.725	2548
521.795	3857
521.865	-217
521.935	3846
522.005	1418
522.075	1323
522.145	3661
522.215	1557
522.285	2674
522.355	2160
522.424	2886
522.494	2178
522.564	2535
522.634	2213
522.704	3563
522.774	1185
522.843	2877
522.913	2677
522.983	2194
523.053	1443
523.122	3474
523.192	1819
523.262	2416
523.331	1676
523.401	2723
523.471	2168
523.540	3439
523.610	1456
523.680	2857
523.749	3481
523.819	4781
523.888	3129
523.958	2451
524.027	2812
524.097	2103
524.166	2479
524.236	1653
524.305	4682
524.375	2466
524.444	1502
524.514	4693
524.583	2568
524.653	2183
524.722	3429
524.791	1139
524.861	5010
524.930	2830
524.999	2170
525.069	4353
525.138	2679
525.207	2963
525.277	4068
525.346	3955
525.415	4830
525.484	6240
525.554	5611
525.623	10334
525.692	13518
525.761	14163
525.830	17789
525.900	22701
525.969	36623
526.038	72483
526.107	144536
526.176	386715
526.245	282480
526.314	91313
526.383	201217
526.452	250177
526.522	345929
526.591	289577
526.660	56401
526.729	35165
526.797	37451
526.867	50232
526.935	141141
527.004	480936
527.073	286686
527.142	49384
527.211	22124
527.280	14954
527.349	10515
527.418	6849
527.487	8640
527.555	4322
527.624	5261
527.693	4094
527.762	6047
527.831	2937
527.899	5050
527.968	3615
528.037	2432
528.106	3908
528.174	3114
528.243	3896
528.312	4138
528.380	2559
528.449	2394
528.518	4891
528.586	1724
528.655	4145
528.723	2800
528.792	2502
528.861	2081
528.929	2231
528.998	3584
529.066	2541
529.135	2966
529.203	2278
529.272	1027
529.340	3062
529.409	3934
529.477	2006
529.545	1849
529.614	4554
529.682	515
529.751	2872
529.819	4666
529.887	3127
529.956	2092
530.024	4541
530.092	2423
530.161	3541
530.229	2625
530.297	3584
530.365	3996
530.434	3659
530.502	1736
530.570	3038
530.638	1227
530.707	3858
530.775	4834
530.843	2672
530.911	3322
530.979	3763
531.047	2515
531.115	3968
531.183	2669
531.252	2729
531.320	3286
531.388	2092
531.456	3934
531.524	1361
531.592	3874
531.660	5259
531.728	2508
531.796	1685
531.864	4325
531.932	2988
532.000	2112
532.067	3228
532.135	3476
532.203	5240
532.271	3594
532.339	5505
532.407	5626
532.475	4429
532.542	4309
532.610	5100
532.678	2742
532.746	6556
532.814	6234
532.881	5287
532.949	4869
533.017	4951
533.084	3898
533.152	3663
533.220	4429
533.287	3547
533.355	4764
533.423	4634
533.490	4047
533.558	4977
533.625	4906
533.693	4242
533.761	5096
533.828	5127
533.896	3006
533.963	5447
534.031	4752
534.098	8294
534.166	9437
534.233	7389
534.300	10534
534.368	9639
534.435	8945
534.503	11447
534.570	12031
534.637	12930
534.705	15394
534.772	19521
534.840	36543
534.907	165893
534.974	185562
535.041	25851
535.109	12510
535.176	9511
535.243	9869
535.310	9215
535.378	8156
535.445	8883
535.512	9665
535.579	9392
535.646	8168
535.714	9055
535.781	10326
535.848	10174
535.915	9998
535.982	8965
536.049	8856
536.116	9785
536.183	8279
536.250	8948
536.317	7769
536.384	8801
536.451	9739
536.518	10058
536.585	7729
536.652	10139
536.719	10318
536.786	8315
536.853	8941
536.920	10398
536.987	9246
537.053	7846
537.120	10609
537.187	11114
537.254	11628
537.321	10530
537.388	11323
537.454	9483
537.521	9746
537.588	9987
537.654	10276
537.721	11740
537.788	11614
537.855	11136
537.921	9835
537.988	10293
538.055	10920
538.121	8442
538.188	9380
538.254	9344
538.321	8358
538.388	10478
538.454	12115
538.521	11685
538.587	11773
538.654	10384
538.720	10686
538.787	11437
538.853	11711
538.920	10095
538.986	8930
539.053	9506
539.119	10943
539.185	9732
539.252	10819
539.318	10302
539.385	12793
539.451	10099
539.517	11834
539.583	12107
539.650	10115
539.716	10386
539.782	9696
539.849	10226
539.915	10557
539.981	9589
540.047	9963
540.114	10559
540.180	11187
540.246	10332
540.312	12129
540.378	11159
540.444	11747
540.510	10835
540.576	12586
540.643	10942
540.709	8829
540.775	11093
540.841	10177
540.907	10772
540.973	10732
541.039	9202
541.105	10684
541.171	11528
541.237	12019
541.303	12733
541.369	13061
541.435	11061
541.500	10331
541.566	9572
541.632	10690
541.698	10203
541.764	12884
541.830	10920
541.896	10343
541.961	11642
542.027	10639
542.093	12899
542.159	11568
542.224	10217
542.290	11267
542.356	10637
542.421	10801
542.487	10797
542.553	9352
542.618	11060
542.684	10479
542.750	10775
542.815	11895
542.881	10874
542.947	11590
543.012	12241
543.078	11163
543.143	10004
543.209	10600
543.274	10298
543.340	11322
543.405	11186
543.471	9877
543.536	11536
543.602	11276
543.667	10036
543.732	13244
543.798	10367
543.863	11766
543.928	11684
543.994	10749
544.059	12247
544.124	12910
544.190	12409
544.255	12603
544.320	12249
544.386	12823
544.451	13672
544.516	12763
544.581	12840
544.646	13153
544.712	13883
544.777	13242
544.842	13694
544.907	13455
544.972	13160
545.037	14890
545.102	15599
545.168	14556
545.233	15151
545.298	15246
545.363	14954
545.428	15746
545.493	15973
545.558	15892
545.623	16154
545.688	15604
545.753	17073
545.818	17944
545.883	17917
545.947	18226
546.012	20425
546.077	19181
546.142	23302
546.207	21594
546.272	24019
546.337	22726
546.401	25864
546.466	25686
546.531	25606
546.596	28148
546.661	30263
546.725	32767
546.790	32812
546.855	37261
546.919	38845
546.984	45850
547.049	47724
547.113	55101
547.178	60907
547.243	69010
547.307	79319
547.372	87125
547.436	86491
547.501	91950
547.565	99632
547.630	90461
547.695	86912
547.759	87966
547.823	89436
547.888	92601
547.952	93342
548.017	99112
548.081	103633
548.146	99555
548.210	101088
548.274	109262
548.339	106664
548.403	97108
548.468	92141
548.532	90018
548.596	92695
548.660	93356
548.725	101584
548.789	109792
548.853	106203
548.917	102275
548.982	99563
549.046	89798
549.110	83182
549.174	84924
549.238	97743
549.303	107921
549.367	110946
549.431	104102
549.495	99636
549.559	99541
549.623	114832
549.687	123499
549.751	122117
549.815	143436
549.879	146945
549.943	141044
550.007	147197
550.071	143151
550.135	130542
550.199	125063
550.263	123081
550.327	115863
550.391	120559
550.455	134685
550.519	138713
550.582	148593
550.646	163841
550.710	168123
550.774	166052
550.838	166393
550.901	172017
550.965	181381
551.029	186564
551.093	197019
551.156	213206
551.220	229894
551.284	239946
551.347	198299
551.411	176515
551.475	172020
551.538	177898
551.602	167660
551.666	160124
551.729	151377
551.793	147808
551.856	144992
551.920	144228
551.983	144612
552.047	141658
552.110	142894
552.174	146419
552.237	148708
552.301	138894
552.364	133067
552.428	130097
552.491	134782
552.554	134923
552.618	134764
552.681	137815
552.745	130965
552.808	134655
552.871	141716
552.934	139363
552.998	135243
553.061	133720
553.124	129441
553.187	129116
553.251	134620
553.314	133487
553.377	133936
553.440	144456
553.503	158262
553.567	162775
553.630	144894
553.693	143546
553.756	146692
553.819	143043
553.882	138092
553.945	139278
554.008	139317
554.071	139533
554.134	141438
554.197	133959
554.260	132033
554.323	133986
554.386	135628
554.449	139170
554.512	140240
554.575	136073
554.638	134062
554.701	132654
554.764	131026
554.827	127194
554.889	123321
554.952	117573
555.015	115768
555.078	115950
555.141	118159
555.203	115869
555.266	115506
555.329	114056
555.391	109582
555.454	108915
555.517	105070
555.580	101774
555.642	97650
555.705	96388
555.768	97707
555.830	93093
555.893	89624
555.955	88421
556.018	85624
556.080	84854
556.143	87745
556.206	86112
556.268	83395
556.330	83055
556.393	80494
556.455	78639
556.518	77514
556.580	74567
556.643	72806
556.705	70639
556.767	68971
556.830	69393
556.892	67148
556.955	66332
557.017	62957
557.079	64844
557.142	61489
557.204	60771
557.266	60700
557.328	56834
557.391	53399
557.453	54084
557.515	53848
557.577	53504
557.639	53167
557.701	54530
557.764	53612
557.826	54510
557.888	54863
557.950	58127
558.012	59887
558.074	73119
558.136	133598
558.198	257265
558.260	105359
558.322	57127
558.384	57106
558.446	58266
558.508	62369
558.570	69004
558.632	76646
558.694	93295
558.756	144262
558.818	322604
558.880	558278
558.942	277177
559.003	283795
559.065	142752
559.127	71746
559.189	67251
559.251	74299
559.312	98401
559.374	193925
559.436	441838
559.498	236381
559.559	81232
559.621	68184
559.683	75527
559.744	112545
559.806	272015
559.868	343582
559.929	105430
559.991	75082
560.052	108302
560.114	257718
560.176	162862
560.237	161367
560.299	223155
560.360	61675
560.422	33142
560.483	29969
560.545	27208
560.606	26283
560.667	25625
560.729	24340
560.790	22945
560.852	22740
560.913	21131
560.974	21680
561.036	21850
561.097	22381
561.158	21455
561.220	20365
561.281	19851
561.342	19889
561.403	20306
561.465	20212
561.526	19570
561.587	20287
561.648	17539
561.709	18381
561.771	17069
561.832	17920
561.893	17987
561.954	16949
562.015	16640
562.076	17718
562.137	17408
562.198	16065
562.259	16297
562.320	17419
562.381	16740
562.442	17202
562.503	16345
562.564	16155
562.625	15952
562.686	15216
562.747	14405
562.808	15493
562.869	15063
562.930	14771
562.991	14745
563.051	14047
563.112	14824
563.173	14201
563.234	13350
563.294	14826
563.355	14488
563.416	15193
563.477	14443
563.537	13901
563.598	14247
563.659	14079
563.720	13195
563.780	13949
563.841	13558
563.901	14685
563.962	13830
564.023	13577
564.083	12898
564.144	13351
564.204	12437
564.265	13860
564.325	13616
564.386	13504
564.446	13439
564.507	12932
564.567	12365
564.628	13516
564.688	13079
564.749	12049
564.809	13243
564.869	12995
564.930	12622
564.990	13856
565.050	11584
565.111	12772
565.171	12523
565.231	12948
565.292	14239
565.352	11739
565.412	13427
565.472	12951
565.532	12904
565.593	12310
565.653	13519
565.713	12603
565.773	13555
565.833	13274
565.893	14995
565.953	13307
566.013	12099
566.074	12636
566.134	12469
566.194	10774
566.254	12321
566.314	12643
566.374	12195
566.434	11800
566.494	12075
566.554	11220
566.614	11747
566.673	12738
566.733	13969
566.793	12822
566.853	13063
566.913	13245
566.973	12554
567.033	12515
567.092	12999
567.152	12823
567.212	13044
567.272	13872
567.331	13849
567.391	13643
567.451	14744
567.511	14223
567.570	14487
567.630	13940
567.690	13649
567.749	12775
567.809	13924
567.868	14143
567.928	13965
567.988	13045
568.047	13011
568.107	13787
568.166	13367
568.226	13660
568.285	13066
568.345	13568
568.404	14644
568.464	13499
568.523	13503
568.582	14061
568.642	14034
568.701	14037
568.761	11730
568.820	12746
568.879	12712
568.939	12770
568.998	14514
569.057	13502
569.116	13658
569.176	13666
569.235	13798
569.294	13879
569.353	12524
569.413	13780
569.472	12616
569.531	13395
569.590	12875
569.649	14359
569.708	13056
569.767	14447
569.827	13655
569.886	13261
569.945	13229
570.004	13790
570.063	13603
570.122	14060
570.181	14591
570.240	14060
570.299	14468
570.358	15192
570.417	15526
570.475	14864
570.534	14720
570.593	14535
570.652	14758
570.711	14764
570.770	14259
570.829	14455
570.887	14577
570.946	15377
571.005	14611
571.064	14904
571.122	15216
571.181	14093
571.240	13892
571.299	13917
571.357	14398
571.416	13451
571.475	14221
571.533	14643
571.592	14876
571.650	16133
571.709	16898
571.768	18140
571.826	18124
571.885	17097
571.943	16198
572.002	15162
572.060	14502
572.119	15065
572.177	15187
572.236	15444
572.294	15356
572.352	16829
572.411	16509
572.469	15060
572.528	15262
572.586	14257
572.644	14507
572.703	14565
572.761	14886
572.819	13635
572.877	14121
572.936	12754
572.994	13551
573.052	13046
573.110	13767
573.169	14573
573.227	15142
573.285	14774
573.343	14603
573.401	13931
573.459	15081
573.517	14758
573.576	14667
573.634	14706
573.692	15133
573.750	14416
573.808	14303
573.866	14386
573.924	13875
573.982	13671
574.040	14201
574.098	13764
574.155	13002
574.213	13820
574.271	13598
574.329	14677
574.387	14281
574.445	13882
574.503	13554
574.560	12597
574.618	12502
574.676	12305
574.734	13069
574.792	12437
574.849	13114
574.907	11045
574.965	11049
575.022	10635
575.080	11801
575.138	11441
575.195	10389
575.253	11324
575.311	11481
575.368	11819
575.426	9869
575.483	12089
575.541	12774
575.598	11685
575.656	11077
575.713	12130
575.771	12061
575.828	12476
575.886	10936
575.943	11383
576.001	9704
576.058	9891
576.115	10557
576.173	11068
576.230	12228
576.287	11945
576.345	11808
576.402	10858
576.459	12170
576.517	10733
576.574	11654
576.631	11426
576.688	10243
576.746	10880
576.803	10191
576.860	10246
576.917	11118
576.974	11196
577.031	11488
577.089	10997
577.146	10208
577.203	10374
577.260	10594
577.317	10575
577.374	10594
577.431	10618
577.488	10879
577.545	10024
577.602	10482
577.659	10592
577.716	11135
577.773	11091
577.830	10850
577.886	10712
577.943	9932
578.000	9418
578.057	9727
578.114	10245
578.171	10034
578.227	9859
578.284	10172
578.341	10715
578.398	10274
578.454	10130
578.511	10387
578.568	10263
578.625	11044
578.681	9602
578.738	11476
578.794	10528
578.851	11204
578.908	10589
578.964	10881
579.021	11027
579.077	10892
579.134	10663
579.190	12041
579.247	10258
579.303	10643
579.360	10241
579.416	11278
579.473	10902
579.529	10507
579.586	10827
579.642	10931
579.698	11842
579.755	10878
579.811	10545
579.867	11494
579.924	10927
579.980	10903
580.036	11692
580.093	11696
580.149	12255
580.205	12007
580.261	11305
580.317	12521
580.374	12604
580.430	11856
580.486	12378
580.542	12302
580.598	12070
580.619	12250
580.654	12578
580.692	11981
580.710	11704
580.765	12147
580.767	12176
580.823	12384
580.838	12507
580.879	12880
580.911	12819
580.935	12807
580.984	12731
580.991	12734
581.047	12475
581.057	12563
581.103	13055
581.130	12561
581.159	12068
581.203	11844
581.215	11789
581.270	11427
581.276	11456
581.326	11885
581.349	11606
581.382	11202
581.422	11884
581.438	12179
581.494	11493
581.494	11487
581.550	11916
581.567	11680
581.606	11103
581.640	11509
581.661	11801
581.713	12137
581.717	12169
581.773	11956
581.786	11902
581.829	11778
581.859	11719
581.885	11697
581.932	11551
581.940	11528
581.996	12181
582.004	12169
582.052	12029
582.077	11903
582.107	11883
582.150	11895
582.163	11859
582.219	11476
582.223	11430
582.274	11106
582.296	11164
582.330	11173
582.368	11760
582.386	12126
582.441	12594
582.441	12598
582.497	11315
582.514	11409
582.552	11755
582.587	12164
582.608	12388
582.659	11684
582.663	11621
582.719	11444
582.732	11523
582.774	11922
582.805	11910
582.830	11987
582.877	12403
582.885	12420
582.941	11480
582.950	11394
582.996	11027
583.023	11045
583.052	11291
583.095	11960
583.107	12085
583.162	11267
583.168	11309
583.218	11493
583.240	10997
583.273	10396
583.313	11170
583.328	11491
583.384	11481
583.385	11438
583.439	10002
583.458	10640
583.494	11930
583.531	11293
583.549	11011
583.603	11011
583.605	10999
583.660	11453
583.676	11429
583.715	11588
583.748	11375
583.770	11177
583.820	11701
583.825	11757
583.881	11754
583.893	11612
583.936	11059
583.965	11054
583.991	11083
584.038	11945
584.046	12072
584.101	11751
584.110	11779
584.156	12017
584.183	12053
584.211	11999
584.255	12353
584.266	12506
584.321	11956
584.328	12010
584.376	11929
584.400	12071
584.431	12705
584.472	12857
584.486	12711
584.541	12236
584.545	12291
584.596	13372
584.617	13254
584.651	13364
584.689	13871
584.706	13921
584.761	14682
584.762	14687
584.816	14557
584.834	14605
584.871	14917
584.906	15556
584.926	15751
584.978	16641
584.980	16697
585.035	18526
585.051	19230
585.090	20622
585.123	21646
585.145	22440
585.195	24303
585.200	24476
585.254	27814
585.267	28886
585.309	32176
585.340	34551
585.364	36696
585.412	42695
585.419	43554
585.473	51674
585.484	54580
585.528	68457
585.556	83466
585.583	103669
585.628	155983
585.637	170224
585.692	303259
585.700	323558
585.747	402913
585.772	345982
585.801	248032
585.845	125983
585.856	103566
585.910	57373
585.917	54132
585.965	40394
585.989	36248
586.019	32151
586.061	28282
586.074	27301
586.128	25365
586.133	25264
586.183	23746
586.205	23190
586.237	22553
586.277	22381
586.292	22284
586.346	21898
586.349	21896
586.401	22037
586.421	22194
586.455	22034
586.493	22043
586.509	22145
586.564	21593
586.565	21627
586.618	22523
586.637	23130
586.672	25126
586.709	27603
586.727	28507
586.781	31395
586.781	31370
586.835	26643
586.853	25856
586.889	24177
586.925	22700
586.944	22219
586.996	21723
586.998	21702
587.052	22328
587.068	22341
587.106	22417
587.140	22465
587.161	22228
587.212	22013
587.215	22014
587.269	22365
587.284	22424
587.323	22252
587.356	22801
587.377	23322
587.427	23983
587.431	24044
587.485	24849
587.499	25140
587.539	25251
587.571	25741
587.593	26277
587.643	27136
587.648	27178
587.702	27508
587.715	27676
587.755	28201
587.786	28461
587.810	28472
587.858	28633
587.864	28601
587.917	28601
587.930	28473
587.971	27786
588.001	27396
588.025	27332
588.073	27887
588.079	27873
588.133	26566
588.145	26637
588.187	27288
588.217	27302
588.241	27209
588.288	27608
588.295	27674
588.348	28004
588.360	28129
588.402	27602
588.431	27308
588.456	27567
588.503	27860
588.510	27908
588.564	29442
588.575	29751
588.617	30493
588.646	30577
588.671	30459
588.718	30990
588.725	31159
588.778	33304
588.789	33932
588.832	38018
588.861	42072
588.886	51740
588.932	74614
588.939	77112
588.993	99874
589.004	97791
589.047	57821
589.075	38492
589.100	33563
589.147	29589
589.154	29379
589.207	28552
589.218	28417
589.261	28889
589.290	29521
589.314	29490
589.361	29435
589.368	29706
589.421	32986
589.433	33901
589.475	41057
589.504	47464
589.528	56727
589.576	79241
589.582	78185
589.635	50430
589.647	45267
589.689	33897
589.718	29061
589.742	29186
589.790	29747
589.795	29702
589.849	29408
589.861	29328
589.902	29023
589.932	29069
589.955	28804
590.004	27951
590.009	27944
590.062	28456
590.075	28646
590.115	28356
590.146	27891
590.168	27940
590.218	28516
590.222	28508
590.275	28996
590.289	29056
590.328	29779
590.360	30488
590.381	30578
590.431	30896
590.435	30903
590.488	31466
590.503	31616
590.541	31305
590.574	31370
590.594	31756
590.645	32612
590.647	32614
590.700	33760
590.716	34074
590.753	34561
590.787	35206
590.806	35643
590.859	36983
590.859	36949
590.912	36976
590.930	37099
590.965	37602
591.001	37943
591.018	37841
591.071	37794
591.072	37829
591.124	36364
591.143	35798
591.177	36198
591.214	37087
591.230	37235
591.283	37601
591.285	37650
591.336	37466
591.356	37483
591.389	37078
591.427	36570
591.442	36480
591.495	36426
591.498	36460
591.547	36654
591.569	36881
591.600	37480
591.640	38239
591.653	38196
591.706	38161
591.711	38210
591.759	39647
591.782	40457
591.811	40471
591.853	40580
591.864	40715
591.917	41574
591.924	41730
591.969	41588
591.995	41636
592.022	41908
592.066	42527
592.075	42541
592.127	42923
592.137	43039
592.180	43563
592.208	44012
592.233	44260
592.279	44869
592.285	45056
592.338	47169
592.350	47673
592.390	46455
592.421	45685
592.443	46292
592.491	47821
592.495	47796
592.548	48284
592.562	48477
592.600	48142
592.633	47974
592.653	48306
592.704	49057
592.705	49334
592.775	49261
592.846	50372
592.916	50776
592.987	51519
593.058	52543
593.128	53093
593.199	54689
593.270	53724
593.341	53827
593.411	56177
593.482	57970
593.553	59993
593.623	60278
593.694	62909
593.764	65070
593.835	62552
593.906	63385
593.976	65094
594.047	67116
594.117	70076
594.188	72378
594.258	71369
594.329	72836
594.399	74351
594.470	76837
594.540	78435
594.611	80419
594.681	79704
594.751	80972
594.822	82134
594.892	85972
594.963	87515
595.033	89742
595.103	93959
595.174	94033
595.244	96386
595.314	98745
595.384	99985
595.455	104992
595.525	108093
595.595	112510
595.665	110498
595.736	109632
595.806	110930
595.876	112214
595.946	113398
596.016	119408
596.087	121720
596.157	122372
596.227	122514
596.297	130537
596.367	137134
596.437	144010
596.507	142998
596.577	142686
596.647	147902
596.717	155280
596.787	157559
596.857	156392
596.927	156937
596.997	157992
597.067	161083
597.137	162239
597.207	162395
597.277	162829
597.347	156223
597.417	152542
597.487	154375
597.557	156784
597.626	160659
597.696	163294
597.766	162137
597.836	152323
597.906	143929
597.975	143458
598.045	144554
598.115	151528
598.185	160709
598.254	179386
598.324	191272
598.394	196224
598.464	189884
598.533	185369
598.603	174824
598.672	168222
598.742	173388
598.812	173104
598.881	179245
598.951	175825
599.020	180337
599.090	186975
599.159	188006
599.229	181717
599.299	179658
599.368	183982
599.437	178314
599.507	165339
599.576	160082
599.646	160519
599.715	157044
599.785	155096
599.854	150673
599.924	150033
599.993	148983
600.062	153291
600.132	156429
600.201	165638
600.270	189576
600.340	197846
600.409	194798
600.478	193471
600.547	196622
600.617	178404
600.686	144402
600.755	131812
600.824	124644
600.894	122514
600.963	122834
601.032	122045
601.101	115685
601.170	111123
601.239	106984
601.308	106848
601.378	107173
601.447	106845
601.516	106240
601.585	109250
601.654	110851
601.723	111283
601.792	113216
601.861	117511
601.930	120827
601.999	122641
602.068	122381
602.137	121246
602.206	125170
602.275	126946
602.343	126919
602.412	127584
602.481	129769
602.550	131589
602.619	132612
602.688	134825
602.756	136346
602.825	138079
602.894	140095
602.963	144243
603.032	144791
603.100	146719
603.169	146131
603.238	147029
603.307	147791
603.375	151852
603.444	151199
603.513	155603
603.581	156019
603.650	157237
603.719	156738
603.787	160867
603.856	166370
603.924	169522
603.993	174328
604.061	181112
604.130	188707
604.198	190400
604.267	193930
604.335	197943
604.404	201205
604.472	203819
604.541	205395
604.609	206336
604.678	207645
604.746	205512
604.815	213277
604.883	214549
604.951	217997
605.020	220080
605.088	225030
605.156	230320
605.225	230758
605.293	231720
605.361	233170
605.429	234140
605.498	242318
605.566	244862
605.634	256098
605.702	264678
605.771	270019
605.839	273672
605.907	268534
605.975	258445
606.043	255641
606.111	257777
606.180	255017
606.248	255425
606.316	254170
606.384	250998
606.452	254786
606.520	261803
606.588	269790
606.656	271339
606.724	268059
606.792	255016
606.860	232193
606.928	213858
606.996	208003
607.064	203248
607.132	206293
607.200	218790
607.267	226214
607.335	229622
607.403	233263
607.471	227768
607.539	220920
607.607	220397
607.674	196529
607.742	194606
607.810	193240
607.878	194331
607.946	198842
608.013	207701
608.081	209927
608.149	212025
608.216	220223
608.284	227568
608.352	225779
608.419	223607
608.487	221072
608.555	215503
608.622	224842
608.690	235861
608.757	257899
608.825	262187
608.893	254008
608.960	238930
609.028	233701
609.095	234082
609.163	230948
609.230	210270
609.298	195102
609.365	204854
609.432	219727
609.500	237669
609.567	267941
609.635	298535
609.702	310685
609.769	294931
609.837	235103
609.904	205916
609.971	206995
610.039	218170
610.106	238792
610.173	316309
610.241	486151
610.308	356931
610.375	240408
610.442	221587
610.509	214355
610.577	217378
610.644	219817
610.711	226109
610.778	228493
610.845	240800
610.912	253690
610.980	260791
611.047	259304
611.114	255784
611.181	250379
611.248	249412
611.315	262653
611.382	269659
611.449	275865
611.516	280699
611.583	274869
611.650	277984
611.717	280664
611.784	283245
611.851	289166
611.918	293692
611.984	310401
612.051	352938
612.118	456529
612.185	669358
612.252	535800
612.319	358627
612.386	335864
612.452	316376
612.519	306291
612.586	304302
612.653	309801
612.719	319404
612.786	311852
612.853	291466
612.919	288326
612.986	293934
613.053	279689
613.120	266461
613.186	257466
613.253	259876
613.319	259787
613.386	260448
613.453	263361
613.519	265000
613.586	259200
613.652	263379
613.719	259343
613.785	265322
613.852	264579
613.918	264460
613.985	266881
614.051	278724
614.118	277092
614.184	264661
614.250	262547
614.317	271741
614.383	268295
614.449	271524
614.516	270256
614.582	273645
614.648	265515
614.715	266105
614.781	259803
614.847	262174
614.914	259132
614.980	255307
615.046	257943
615.112	263222
615.179	264710
615.245	268014
615.311	260169
615.377	266369
615.443	268832
615.509	269977
615.575	274729
615.642	273788
615.708	278870
615.774	285871
615.840	292245
615.906	294907
615.972	313268
616.038	362928
616.104	503298
616.170	714681
616.236	632405
616.302	409899
616.368	366098
616.434	314372
616.500	299936
616.565	312322
616.631	345122
616.697	319203
616.763	316334
616.829	375863
616.895	500577
616.961	474380
617.026	326061
617.092	284044
617.158	278796
617.224	274260
617.289	258874
617.355	250793
617.421	248900
617.487	249269
617.552	236318
617.618	237229
617.684	237042
617.749	240531
617.815	232000
617.880	227069
617.946	227654
618.012	230222
618.077	235921
618.143	230529
618.208	231727
618.274	244231
618.339	244289
618.405	209546
618.470	210829
618.536	210267
618.601	207287
618.667	195469
618.732	188939
618.798	186101
618.863	184419
618.928	184675
618.994	186656
619.059	183277
619.124	181984
619.190	184345
619.255	184456
619.320	184929
619.386	184580
619.451	183268
619.516	180897
619.581	183517
619.647	189284
619.712	189752
619.777	181349
619.842	184577
619.907	186569
619.972	187722
620.038	188502
620.103	183588
620.168	181925
620.233	188140
620.298	187347
620.363	188830
620.428	193356
620.493	195608
620.558	198260
620.623	200641
620.688	200850
620.753	197749
620.818	202330
620.883	205336
620.948	204063
621.013	201481
621.078	200257
621.143	200537
621.207	204443
621.272	201309
621.337	195890
621.402	194329
621.467	192590
621.532	193139
621.596	193952
621.661	190338
621.726	189028
621.791	189643
621.855	190967
621.920	188181
621.985	190421
622.049	193789
622.114	193443
622.179	195499
622.243	198756
622.308	202816
622.373	211691
622.437	206431
622.502	198220
622.566	197576
622.631	196151
622.695	199276
622.760	199560
622.824	200246
622.889	199560
622.953	199829
623.018	209368
623.082	210972
623.147	209140
623.211	205119
623.276	206358
623.340	199877
623.404	197187
623.469	193948
623.533	197777
623.597	195068
623.662	194406
623.726	181603
623.790	173977
623.854	170411
623.919	173259
623.983	174055
624.047	176053
624.111	179010
624.176	181109
624.240	182967
624.304	185171
624.368	180963
624.432	181153
624.496	183388
624.560	191948
624.625	189179
624.689	192215
624.753	198431
624.817	188669
624.881	185784
624.945	173291
625.009	168207
625.073	172931
625.137	174730
625.201	180286
625.265	180185
625.329	174787
625.393	176114
625.456	177279
625.520	182873
625.584	181307
625.648	185558
625.712	188500
625.776	185612
625.839	176595
625.903	155197
625.967	146244
626.031	156512
626.095	176850
626.158	165881
626.222	138533
626.286	132407
626.349	127579
626.413	118942
626.477	119372
626.540	121043
626.604	119224
626.668	118826
626.731	115888
626.795	114288
626.858	114999
626.922	112298
626.986	111862
627.049	110899
627.113	114224
627.176	112131
627.240	109846
627.303	110101
627.366	107127
627.430	108121
627.493	105980
627.557	105043
627.620	107272
627.684	110847
627.747	109313
627.810	99383
627.874	91774
627.937	89800
628.000	93157
628.064	89516
628.127	80790
628.190	81252
628.253	79480
628.317	75798
628.380	72717
628.443	70372
628.506	69767
628.569	67959
628.632	64276
628.696	65991
628.759	65167
628.822	61123
628.885	60958
628.948	60018
629.011	59126
629.074	55825
629.137	54797
629.200	53347
629.263	53998
629.326	51633
629.389	51669
629.452	51252
629.515	50203
629.578	50907
629.641	51455
629.704	50580
629.767	48854
629.830	49126
629.892	47446
629.955	47340
630.018	48729
630.081	46742
630.144	46703
630.207	44653
630.269	47306
630.332	43725
630.395	43924
630.458	42483
630.520	40408
630.583	42513
630.646	42412
630.708	42502
630.771	43161
630.834	45188
630.896	43195
630.959	43602
631.021	41342
631.084	41487
631.146	42784
631.209	42811
631.272	41021
631.334	42570
631.397	41302
631.459	40076
631.522	42228
631.584	42868
631.646	43543
631.709	44494
631.771	43478
631.834	43267
631.896	42120
631.958	40001
632.021	40776
632.083	38622
632.145	39133
632.208	38832
632.270	39480
632.332	38475
632.395	38195
632.457	40518
632.519	38555
632.581	40153
632.643	37257
632.706	38892
632.768	36488
632.830	39041
632.892	39321
632.954	38988
633.016	39878
633.078	39412
633.141	38993
633.203	37214
633.265	38889
633.327	39229
633.389	37520
633.451	38300
633.513	37687
633.575	39610
633.637	37759
633.698	37918
633.760	41370
633.822	42256
633.884	41681
633.946	41734
634.008	41276
634.070	41317
634.132	40640
634.193	43202
634.255	44438
634.317	45698
634.379	45896
634.441	42231
634.502	40016
634.564	39636
634.626	37378
634.687	37096
634.749	36233
634.811	35935
634.873	36005
634.934	36756
634.996	36446
635.057	35341
635.119	36647
635.181	37347
635.242	37160
635.304	34752
635.365	39455
635.427	36370
635.488	35671
635.550	35686
635.611	36154
635.673	34208
635.734	37539
635.796	37495
635.857	39455
635.918	39314
635.980	42530
636.041	41384
636.102	45058
636.164	44035
636.225	43908
636.286	38917
636.348	37274
636.409	36596
636.470	34828
636.531	36085
636.593	34714
636.654	34729
636.715	34195
636.776	35310
636.838	33202
636.899	34543
636.960	32781
637.021	33401
637.082	33416
637.143	32809
637.204	31466
637.265	31633
637.326	32828
637.387	33297
637.448	31625
637.509	33047
637.570	32715
637.631	32503
637.692	30786
637.753	30470
637.814	31036
637.875	31295
637.936	31437
637.997	30083
638.058	30023
638.119	30896
638.179	31764
638.240	30590
638.301	30180
638.362	29661
638.423	29064
638.483	31622
638.544	28244
638.605	30473
638.666	28012
638.726	30381
638.787	29651
638.848	30613
638.908	29111
638.969	28916
639.030	27414
639.090	27367
639.151	27688
639.211	29867
639.272	29518
639.332	28611
639.393	27997
639.453	29311
639.514	29142
639.574	28147
639.635	26857
639.695	28623
639.756	26241
639.816	26954
639.877	26456
639.937	27783
639.997	26181
640.058	25759
640.118	26255
640.178	26995
640.239	26439
640.299	26961
640.359	26482
640.420	28000
640.480	28679
640.540	30001
640.600	29612
640.661	29421
640.721	28121
640.781	30855
640.841	29774
640.901	28370
640.961	27223
641.021	27079
641.082	27259
641.142	27195
641.202	27344
641.262	24856
641.322	26752
641.382	25623
641.442	26089
641.502	26068
641.562	26639
641.622	25526
641.682	26790
641.742	27605
641.802	27051
641.861	26391
641.921	24801
641.981	24086
642.041	23783
642.101	23747
642.161	23576
642.221	23925
642.280	24055
642.340	23559
642.400	22734
642.460	25280
642.519	24584
642.579	25687
642.639	25648
642.698	22809
642.758	26826
642.818	24940
642.877	23351
642.937	25143
642.997	24959
643.056	24756
643.116	22296
643.175	26133
643.235	25205
643.294	25841
643.354	25717
643.414	27430
643.473	28461
643.532	31202
643.592	35375
643.651	45091
643.711	63430
643.770	103141
643.830	205010
643.889	330341
643.948	122731
644.008	47877
644.067	33762
644.126	29214
644.186	26641
644.245	26181
644.304	22464
644.363	26229
644.423	22240
644.482	24112
644.541	25122
644.600	23097
644.659	27499
644.719	28757
644.778	36897
644.837	51493
644.896	88210
644.955	162252
645.014	66899
645.073	31716
645.132	26490
645.191	26197
645.250	23865
645.309	27457
645.368	26554
645.427	30431
645.486	43079
645.545	61635
645.604	28515
645.663	24086
645.722	21930
645.781	24294
645.840	23898
645.898	26327
645.957	32940
646.016	40803
646.075	59125
646.134	97662
646.192	208270
646.251	259343
646.310	72491
646.369	36572
646.427	32345
646.486	25904
646.545	23730
646.603	24069
646.662	21412
646.721	21842
646.779	19927
646.838	21187
646.896	23093
646.955	26865
647.014	34708
647.072	55407
647.131	121005
647.189	63221
647.248	22547
647.306	20299
647.365	20035
647.423	17072
647.481	19484
647.540	17188
647.598	18194
647.657	18112
647.715	18967
647.773	16741
647.832	17513
647.890	16124
647.948	15505
648.007	16718
648.065	15021
648.123	15639
648.181	16176
648.240	16048
648.298	14524
648.356	15070
648.414	14797
648.472	14717
648.531	14057
648.589	14148
648.647	13475
648.705	13815
648.763	13452
648.821	14511
648.879	13373
648.937	15480
648.995	16316
649.053	16349
649.111	21618
649.169	30709
649.227	46077
649.285	84885
649.343	192310
649.401	99580
649.459	26453
649.516	18971
649.574	15514
649.632	17362
649.690	18012
649.748	20665
649.806	23168
649.863	39929
649.921	89031
649.979	59678
650.037	16075
650.094	12418
650.152	13173
650.210	10830
650.268	12934
650.325	12590
650.383	12819
650.440	10375
650.498	10251
650.556	10831
650.613	10322
650.671	10573
650.728	10397
650.786	10747
650.843	12505
650.901	8503
650.958	9292
651.016	8851
651.073	9583
651.131	9111
651.188	8315
651.246	8426
651.303	7313
651.360	8841
651.418	8296
651.475	8475
651.532	7091
651.590	8601
651.647	7738
651.704	9097
651.762	7742
651.819	8324
651.876	7272
651.933	8664
651.990	8245
652.048	6999
652.105	8067
652.162	8600
652.219	6812
652.276	7738
652.333	6835
652.390	6617
652.448	7179
652.505	7639
652.562	7395
652.619	6642
652.676	7289
652.733	7962
652.790	6083
652.847	4863
652.904	7152
652.961	5280
653.017	6994
653.074	6978
653.131	6016
653.188	5512
653.245	6656
653.302	6975
653.359	5966
653.415	6617
653.472	5852
653.529	6999
653.586	6110
653.642	5575
653.699	6640
653.756	5440
653.813	6261
653.869	6879
653.926	5907
653.983	5905
654.039	6604
654.096	6502
654.152	6923
654.209	4751
654.266	6188
654.322	4940
654.379	6265
654.435	6808
654.492	5945
654.548	5625
654.605	5051
654.661	7079
654.717	6564
654.774	5679
654.830	5678
654.887	5721
654.943	6256
655.000	6440
655.056	5931
655.112	5325
655.168	4638
655.225	5604
655.281	5400
655.337	6007
655.394	4805
655.450	5647
655.506	5433
655.562	4565
655.618	6037
655.675	4316
655.731	5222
655.787	5528
655.843	6198
655.899	5160
655.955	5972
656.011	5606
656.067	4704
656.123	5019
656.179	5012
656.235	7354
656.291	3823
656.347	6949
656.403	4305
656.459	5137
656.515	5016
656.571	5447
656.627	5132
656.683	6195
656.739	5423
656.795	5706
656.850	4807
656.906	5549
656.962	6000
657.018	5875
657.074	6597
657.129	9382
657.185	12165
657.241	26396
657.297	14517
657.352	6611
657.408	4495
657.464	5744
657.519	4465
657.575	4601
657.630	4798
657.686	5122
657.742	4406
657.797	5144
657.853	4198
657.908	5277
657.964	4419
658.019	5032
658.075	5275
658.130	5692
658.186	4111
658.241	5526
658.297	3511
658.352	4730
658.407	5201
658.463	4661
658.518	4592
658.573	5214
658.629	3566
658.684	4549
658.739	5117
658.795	4878
658.850	4947
658.905	3583
658.960	4398
659.016	3968
659.071	4885
659.126	4077
659.181	3400
659.236	4892
659.291	5033
659.346	5335
659.401	4174
659.457	5145
659.512	3784
659.567	5731
659.622	4184
659.677	4192
659.732	4113
659.787	4251
659.842	3608
659.897	3617
659.952	4606
660.007	4470
660.061	4197
660.116	3770
660.171	3077
660.226	4669
660.281	4997
660.336	4207
660.391	4695
660.445	3825
660.500	3673
660.555	3797
660.610	4031
660.664	4608
660.719	3236
660.774	4243
660.828	3884
660.883	4812
660.938	3969
660.992	3021
661.047	4183
661.101	3852
661.156	3730
661.211	3086
661.265	3935
661.320	3764
661.374	3812
661.429	3488
661.483	4592
661.538	2980
661.592	4235
661.647	4926
661.701	5487
661.755	4052
661.810	3373
661.864	3247
661.919	2396
661.973	4348
662.027	3169
662.081	3272
662.136	3811
662.190	4405
662.244	3950
662.299	3871
662.353	4494
662.407	3767
662.461	3846
662.515	3984
662.569	3567
662.624	3835
662.678	3701
662.732	4152
662.786	3128
662.840	3934
662.894	3810
662.948	3803
663.002	3278
663.056	4814
663.110	3451
663.164	3363
663.218	3783
663.272	4294
663.326	3800
663.380	2882
663.434	3373
663.488	3292
663.542	3598
663.595	3489
663.649	3092
663.703	3998
663.757	2871
663.811	3563
663.864	2872
663.918	3279
663.972	3466
664.026	3609
664.079	3747
664.133	5015
664.187	4155
664.240	4004
664.294	3521
664.348	4615
664.401	3446
664.455	3661
664.508	3322
664.562	3649
664.615	3772
664.669	3198
664.722	3419
664.776	3354
664.829	3691
664.883	3332
664.936	2349
664.990	4091
665.043	4461
665.097	2650
665.150	3704
665.203	3467
665.257	3889
665.310	3649
665.363	3877
665.417	3705
665.470	4027
665.523	3600
665.576	3253
665.630	3282
665.683	4206
665.736	3641
665.789	3678
665.842	2860
665.895	3357
665.949	3684
666.002	3838
666.055	4225
666.108	3896
666.161	3770
666.214	3744
666.267	4221
666.320	4940
666.373	4228
666.426	4118
666.479	3913
666.532	3955
666.585	4094
666.638	3929
666.691	3685
666.744	3389
666.796	4361
666.849	3289
666.902	5120
666.955	2751
667.008	4484
667.060	3317
667.113	4148
667.166	3693
667.219	4844
667.271	3879
667.324	4660
667.377	4414
667.430	4709
667.482	4027
667.535	4018
667.587	4168
667.640	3493
667.693	3030
667.745	4108
667.798	4837
667.850	3626
667.903	4912
667.955	4090
668.008	3903
668.060	4167
668.113	3927
668.165	4195
668.218	4234
668.270	4321
668.322	3558
668.375	3983
668.427	4378
668.479	4125
668.532	4481
668.584	3626
668.636	3756
668.689	3490
668.741	2544
668.793	3666
668.845	3859
668.898	3594
668.950	3595
669.002	4152
669.054	2637
669.106	3309
669.158	3566
669.211	3111
669.263	3386
669.315	4666
669.367	3682
669.419	2966
669.471	4382
669.523	3311
669.575	3892
669.627	2917
669.679	3335
669.731	3678
669.783	3546
669.835	3237
669.886	2337
669.938	3778
669.990	3952
670.042	3854
670.094	3426
670.146	2945
670.197	2740
670.249	3650
670.301	1979
670.353	3622
670.404	3148
670.456	2816
670.508	3070
670.560	2814
670.611	2499
670.663	4047
670.715	5529
670.766	5533
670.818	3265
670.869	3504
670.921	4074
670.972	3308
671.024	3298
671.075	3014
671.127	2874
671.178	3851
671.230	3693
671.281	4297
671.333	4001
671.384	4044
671.436	5379
671.487	7324
671.538	9511
671.590	14955
671.641	23059
671.692	40936
671.744	72358
671.795	49523
671.846	20678
671.897	10532
671.949	6829
672.000	6453
672.051	4916
672.102	5189
672.153	3309
672.204	3758
672.256	3507
672.307	2885
672.358	2948
672.409	3171
672.460	2973
672.511	2241
672.562	1589
672.613	2955
672.664	1848
672.715	2118
672.766	2346
672.817	2281
672.868	2184
672.919	2878
672.970	1559
673.021	2538
673.071	1735
673.122	2579
673.173	2319
673.224	2436
673.275	2009
673.326	2270
673.376	2443
673.427	1850
673.478	2881
673.528	2020
673.579	1663
673.630	2687
673.680	2265
673.731	1280
673.782	1630
673.832	2101
673.883	2230
673.934	1973
673.984	1393
674.035	2258
674.085	2049
674.136	2110
674.186	1312
674.237	1698
674.287	1514
674.338	2191
674.388	1443
674.438	2001
674.489	2216
674.539	2481
674.589	2428
674.640	1785
674.690	1796
674.740	1520
674.791	1868
674.841	1915
674.891	1626
674.942	1852
674.992	1477
675.042	1077
675.092	1455
675.142	772
675.193	1555
675.243	1709
675.293	1359
675.343	1349
675.393	1679
675.443	2115
675.493	1564
675.543	1855
675.593	1316
675.643	1990
675.693	1898
675.743	2315
675.793	1236
675.843	694
675.893	544
675.943	1737
675.993	1455
676.043	984
676.093	1433
676.142	1273
676.192	1192
676.242	1441
676.292	285
676.341	1574
676.391	1714
676.441	1072
676.491	821
676.540	1032
676.590	1634
676.640	944
676.689	1558
676.739	236
676.789	1172
676.838	1313
676.888	719
676.937	468
676.987	576
677.037	1329
677.086	1276
677.136	124
677.185	809
677.235	730
677.284	1483
677.333	1268
677.383	433
677.432	858
677.482	740
677.531	1541
677.580	14
677.630	1580
677.679	1583
677.728	669
677.778	789
677.827	856
677.876	517
677.925	1087
677.975	266
678.024	1000
678.073	1218
678.122	1256
678.171	913
678.220	680
678.269	1121
678.319	1996
678.368	1336
678.417	1385
678.466	1338
678.515	1123
678.564	425
678.613	678
678.662	937
678.711	1266
678.760	1431
678.809	599
678.857	922
678.906	1105
678.955	337
679.004	1442
679.053	983
679.102	861
679.151	474
679.199	-158
679.248	780
679.297	784
679.346	728
679.394	385
679.443	1107
679.492	802
679.540	347
679.589	305
679.638	953
679.686	1604
679.735	1075
679.784	1521
679.832	942
679.881	724
679.929	1223
679.978	640
680.026	-67
680.075	1022
680.123	273
680.172	468
680.220	833
680.268	791
680.317	-312
680.365	214
680.414	689
680.462	535
680.510	1406
680.559	838
680.607	3
680.655	838
680.703	846
680.752	981
680.800	-165
680.848	1374
680.896	1299
680.945	997
680.993	-115
681.041	286
681.089	422
681.137	1721
681.185	890
681.233	-181
681.258	96
681.281	300
681.329	597
681.377	531
681.380	615
681.425	1125
681.473	343
681.502	1193
681.521	1671
681.569	1562
681.617	1808
681.624	1818
681.665	1456
681.713	1970
681.745	1580
681.761	1302
681.809	1866
681.857	2162
681.867	2197
681.904	2084
681.952	2396
681.989	2317
682.000	2219
682.048	2452
682.096	2488
682.111	2600
682.143	2672
682.191	3322
682.233	3103
682.239	3012
682.286	2753
682.334	2286
682.354	2456
682.382	2569
682.430	3247
682.476	4090
682.477	4059
682.525	3525
682.572	3902
682.598	4114
682.620	4187
682.667	3491
682.715	4129
682.720	4181
682.763	4169
682.810	4691
682.841	5016
682.857	5107
682.905	4434
682.952	5059
682.963	5119
683.000	5072
683.047	4659
683.085	4902
683.095	4948
683.142	5741
683.190	4650
683.206	4904
683.237	5183
683.284	5486
683.328	5260
683.332	5192
683.379	5654
683.426	5170
683.449	5306
683.473	5476
683.521	6121
683.568	6343
683.571	6349
683.615	5734
683.662	6714
683.693	6613
683.709	6431
683.757	5623
683.804	6583
683.814	6449
683.851	6035
683.898	6929
683.936	6719
683.945	6623
683.992	6967
684.039	6861
684.057	7100
684.086	7343
684.133	7190
684.179	6984
684.180	6940
684.227	7858
684.274	7073
684.300	6920
684.321	6915
684.368	7501
684.415	7636
684.422	7837
684.462	8692
684.509	7445
684.543	8332
684.556	8634
684.603	8128
684.649	8442
684.665	8533
684.696	8567
684.743	9074
684.786	9312
684.790	9300
684.837	8714
684.883	8325
684.908	8708
684.930	9105
684.977	9365
685.023	9118
685.029	9189
685.070	9367
685.117	9760
685.150	9342
685.164	9167
685.210	9986
685.257	9904
685.272	10082
685.303	10418
685.350	10102
685.393	9688
685.396	9604
685.443	9580
685.490	9385
685.514	9351
685.536	9523
685.583	9269
685.629	10588
685.636	10491
685.675	9895
685.722	9937
685.757	10891
685.768	11077
685.815	10470
685.861	10475
685.878	10557
685.908	10935
685.954	11226
686.000	10479
686.000	10451
686.047	11323
686.093	11702
686.121	11852
686.139	11901
686.185	11951
686.232	11660
686.242	11647
686.278	11607
686.324	11831
686.363	11328
686.370	11227
686.416	12227
686.463	12404
686.484	12306
686.509	12161
686.555	12574
686.601	12589
686.606	12619
686.647	12662
686.693	12461
686.727	12328
686.739	12278
686.785	12328
686.831	11585
686.848	11658
686.877	12021
686.923	12013
686.969	12790
686.969	12792
687.015	13115
687.061	13686
687.090	13905
687.107	13885
687.153	14517
687.199	14836
687.211	14664
687.245	13931
687.291	13289
687.332	13534
687.336	13615
687.382	14185
687.428	15045
687.453	14973
687.474	14910
687.520	15166
687.565	15679
687.574	15706
687.611	16591
687.657	18365
687.695	19323
687.702	19749
687.748	22951
687.794	26207
687.816	27690
687.839	26222
687.885	23105
687.931	19308
687.937	18887
687.976	18192
688.022	17072
688.058	16384
688.067	16365
688.113	15731
688.158	15518
688.179	15165
688.204	15105
688.249	15690
688.295	16028
688.300	16058
688.340	16239
688.386	16881
688.421	15782
688.431	15507
688.477	15899
688.522	16708
688.542	16733
688.567	17056
688.613	17277
688.658	17997
688.663	18058
688.703	18034
688.749	17564
688.784	17575
688.794	17672
688.839	18159
688.884	18659
688.905	18532
688.930	18158
688.975	18259
689.020	18039
689.026	17949
689.065	17875
689.110	18230
689.146	18606
689.155	18802
689.201	19140
689.246	20349
689.267	20483
689.291	19937
689.336	19556
689.381	18150
689.388	17966
689.426	17776
689.471	18468
689.509	17818
689.516	17716
689.561	17936
689.606	17948
689.630	17823
689.651	17878
689.696	17990
689.741	18192
689.750	18362
689.785	19120
689.830	18929
689.871	19331
689.875	19345
689.920	18997
689.965	18530
689.992	18185
690.010	18025
690.054	18010
690.099	17807
690.112	17718
690.144	17944
690.189	17718
690.233	18042
690.233	18068
690.278	18329
690.323	18178
690.354	18308
690.367	18489
690.412	18788
690.457	19070
690.474	19195
690.501	18942
690.546	18432
690.590	18216
690.595	18095
690.635	17795
690.680	17707
690.716	17837
690.724	17912
690.769	17610
690.813	18235
690.836	18190
690.857	18583
690.902	19052
690.946	20099
690.957	20157
690.991	19574
691.035	20001
691.077	19270
691.080	19295
691.124	19703
691.168	19956
691.198	20136
691.213	20173
691.257	20008
691.301	19871
691.318	19865
691.346	20041
691.390	20339
691.434	20054
691.439	20042
691.478	20339
691.522	20837
691.559	21059
691.567	21184
691.611	21076
691.655	21900
691.680	21935
691.699	21711
691.743	21652
691.787	21094
691.800	20988
691.831	21163
691.875	21218
691.919	21336
691.921	21302
691.964	21423
692.008	21412
692.041	21235
692.052	21271
692.096	21420
692.139	21724
692.162	21593
692.183	21388
692.227	21470
692.271	21161
692.282	21068
692.315	21166
692.359	21319
692.402	21451
692.403	21492
692.447	21164
692.490	21051
692.523	20769
692.534	20758
692.578	20842
692.622	20870
692.643	20668
692.666	20680
692.709	21068
692.753	21232
692.763	21286
692.797	21607
692.840	21504
692.884	22060
692.884	22106
692.928	21697
692.971	21452
693.004	21223
693.015	21231
693.059	21139
693.102	21175
693.124	21060
693.146	21169
693.189	21156
693.233	21567
693.245	21510
693.276	21618
693.320	22098
693.363	22111
693.365	22077
693.407	22316
693.450	22466
693.485	22460
693.493	22457
693.537	22158
693.580	21841
693.605	21647
693.624	21609
693.667	21592
693.710	21204
693.725	21157
693.753	21478
693.797	21337
693.840	21954
693.845	21927
693.883	21743
693.926	21538
693.966	21079
693.970	21153
694.013	21692
694.056	22373
694.086	22618
694.099	22645
694.142	22336
694.185	22732
694.206	22552
694.229	22708
694.272	23405
694.315	23835
694.326	23913
694.358	23772
694.401	23302
694.444	23147
694.446	23059
694.487	23289
694.530	24030
694.566	24392
694.573	24462
694.616	24625
694.659	24542
694.686	24680
694.702	24804
694.745	24842
694.787	24943
694.806	24843
694.830	24880
694.873	24938
694.916	24968
694.926	24946
694.959	25607
695.002	26171
695.044	26859
695.046	26823
695.087	27137
695.130	27251
695.166	27488
695.172	27638
695.215	28129
695.258	28537
695.286	28931
695.301	29376
695.343	29923
695.386	30788
695.406	31127
695.428	32213
695.471	34210
695.514	36219
695.526	36690
695.556	38768
695.599	41675
695.641	44504
695.646	44701
695.684	42713
695.726	40580
695.766	38257
695.769	38238
695.811	36773
695.854	35090
695.886	33873
695.896	34137
695.938	34874
695.981	35465
696.005	35811
696.023	36979
696.065	39611
696.108	42155
696.125	43101
696.150	43919
696.192	45180
696.235	46546
696.245	46709
696.277	46750
696.319	46885
696.361	46903
696.365	46783
696.404	46015
696.446	45233
696.485	44187
696.488	44278
696.530	44131
696.572	43907
696.604	43675
696.614	43783
696.656	43827
696.698	43790
696.724	43699
696.740	43973
696.783	44296
696.825	44782
696.844	44787
696.867	44882
696.909	44938
696.951	44942
696.964	44914
696.992	45599
697.034	46185
697.076	46834
697.083	46808
697.118	48094
697.160	49571
697.202	51077
697.203	50988
697.244	50582
697.286	49887
697.323	49242
697.327	49401
697.369	49603
697.411	49872
697.442	49888
697.453	50020
697.494	50004
697.536	50068
697.562	49963
697.578	50149
697.620	50366
697.661	50454
697.682	50403
697.703	51592
697.744	53662
697.786	55789
697.801	56401
697.828	56199
697.869	55583
697.911	55067
697.921	54784
697.952	54658
697.994	54327
698.035	53970
698.040	53785
698.077	54153
698.118	54452
698.160	54671
698.160	54527
698.201	56139
698.243	57617
698.279	58783
698.284	59084
698.325	60437
698.367	61800
698.399	62674
698.408	63054
698.449	64052
698.491	65050
698.518	65528
698.532	65616
698.573	65404
698.614	65157
698.638	64849
698.656	64896
698.697	64588
698.738	64290
698.757	63982
698.779	64362
698.820	64740
698.862	65130
698.877	65102
698.903	65264
698.944	65238
698.985	65211
698.996	65029
699.026	64746
699.067	64110
699.116	63179
699.235	64624
699.354	63523
699.474	58325
699.593	59459
699.713	58265
699.832	58558
699.951	62717
700.070	61593
700.190	56091
700.309	56814
700.428	53964
700.547	52615
700.667	52783
700.786	53162
700.905	50701
701.024	53838
701.143	50342
701.262	56059
701.381	55611
701.500	55815
701.619	52435
701.738	54340
701.857	52871
701.976	50003
702.095	52320
702.214	54401
702.333	50850
702.452	54195
702.571	53762
702.690	52012
702.809	53305
702.928	50115
703.047	46645
703.165	48596
703.284	48613
703.403	48056
703.522	47714
703.640	46213
703.759	46122
703.878	43208
703.997	46127
704.115	46579
704.234	45388
704.353	46815
704.471	42046
704.590	42260
704.708	41828
704.827	42160
704.946	40915
705.064	43427
705.183	40911
705.301	42110
705.420	39464
705.538	39453
705.656	36297
705.775	38183
705.893	47954
706.012	48483
706.130	37688
706.249	40586
706.367	36200
706.485	36862
706.604	36250
706.722	37373
706.840	45154
706.958	70538
707.077	47681
707.195	35950
707.313	35375
707.431	32852
707.549	33487
707.668	30537
707.786	35567
707.904	31773
708.022	35015
708.140	32586
708.258	30323
708.376	33767
708.494	29739
708.612	33890
708.730	33683
708.848	31414
708.966	33221
709.084	32268
709.202	31232
709.320	30629
709.438	30066
709.556	30640
709.674	26036
709.791	29204
709.909	28043
710.027	26631
710.145	26339
710.263	27716
710.380	27881
710.498	26034
710.616	26648
710.733	25135
710.851	26636
710.969	26198
711.086	25639
711.204	26457
711.322	26796
711.439	26623
711.557	23701
711.674	25077
711.792	24606
711.909	24160
712.027	25370
712.144	23688
712.262	23565
712.379	26030
712.497	22947
712.614	23747
712.732	24103
712.849	22609
712.966	23188
713.084	25045
713.201	21178
713.318	23706
713.436	26124
713.553	24042
713.670	26320
713.787	26105
713.905	23306
714.022	26004
714.139	27864
714.256	31365
714.373	43531
714.490	74593
714.608	177057
714.725	558182
714.842	501047
714.959	92050
715.076	40211
715.193	33516
715.310	28879
715.427	23010
715.544	24373
715.661	23120
715.778	21907
715.895	21230
716.011	21549
716.128	20868
716.245	21196
716.362	20655
716.479	17080
716.596	19224
716.713	21007
716.829	19877
716.946	18125
717.063	17927
717.180	16620
717.296	18713
717.413	17940
717.530	18075
717.646	16095
717.763	17613
717.880	17335
717.996	16177
718.113	16839
718.229	17099
718.346	15603
718.462	15595
718.579	16633
718.695	16863
718.812	15328
718.928	16132
719.045	15056
719.161	15490
719.277	16348
719.394	17629
719.510	17613
719.626	17744
719.743	21903
719.859	34072
719.975	65285
720.092	226983
720.208	417406
720.324	72945
720.440	25014
720.557	20110
720.673	16806
720.789	16346
720.905	15262
721.021	15702
721.137	13974
721.253	13206
721.369	13907
721.486	13483
721.602	13413
721.718	13412
721.834	13490
721.950	12997
722.066	12649
722.181	12900
722.297	13536
722.413	13257
722.529	13365
722.645	13458
722.761	13126
722.877	13538
722.993	14733
723.108	19784
723.224	15393
723.340	14320
723.456	13060
723.571	11764
723.687	11528
723.803	12792
723.918	12031
724.034	11369
724.150	11325
724.265	12691
724.381	10115
724.497	10554
724.612	11457
724.728	12202
724.843	10485
724.959	11410
725.074	11907
725.190	11988
725.305	11883
725.421	11437
725.536	11403
725.651	12566
725.767	11901
725.882	12219
725.997	11132
726.113	12363
726.228	11278
726.343	11460
726.459	11935
726.574	11081
726.689	10813
726.804	11020
726.920	11460
727.035	11705
727.150	11246
727.265	10809
727.380	11621
727.495	11739
727.610	11559
727.725	10591
727.841	12637
727.956	17510
728.071	14071
728.186	10251
728.301	10430
728.416	12290
728.531	11284
728.645	10652
728.760	10485
728.875	12016
728.990	10184
729.105	10619
729.220	10827
729.335	11679
729.449	10677
729.564	10528
729.679	9772
729.794	11667
729.908	10510
730.023	10475
730.138	10934
730.253	11450
730.367	10280
730.482	10695
730.596	11872
730.711	14780
730.826	23414
730.940	25853
731.055	16273
731.169	16756
731.284	16283
731.398	15876
731.513	16888
731.627	19854
731.742	25637
731.856	33487
731.970	32840
732.085	40625
732.199	56151
732.313	95766
732.428	215854
732.542	481649
732.656	286389
732.771	84768
732.885	49315
732.999	44095
733.113	45614
733.227	45334
733.342	41469
733.456	40917
733.570	38811
733.684	36640
733.798	35258
733.912	35019
734.026	36090
734.140	34905
734.254	33533
734.368	32571
734.482	32674
734.596	34200
734.710	32630
734.824	32544
734.938	30651
735.052	33536
735.166	31307
735.280	30984
735.393	29630
735.507	31896
735.621	29084
735.735	28359
735.849	30250
735.962	28611
736.076	29893
736.190	28751
736.303	28687
736.417	29570
736.531	26198
736.644	28483
736.758	26516
736.872	26489
736.985	26309
737.099	26889
737.212	26317
737.326	25090
737.439	27059
737.553	23974
737.666	26489
737.780	23645
737.893	25934
738.007	24403
738.120	27496
738.233	23447
738.347	25280
738.460	23255
738.573	27274
738.687	23153
738.800	24282
738.913	25127
739.026	23549
739.140	22710
739.253	23418
739.366	23033
739.479	22116
739.592	22939
739.705	19602
739.818	26491
739.932	19816
740.045	23313
740.158	20959
740.271	23464
740.384	22106
740.497	19340
740.610	21857
740.723	19559
740.836	20843
740.949	21303
741.062	22763
741.174	20207
741.287	20751
741.400	21813
741.513	17360
741.626	21646
741.739	19303
741.851	18724
741.964	20312
742.077	19933
742.189	17457
742.302	19689
742.415	19539
742.527	18639
742.640	20056
742.753	15628
742.865	18759
742.978	18477
743.090	17129
743.203	18369
743.316	17081
743.428	17132
743.541	18458
743.653	14766
743.766	17092
743.878	17802
743.990	14505
744.103	18055
744.215	16298
744.327	15272
744.440	19848
744.552	16114
744.664	14613
744.777	18093
744.889	15782
745.001	14922
745.113	16605
745.226	15399
745.338	14072
745.450	18303
745.562	15255
745.674	13280
745.786	17016
745.898	16773
746.010	14253
746.122	15987
746.234	16100
746.347	15802
746.459	15309
746.570	11477
746.682	15888
746.794	17333
746.906	12981
747.018	13928
747.130	16179
747.242	13103
747.354	12512
747.466	15223
747.577	12650
747.689	14189
747.801	14668
747.913	12836
748.024	13052
748.136	12818
748.248	12295
748.359	13472
748.471	14691
748.583	11871
748.694	11745
748.806	15029
748.918	12300
749.029	12175
749.141	13118
749.252	13612
749.364	10822
749.475	11462
749.587	10370
749.698	11584
749.809	12670
749.921	12714
750.032	12103
750.144	11289
750.255	11197
750.366	11598
750.478	10213
750.589	12558
750.700	10509
750.811	12022
750.923	10481
751.034	10056
751.145	12655
751.256	10908
751.367	10037
751.479	11056
751.590	11163
751.701	11424
751.812	9821
751.923	9734
752.034	12772
752.145	11554
752.256	11228
752.367	10496
752.478	11103
752.589	11491
752.700	11761
752.811	9803
752.922	10804
753.032	11731
753.143	11699
753.254	9877
753.365	11573
753.476	12895
753.586	11661
753.697	9835
753.808	10919
753.919	9737
754.029	9725
754.140	9693
754.251	9343
754.361	10729
754.472	11314
754.582	9223
754.693	9114
754.804	11444
754.914	8031
755.025	8401
755.135	10469
755.246	10756
755.356	8611
755.466	8082
755.577	8062
755.687	10319
755.798	8896
755.908	8338
756.018	9458
756.129	9404
756.239	9846
756.349	10106
756.460	9786
756.570	10462
756.680	9044
756.790	10636
756.900	9473
757.011	8392
757.121	8211
757.231	9086
757.341	9054
757.451	8387
757.561	7843
757.671	8827
757.781	9196
757.891	8773
758.001	7650
758.111	8736
758.221	9830
758.331	10338
758.441	8771
758.551	9198
758.661	9924
758.771	10220
758.880	10516
758.990	8574
759.100	9138
759.210	9680
759.320	8587
759.429	9736
759.539	10423
759.649	9761
759.758	11856
759.868	12794
759.978	12381
760.087	12935
760.197	12885
760.307	12546
760.416	11125
760.526	11192
760.635	11473
760.745	13642
760.854	12973
760.964	15558
761.073	14636
761.182	14635
761.292	12238
761.401	11270
761.511	8684
761.620	8766
761.729	9515
761.839	8156
761.948	7449
762.057	7684
762.166	9058
762.276	6631
762.385	9058
762.494	7641
762.603	6735
762.712	7687
762.822	8362
762.931	6129
763.040	5667
763.149	7205
763.258	6131
763.367	7385
763.476	6542
763.585	6296
763.694	7076
763.803	6672
763.912	6571
764.021	7048
764.130	6025
764.238	7744
764.347	6313
764.456	7793
764.565	6808
764.674	6252
764.783	5938
764.891	6835
765.000	7306
765.109	6329
765.217	5863
765.326	6110
765.435	5446
765.543	6833
765.652	6808
765.761	5748
765.869	5263
765.978	6217
766.086	6459
766.195	6986
766.303	6925
766.412	9994
766.520	9887
766.629	6017
766.737	5915
766.846	6886
766.954	4744
767.062	7163
767.171	7841
767.279	8349
767.387	5904
767.496	6551
767.604	4924
767.712	5802
767.820	5293
767.928	6460
768.037	5398
768.145	6888
768.253	6484
768.361	5587
768.469	5429
768.577	5067
768.685	5876
768.793	6893
768.901	6375
769.009	6460
769.117	4595
769.225	6211
769.333	5795
769.441	7660
769.549	7131
769.657	7861
769.765	7565
769.873	11924
769.981	7047
770.088	7424
770.196	6764
770.304	8786
770.412	8714
770.519	8565
770.627	8632
770.735	8213
770.842	8177
770.950	9173
771.058	10107
771.165	11918
771.273	13054
771.380	13318
771.488	19034
771.595	24256
771.703	19865
771.810	18705
771.918	19472
772.025	24514
772.133	28551
772.240	25633
772.348	29858
772.455	28989
772.562	25222
772.670	24655
772.777	25996
772.884	25605
772.991	23568
773.099	26793
773.206	23002
773.313	24387
773.420	22690
773.528	24041
773.635	22195
773.742	25523
773.849	22404
773.956	24924
774.063	21243
774.170	24279
774.277	24012
774.384	22453
774.491	21826
774.598	23093
774.705	20566
774.812	22166
774.919	21109
775.026	22953
775.133	20909
775.239	21735
775.346	19517
775.453	20901
775.560	19277
775.667	21663
775.773	19273
775.880	20213
775.987	20874
776.093	19987
776.200	23393
776.307	15685
776.413	18172
776.520	23457
776.627	18716
776.733	17624
776.840	15625
776.946	22767
777.053	18537
777.159	18106
777.266	16792
777.372	18367
777.478	19477
777.585	18894
777.691	15030
777.798	20522
777.904	17182
778.010	17462
778.117	18598
778.223	17318
778.329	17407
778.435	15672
778.542	18500
778.648	16555
778.754	15253
778.860	17292
778.966	16263
779.072	15882
779.178	17020
779.284	13629
779.391	15613
779.497	17807
779.603	16547
779.708	15028
779.815	12987
779.920	16462
780.026	12889
780.132	15689
780.238	14396
780.344	13420
780.450	18128
780.556	12936
780.661	12805
780.767	17804
780.873	9474
780.979	12794
781.085	16231
781.190	13954
781.296	12672
781.402	15133
781.507	14928
781.613	11336
781.719	12695
781.824	16353
781.930	11956
782.035	13269
782.141	15700
782.246	10895
782.352	12417
782.457	13714
782.563	13474
782.668	13693
782.773	11187
782.879	11198
782.984	11735
783.090	11954
783.195	12548
783.300	14935
783.405	11039
783.511	11054
783.616	11194
783.721	12876
783.826	11876
783.932	9972
784.037	11774
784.142	12813
784.247	10822
784.352	12242
784.457	9561
784.562	11723
784.667	12536
784.772	9968
784.877	7693
784.982	13184
785.087	11919
785.192	9764
785.297	10340
785.402	11569
785.507	10606
785.611	10654
785.716	8011
785.821	11352
785.926	11329
786.031	9985
786.135	10488
786.240	11256
786.345	8786
786.450	8885
786.554	9430
786.659	8042
786.763	8868
786.868	10099
786.973	11148
787.077	8519
787.182	7506
787.286	11078
787.391	11667
787.495	7151
787.600	7382
787.704	9620
787.809	10270
787.913	8766
788.017	9348
788.122	10514
788.226	8099
788.330	5980
788.435	9064
788.539	11743
788.643	9003
788.747	6447
788.852	7960
788.956	8838
789.060	9743
789.164	9393
789.268	7920
789.372	10421
789.476	7725
789.580	7092
789.684	6728
789.788	10827
789.892	8286
789.996	7349
790.100	4637
790.204	8282
790.308	10634
790.412	6116
790.516	5641
790.620	8174
790.724	9850
790.828	8478
790.931	5141
791.035	8753
791.139	6997
791.242	8363
791.346	8314
791.450	8217
791.554	6048
791.657	5324
791.761	7656
791.864	8690
791.968	9309
792.072	8862
792.175	6242
792.279	6581
792.382	6504
792.486	6284
792.589	7247
792.693	8101
792.796	6329
792.899	7708
793.003	7992
793.106	5923
793.209	6537
793.313	6583
793.416	3923
793.519	6332
793.623	8445
793.726	8142
793.829	5275
793.932	4870
794.035	4631
794.138	8396
794.242	9393
794.345	5462
794.448	4862
794.551	4786
794.654	7552
794.757	8038
794.860	5266
794.963	6735
795.066	5157
795.169	6851
795.272	5731
795.375	7928
795.477	4829
795.580	5181
795.683	4210
795.786	7829
795.889	4894
795.991	6837
796.094	6381
796.197	5631
796.300	6931
796.402	7593
796.505	3737
796.608	3665
796.710	4514
796.813	7153
796.915	6290
797.018	6582
797.120	5912
797.223	5477
797.326	6565
797.428	4575
797.530	3876
797.633	4931
797.735	7016
797.838	5774
797.940	7294
798.042	5960
798.145	4395
798.247	5043
798.349	3094
798.452	6335
798.554	5360
798.656	6374
798.758	7766
798.860	5536
798.962	4349
799.065	4042
799.167	3469
799.269	5306
799.371	5761
799.473	7665
799.575	5819
799.677	5213
799.779	5773
799.881	3958
799.983	6433
800.085	5004
800.187	5505
800.289	3516
800.390	4447
800.492	6833
800.594	5882
800.696	3906
800.798	3781
800.899	5134
801.001	4911
801.103	5512
801.205	4801
801.306	4918
801.408	4657
801.509	4899
801.611	5613
801.713	4796
801.814	4067
801.916	3340
802.017	3574
802.119	3819
802.220	4880
802.322	3777
802.423	4741
802.525	3601
802.626	3781
802.727	6266
802.829	5666
802.930	1993
803.031	4910
803.133	4514
803.234	5153
803.335	4733
803.436	3373
803.538	4707
803.639	2447
803.740	4800
803.841	4017
803.942	5381
804.043	3250
804.144	3449
804.245	4080
804.346	4236
804.447	3696
804.548	4535
804.649	5380
804.750	3055
804.851	3584
804.952	4923
805.053	3319
805.154	3210
805.255	4416
805.355	4058
805.456	3690
805.557	3113
805.658	3117
805.758	4062
805.859	4052
805.960	5061
806.061	3240
806.161	4004
806.262	2628
806.362	2886
806.463	3233
806.564	5828
806.664	4019
806.765	4001
806.865	3286
806.966	3367
807.066	2753
807.166	5113
807.267	4716
807.367	3132
807.468	4051
807.568	2161
807.668	3778
807.769	4963
807.869	3881
807.969	3842
808.069	3803
808.170	3664
808.270	3832
808.370	4078
808.470	3947
808.570	3040
808.670	3483
808.770	3900
808.870	3017
808.970	3918
809.070	2258
809.170	3424
809.271	4770
809.370	4061
809.470	3487
809.570	3385
809.670	1694
809.770	4057
809.870	3866
809.970	4010
810.070	3940
810.169	4304
810.269	2040
810.369	4675
810.469	3662
810.568	4113
810.668	3355
810.768	3486
810.867	3265
810.967	3627
811.066	3213
811.166	3027
811.265	4724
811.365	2991
811.464	3284
811.564	3637
811.663	3119
811.763	3035
811.862	4011
811.962	4596
812.061	2907
812.160	3512
812.260	3053
812.359	3184
812.458	2622
812.557	4211
812.657	2278
812.756	4611
812.855	3526
812.954	3438
813.053	3296
813.153	3630
813.252	2561
813.351	4240
813.450	4059
813.549	3990
813.648	3555
813.747	2865
813.846	4132
813.945	4097
814.044	4410
814.143	4279
814.242	4316
814.341	3893
814.439	5659
814.538	4869
814.637	5098
814.736	5762
814.835	5528
814.933	5789
815.032	6697
815.131	9088
815.229	17737
815.328	25480
815.427	18657
815.525	17210
815.624	15617
815.722	14457
815.821	15749
815.919	16478
816.018	15662
816.116	15784
816.215	15553
816.313	16455
816.412	21423
816.510	21465
816.609	22226
816.707	23927
816.805	20643
816.904	21073
817.002	20145
817.100	21083
817.198	22363
817.296	19966
817.395	20406
817.493	20333
817.591	17533
817.689	18889
817.787	19143
817.885	18688
817.983	16789
818.081	18111
818.179	17173
818.277	21339
818.375	16839
818.473	18459
818.571	16631
818.669	18206
818.767	20079
818.865	17412
818.963	14532
819.061	18567
819.158	17162
819.256	19782
819.354	15298
819.452	17965
819.549	15651
819.647	20084
819.745	15127
819.842	15465
819.940	17338
820.038	16241
820.135	13190
820.233	18228
820.330	15149
820.428	14078
820.525	17276
820.623	15534
820.720	14282
820.818	15261
820.915	16062
821.012	14289
821.110	12960
821.207	15888
821.304	13602
821.402	16118
821.499	15833
821.596	12635
821.693	13321
821.791	15040
821.888	13698
821.985	16360
822.082	12116
822.179	14938
822.276	15503
822.373	12350
822.470	13074
822.567	14000
822.664	12662
822.761	13341
822.858	13962
822.955	12847
823.052	11658
823.149	14371
823.246	14677
823.343	10902
823.440	10703
823.536	13786
823.633	13143
823.730	11129
823.827	12827
823.923	13641
824.020	10705
824.117	13699
824.213	13386
824.310	10558
824.407	9143
824.503	13860
824.600	11018
824.696	10321
824.793	13416
824.889	13353
824.986	10576
825.082	8269
825.179	9927
825.275	13517
825.371	14514
825.468	9182
825.564	6014
825.660	12207
825.757	15317
825.853	9890
825.949	8125
826.045	9470
826.142	10076
826.238	12164
826.334	11653
826.430	11117
826.526	6242
826.622	7476
826.718	12302
826.814	14062
826.910	11134
827.006	5963
827.102	6943
827.198	11253
827.294	12704
827.390	12039
827.486	8031
827.582	6591
827.678	7187
827.774	13179
827.869	8267
827.965	8604
828.061	7016
828.157	11951
828.252	10972
828.348	9023
828.444	7803
828.539	8361
828.635	9778
828.731	10719
828.826	6685
828.922	9594
829.017	11080
829.113	11475
829.208	6493
829.304	9423
829.399	11557
829.495	10176
829.590	7540
829.685	7995
829.781	10104
829.876	11116
829.971	4378
830.066	4985
830.162	8571
830.257	14168
830.352	9054
830.447	6225
830.543	6212
830.638	8119
830.733	10847
830.828	7364
830.923	8876
831.018	9264
831.113	9783
831.208	5748
831.303	4545
831.398	5797
831.493	8376
831.588	12961
831.683	7297
831.778	5602
831.873	6298
831.967	9836
832.062	8305
832.157	7439
832.252	7323
832.346	6204
832.441	8979
832.536	7768
832.631	8138
832.725	5997
832.820	6888
832.914	7524
833.009	6479
833.104	4871
833.198	4315
833.293	6772
833.387	9603
833.482	8186
833.576	7218
833.670	6766
833.765	6748
833.859	8452
833.954	7763
834.048	7821
834.142	6291
834.237	5103
834.331	7001
834.425	7739
834.519	6074
834.613	5397
834.708	6184
834.802	5630
834.896	6584
834.990	7720
835.084	4396
835.178	4161
835.272	5471
835.366	9349
835.460	8314
835.554	6853
835.648	4506
835.742	3893
835.836	4290
835.930	5240
836.024	7759
836.117	6713
836.211	5951
836.305	5034
836.399	4904
836.493	5174
836.586	6953
836.680	6192
836.774	4705
836.867	5358
836.961	4165
837.055	4618
837.148	4394
837.242	5099
837.335	5587
837.429	4969
837.522	4807
837.616	4680
837.709	3971
837.803	5437
837.896	7017
837.989	6774
838.083	3028
838.176	3445
838.269	3055
838.363	5019
838.456	4471
838.549	7489
838.642	4105
838.735	4618
838.829	5283
838.922	4843
839.015	4497
839.108	3753
839.201	4098
839.294	6254
839.387	4369
839.480	3477
839.573	3904
839.666	4051
839.759	4574
839.852	4438
839.945	6213
840.038	4695
840.131	3409
840.223	3062
840.316	4653
840.409	5527
840.502	6148
840.594	6070
840.687	2424
840.780	2519
840.873	2122
840.965	3648
841.058	4771
841.150	6356
841.243	2489
841.336	4267
841.428	2980
841.521	3661
841.613	3468
841.706	3892
841.798	3495
841.890	5054
841.983	3088
842.075	2801
842.167	3341
842.260	5207
842.352	5746
842.444	5058
842.537	3004
842.629	2893
842.721	2293
842.813	4011
842.905	3664
842.997	4844
843.090	5142
843.182	4544
843.274	1973
843.366	3590
843.458	3864
843.550	5424
843.642	3837
843.734	3984
843.826	2158
843.918	2290
844.009	2222
844.101	3980
844.193	4541
844.285	4639
844.377	5081
844.469	3779
844.560	997
844.652	2193
844.744	3553
844.835	4141
844.927	3289
845.019	4617
845.110	3047
845.202	4860
845.293	2557
845.385	2252
845.476	3108
845.568	4935
845.659	2497
845.751	3336
845.842	2828
845.934	3921
846.025	2920
846.116	2494
846.208	3219
846.299	3021
846.390	2713
846.482	2884
846.573	3616
846.664	3530
846.755	2154
846.846	4454
846.937	1458
847.029	2376
847.120	2508
847.211	3313
847.302	4178
847.393	3117
847.484	3242
847.575	2528
847.666	1481
847.757	2012
847.847	3277
847.938	4152
848.029	3898
848.120	3060
848.211	2916
848.302	1355
848.392	2515
848.483	3319
848.574	2887
848.664	4183
848.755	2914
848.846	2644
848.936	2354
849.027	3296
849.118	3810
849.208	2997
849.299	4002
849.389	6441
849.480	8879
849.570	15734
849.661	27810
849.751	43450
849.841	18145
849.932	6025
850.022	4058
850.112	4331
850.203	3848
850.293	2847
850.383	2573
850.474	2269
850.564	1776
850.654	2262
850.744	2195
850.834	2797
850.924	3379
851.014	4028
851.104	2998
851.194	2897
851.284	1348
851.374	3093
851.464	1810
851.554	2416
851.644	2099
851.734	3975
851.824	3365
851.914	3391
852.004	3032
852.094	2028
852.183	1859
852.273	2755
852.363	2274
852.452	3449
852.542	2849
852.632	2833
852.721	2246
852.811	2671
852.901	4399
852.990	4237
853.080	3277
853.169	3276
853.259	3708
853.348	4317
853.438	3567
853.527	6194
853.617	6682
853.706	10943
853.795	16963
853.885	31940
853.974	52603
854.063	88449
854.152	108604
854.242	56289
854.331	21644
854.420	11552
854.509	7964
854.598	6421
854.687	5469
854.777	4626
854.866	3256
854.955	4177
855.044	2852
855.133	3137
855.222	3025
855.311	3310
855.400	1735
855.488	2802
855.577	2753
855.666	2072
855.755	2893
855.844	2818
855.933	3046
856.021	3194
856.110	2420
856.199	2132
856.288	1815
856.376	1046
856.465	1507
856.554	2319
856.642	2745
856.731	3494
856.819	3191
856.908	2230
856.996	2932
857.085	1605
857.173	1542
857.262	1792
857.350	1556
857.438	2153
857.527	2891
857.615	3019
857.703	2849
857.792	1973
857.880	1556
857.968	2791
858.056	2350
858.145	2574
858.233	2497
858.321	2324
858.409	2899
858.497	2802
858.585	1499
858.673	2557
858.761	1846
858.849	1201
858.937	1550
859.025	2024
859.113	3028
859.201	2908
859.289	3195
859.377	3753
859.465	1883
859.552	2883
859.640	1306
859.728	2138
859.816	1665
859.903	2818
859.991	1999
860.079	3940
860.166	2804
860.254	1962
860.342	2151
860.429	2027
860.517	1715
860.604	2678
860.692	2106
860.779	2112
860.867	2065
860.954	2756
861.042	3043
861.129	3282
861.216	3269
861.304	3233
861.391	2859
861.478	3142
861.565	2791
861.653	3129
861.740	1178
861.827	2296
861.914	2513
862.001	2491
862.089	3340
862.176	3387
862.263	1819
862.350	2367
862.437	1911
862.524	2719
862.611	2621
862.698	3145
862.785	2867
862.871	4250
862.958	4313
863.045	3079
863.132	3211
863.219	2522
863.306	1893
863.392	3025
863.479	2728
863.566	3152
863.652	3516
863.739	3369
863.826	3976
863.912	4781
863.999	2740
864.086	3902
864.172	4382
864.259	5691
864.345	3510
864.432	5188
864.518	4476
864.604	4706
864.691	3922
864.777	4983
864.863	6770
864.950	10090
865.036	13701
865.122	23833
865.209	24556
865.295	20872
865.381	19848
865.467	19649
865.553	18015
865.639	20349
865.726	24328
865.812	31817
865.898	43761
865.984	58674
866.070	83447
866.156	84019
866.242	42472
866.328	24806
866.414	20911
866.499	19138
866.585	17850
866.671	17937
866.757	17948
866.843	17054
866.928	16190
867.014	17081
867.100	16744
867.186	15489
867.271	15669
867.357	17129
867.442	14943
867.528	16519
867.614	15465
867.699	15622
867.785	15422
867.870	14200
867.956	15120
868.041	15536
868.127	14330
868.212	14285
868.297	14502
868.383	15676
868.468	14168
868.553	16192
868.639	14538
868.724	15456
868.809	14781
868.894	14005
868.979	13742
869.065	14391
869.150	11440
869.235	14133
869.320	14196
869.405	12770
869.490	14676
869.575	14891
869.660	10327
869.745	14743
869.830	15306
869.915	12068
870.000	12856
870.085	12699
870.169	15678
870.254	16704
870.339	9701
870.424	11326
870.509	13298
870.593	14808
870.678	14201
870.763	12553
870.847	10842
870.932	14228
871.016	13303
871.101	9651
871.186	11637
871.270	15008
871.355	9493
871.439	11105
871.523	13367
871.608	11535
871.692	10175
871.777	13709
871.861	13221
871.945	11227
872.030	12282
872.114	11604
872.198	10036
872.282	10642
872.367	9618
872.451	10413
872.535	10747
872.619	12403
872.703	9676
872.787	12085
872.871	11490
872.955	9919
873.039	7747
873.123	11829
873.207	11576
873.291	8258
873.375	10321
873.459	12144
873.543	10150
873.627	10034
873.711	8808
873.794	10964
873.878	9943
873.962	7897
874.045	9241
874.129	10110
874.137	10081
874.213	9790
874.245	9682
874.296	9518
874.352	8520
874.380	8038
874.460	9702
874.464	9772
874.547	8109
874.568	8806
874.631	10890
874.676	9888
874.714	9045
874.784	10611
874.798	10930
874.881	8300
874.892	8055
874.965	6361
874.999	7861
875.048	9959
875.107	9931
875.131	9901
875.215	6933
875.215	6932
875.298	6967
875.323	7326
875.381	8203
875.430	10658
875.465	12377
875.538	9396
875.548	8987
875.631	6874
875.646	6792
875.714	6451
875.753	6754
875.798	7079
875.861	8055
875.881	8352
875.964	8110
875.968	7993
876.047	5969
876.076	6485
876.130	7517
876.183	8171
876.213	8467
876.291	8465
876.296	8468
876.379	8010
876.398	7721
876.462	6671
876.506	6199
876.545	5853
876.613	6279
876.628	6335
876.711	6707
876.721	6852
876.794	8284
876.828	8236
876.877	7909
876.935	6265
876.960	5685
877.043	5685
877.043	5694
877.125	6978
877.150	7319
877.208	8184
877.258	6814
877.291	5855
877.365	4825
877.374	4742
877.456	5586
877.472	5497
877.539	4767
877.579	5964
877.622	7304
877.687	6694
877.704	6504
877.787	6867
877.794	6803
877.869	6202
877.901	6317
877.952	6302
878.008	5097
878.034	4617
878.115	4923
878.117	4928
878.199	5364
878.222	5580
878.282	6191
878.329	7036
878.364	7510
878.437	6238
878.447	6050
878.529	4822
878.544	4622
878.611	3955
878.651	4618
878.694	5427
878.758	6893
878.776	7186
878.858	5872
878.865	5778
878.941	4560
878.972	4110
879.023	3620
879.078	4565
879.105	5090
879.185	5962
879.187	5963
879.269	5762
879.292	5587
879.351	5355
879.399	4827
879.433	4293
879.506	3824
879.516	3814
879.598	4533
879.613	4459
879.680	4115
879.720	4943
879.762	5724
879.827	4903
879.844	4614
879.926	4140
879.933	4115
880.007	4325
880.040	4323
880.089	4029
880.147	4240
880.171	4522
880.253	5747
880.254	5747
880.335	3924
880.360	4314
880.417	5667
880.467	5375
880.499	4953
880.574	4731
880.580	4738
880.662	5061
880.680	4956
880.744	4258
880.787	3846
880.825	3610
880.893	3870
880.907	3862
880.989	3185
881.000	3293
881.070	4546
881.106	4621
881.152	4278
881.213	3386
881.233	3170
881.315	4192
881.319	4189
881.396	4298
881.426	4208
881.478	3855
881.532	4596
881.559	4943
881.639	4167
881.641	4129
881.722	3572
881.745	3396
881.803	3596
881.852	4050
881.885	4232
881.958	3328
881.966	3224
882.047	4141
882.064	4020
882.129	3352
882.171	2831
882.210	2388
882.277	2592
882.291	2638
882.372	3844
882.383	3932
882.454	4733
882.489	4510
882.535	4160
882.596	4483
882.616	4397
882.697	3179
882.702	3107
882.778	2482
882.808	2562
882.859	2560
882.914	2603
882.940	2733
883.020	3493
883.021	3490
883.102	3295
883.127	3565
883.183	4547
883.233	3861
883.264	2987
883.339	1735
883.345	1702
883.426	1913
883.445	2141
883.507	2689
883.551	2840
883.587	3205
883.657	4181
883.668	4234
883.749	3992
883.763	3846
883.830	2739
883.869	2223
883.910	1803
883.975	2140
883.991	2389
884.072	2991
884.081	3146
884.152	3597
884.187	3277
884.233	3122
884.292	2968
884.314	2705
884.394	1487
884.398	1458
884.475	1303
884.504	1454
884.555	1872
884.610	2178
884.636	2275
884.716	2753
884.716	2754
884.797	4165
884.821	4281
884.877	3432
884.927	2734
884.958	2498
885.033	2109
885.038	2064
885.118	1849
885.139	1755
885.199	1572
885.244	1651
885.279	2146
885.350	3000
885.359	3035
885.439	3594
885.456	3436
885.520	2510
885.561	2328
885.600	2029
885.667	2073
885.680	2172
885.760	2396
885.773	2359
885.840	1485
885.878	1296
885.920	1789
885.984	2493
886.000	2452
886.080	2578
886.089	2548
886.160	2746
886.195	2834
886.240	2739
886.300	2601
886.320	2486
886.400	2337
886.406	2302
886.480	1513
886.511	1368
886.560	1578
886.616	1709
886.640	1686
886.720	1838
886.722	1841
886.800	1899
886.827	2076
886.879	2033
886.932	1789
886.959	2186
887.038	3436
887.039	3419
887.119	2132
887.143	1855
887.198	2337
887.248	2631
887.278	2512
887.354	2409
887.358	2377
887.437	1633
887.459	1492
887.517	1902
887.564	2108
887.596	1828
887.669	1298
887.676	1273
887.755	1021
887.774	1018
887.835	1555
887.880	1955
887.914	2014
887.985	2003
887.994	2029
888.073	2513
888.090	2574
888.153	2463
888.195	2336
888.232	2022
888.300	1637
888.311	1614
888.391	1490
888.405	1468
888.470	1405
888.510	1375
888.549	1459
888.615	1732
888.628	1857
888.708	2591
888.720	2690
888.787	2003
888.825	1641
888.866	1557
888.930	1502
888.945	1469
889.024	1379
889.035	1364
889.103	2148
889.140	2565
889.182	1843
889.245	889
889.261	993
889.340	1475
889.349	1538
889.419	1171
889.454	1020
889.498	1203
889.559	1506
889.577	1555
889.656	1789
889.664	1826
889.735	2102
889.768	2241
889.814	1799
889.873	1219
889.978	1693
890.083	1971
890.187	2138
890.292	2307
890.397	1828
890.501	938
890.606	680
890.710	1468
890.815	2699
890.919	1604
891.024	1222
891.128	1164
891.233	1188
891.337	1979
891.442	1591
891.546	1403
891.650	1133
891.755	1027
891.859	3242
891.963	1721
892.068	1725
892.172	1569
892.276	635
892.380	1153
892.484	2109
892.589	1950
892.693	1399
892.797	642
892.901	1707
893.005	1554
893.109	1135
893.213	2418
893.317	1774
893.421	333
893.525	892
893.629	813
893.733	1503
893.837	1179
893.941	1056
894.045	966
894.148	553
894.252	1026
894.356	1178
894.460	2683
894.564	1926
894.667	152
894.771	806
894.875	833
894.978	1974
895.082	1237
895.186	1639
895.289	1959
895.393	1439
895.496	1325
895.600	1458
895.703	1556
895.807	1364
895.910	1015
896.014	1650
896.117	641
896.221	1641
896.324	1193
896.427	1000
896.531	284
896.634	1502
896.737	1054
896.840	1208
896.944	1436
897.047	1951
897.150	1171
897.253	882
897.356	735
897.460	794
897.563	257
897.666	1458
897.769	1894
897.872	1477
897.975	675
898.078	1053
898.181	1003
898.284	692
898.387	895
898.490	1866
898.593	567
898.695	151
898.798	455
898.901	1311
899.004	534
899.107	652
899.209	698
899.312	2283
899.415	1519
899.518	614
899.620	-424
899.723	673
899.826	1261
899.928	1133
900.031	710
900.133	1358
900.236	819
900.338	1139
900.441	682
900.543	981
900.646	906
900.748	1615
900.851	1171
900.953	596
901.055	1369
901.158	1170
901.260	579
901.362	693
901.465	-147
901.567	1943
901.669	1751
901.771	1204
901.873	751
901.976	1218
902.078	1013
902.180	241
902.282	647
902.384	451
902.486	1696
902.588	249
902.690	-418
902.792	164
902.894	507
902.996	1075
903.098	260
903.200	878
903.302	118
903.404	947
903.505	247
903.607	1314
903.709	1355
903.811	1830
903.913	698
904.014	821
904.116	352
904.218	955
904.319	741
904.421	1440
904.523	365
904.624	786
904.726	155
904.827	698
904.929	277
905.030	1428
905.132	800
905.233	1315
905.335	572
905.436	295
905.537	177
905.639	1041
905.740	1023
905.841	1050
905.943	1360
906.044	611
906.145	-54
906.247	122
906.348	750
906.449	1605
906.550	784
906.651	930
906.752	-306
906.854	543
906.955	1085
907.056	863
907.157	843
907.258	1529
907.359	332
907.460	154
907.561	348
907.662	1003
907.762	-352
907.863	1407
907.964	1332
908.065	899
908.166	485
908.267	1000
908.367	116
908.468	92
908.569	-193
908.670	721
908.770	1152
908.871	1498
908.971	-17
909.072	835
909.173	165
909.273	67
909.374	782
909.474	514
909.575	547
909.675	289
909.776	783
909.876	171
909.977	32
910.077	917
910.177	813
910.278	579
910.378	-30
910.478	242
910.579	1413
910.679	-299
910.779	1487
910.879	1227
910.980	528
911.080	781
911.180	-288
911.280	921
911.380	-281
911.480	192
911.580	115
911.680	745
911.780	404
911.880	623
911.980	79
912.080	462
912.180	231
912.280	288
912.380	78
912.480	701
912.580	481
912.679	253
912.779	1244
912.879	1013
912.979	-3
913.078	-138
913.178	-223
913.278	332
913.377	681
913.477	623
913.577	-780
913.676	1218
913.776	922
913.875	782
913.975	-64
914.074	1052
914.174	838
914.273	432
914.373	724
914.472	837
914.572	-624
914.671	338
914.770	-91
914.870	355
914.969	605
915.068	564
915.167	668
915.267	492
915.366	606
915.465	815
915.564	425
915.663	464
915.763	422
915.862	453
915.961	1319
916.060	1064
916.159	14
916.258	454
916.357	38
916.456	24
916.555	254
916.654	835
916.752	198
916.851	466
916.950	388
917.049	101
917.148	383
917.247	1437
917.345	-647
917.444	-361
917.543	354
917.642	-923
917.740	663
917.839	1364
917.937	435
918.036	1236
918.135	325
918.233	418
918.332	-95
918.430	203
918.529	72
918.627	300
918.726	948
918.824	845
918.923	-344
919.021	772
919.119	-131
919.218	447
919.316	291
919.414	677
919.512	-38
919.611	832
919.709	889
919.807	1772
919.905	1278
920.003	1010
920.102	28
920.200	865
920.298	1037
920.396	927
920.494	625
920.592	626
920.690	820
920.788	999
920.886	767
920.984	1267
921.082	1116
921.180	1244
921.277	270
921.375	2501
921.473	3157
921.571	2404
921.669	2071
921.766	1881
921.864	1802
921.962	2428
922.060	1860
922.157	2663
922.255	1670
922.352	1893
922.450	2725
922.548	2381
922.645	2362
922.743	4547
922.840	7239
922.938	8230
923.035	6491
923.133	8023
923.230	8075
923.327	10437
923.425	8037
923.522	8855
923.619	7305
923.717	6796
923.814	6806
923.911	6632
924.008	6856
924.106	6709
924.203	6911
924.300	6605
924.397	5534
924.494	6885
924.591	6676
924.688	6529
924.786	6037
924.883	6922
924.979	6540
925.077	7136
925.173	5578
925.270	6272
925.367	7367
925.464	7158
925.561	7398
925.658	6896
925.755	5276
925.852	6775
925.948	5531
926.045	6773
926.142	5986
926.239	6729
926.335	4391
926.432	6819
926.529	6085
926.625	6936
926.722	4729
926.818	5319
926.915	6660
927.011	6308
927.108	5609
927.204	7111
927.301	3958
927.397	6050
927.494	7191
927.590	3876
927.687	4808
927.783	7943
927.879	6662
927.976	5363
928.072	4743
928.168	6165
928.264	4923
928.361	5514
928.457	6136
928.553	4493
928.649	5182
928.745	5849
928.841	4428
928.937	5388
929.033	5766
929.129	5611
929.225	5570
929.321	5337
929.417	4738
929.513	5449
929.609	5122
929.705	4664
929.801	5008
929.897	4100
929.993	4910
930.089	5525
930.184	4108
930.280	4565
930.376	6210
930.471	4509
930.567	3221
930.663	5152
930.758	4622
930.854	4491
930.950	3949
931.045	4826
931.141	4365
931.236	4935
931.332	3842
931.427	3259
931.523	4687
931.618	5371
931.714	3067
931.809	3960
931.905	4709
932.000	3098
932.095	3132
932.191	5103
932.286	5900
932.381	4525
932.476	2851
932.572	4433
932.667	3440
932.762	3722
932.857	4437
932.952	5208
933.047	4009
933.142	2962
933.237	4798
933.332	3606
933.427	4502
933.522	3336
933.617	3300
933.712	4297
933.807	4788
933.902	5033
933.997	5524
934.092	3631
934.187	3732
934.282	3280
934.376	4162
934.471	5141
934.566	3002
934.661	2739
934.755	4823
934.850	4583
934.945	3868
935.039	3278
935.134	2801
935.228	3563
935.323	5344
935.417	3721
935.512	1974
935.606	2402
935.701	3504
935.795	3983
935.890	3298
935.984	2785
936.079	2157
936.173	3267
936.267	2577
936.362	2976
936.456	3711
936.550	4565
936.644	3484
936.738	2599
936.833	2154
936.927	2347
937.021	2815
937.115	3927
937.209	2752
937.303	3901
937.397	2646
937.491	3350
937.585	3987
937.679	3694
937.773	2249
937.867	1833
937.961	2616
938.055	4655
938.149	3902
938.243	2069
938.337	1612
938.430	2181
938.524	4506
938.618	2706
938.712	1710
938.805	3028
938.899	2861
938.993	4565
939.086	2012
939.180	1071
939.274	1311
939.367	3426
939.461	4105
939.554	1924
939.648	2080
939.741	2606
939.835	2517
939.928	4392
940.022	3130
940.115	2502
940.208	2549
940.302	4075
940.395	4181
940.488	3163
940.582	2255
940.675	2218
940.768	1557
940.861	3086
940.954	3445
941.048	1831
941.141	1556
941.234	1800
941.327	1980
941.420	2536
941.513	3148
941.606	1951
941.699	1592
941.792	3469
941.885	1741
941.978	2314
942.071	3168
942.164	1771
942.257	1347
942.349	2399
942.442	2883
942.535	1450
942.628	1706
942.721	2919
942.813	2114
942.906	3485
942.999	1503
943.091	2336
943.184	1544
943.277	2589
943.369	1789
943.462	890
943.554	1548
943.647	1789
943.739	2562
943.832	3593
943.924	1164
944.017	2072
944.109	1445
944.201	2132
944.294	2069
944.386	2261
944.478	2080
944.571	2165
944.663	2041
944.755	1996
944.847	2706
944.940	1853
945.032	644
945.124	1704
945.216	2563
945.308	2880
945.400	2155
945.492	1708
945.584	2261
945.676	3110
945.768	1860
945.860	3065
945.952	2703
946.044	2046
946.136	1584
946.228	2006
946.320	1599
946.412	2102
946.503	2790
946.595	3550
946.687	1240
946.779	2046
946.870	1339
946.962	1170
947.054	1684
947.145	2676
947.237	1464
947.329	1582
947.420	2767
947.512	2343
947.603	1071
947.695	2011
947.786	634
947.878	902
947.969	2313
948.061	3116
948.152	467
948.243	17
948.335	749
948.426	-6
948.517	1366
948.609	2127
948.700	936
948.791	2340
948.882	603
948.973	544
949.065	1562
949.156	1995
949.247	888
949.338	1596
949.429	393
949.520	1007
949.611	1103
949.702	1658
949.793	1753
949.884	1355
949.975	814
950.066	636
950.157	459
950.247	728
950.338	733
950.429	1445
950.520	1073
950.611	458
950.701	1992
950.792	1776
950.883	1630
950.973	1566
951.064	1532
951.155	1332
951.245	1974
951.336	2276
951.427	554
951.517	2861
951.608	2611
951.698	1445
951.788	1700
951.879	1038
951.969	892
952.060	1017
952.150	776
952.240	2374
952.331	923
952.421	3010
952.511	1265
952.602	537
952.692	427
952.782	943
952.872	1246
952.962	1856
953.052	608
953.143	656
953.233	1474
953.323	1068
953.413	1444
953.503	2115
953.593	1465
953.683	855
953.773	165
953.863	-141
953.953	563
954.042	519
954.132	1228
954.222	892
954.312	514
954.402	530
954.492	727
954.581	1160
954.671	1577
954.761	1656
954.850	1495
954.940	1133
955.030	645
955.119	280
955.209	1020
955.298	686
955.388	1130
955.477	1699
955.567	179
955.656	1313
955.746	1462
955.835	908
955.925	722
956.014	1414
956.103	1521
956.193	1411
956.282	2011
956.371	1506
956.461	865
956.550	524
956.639	-449
956.728	905
956.817	459
956.906	1584
956.995	1201
957.085	151
957.174	307
957.263	749
957.352	698
957.441	415
957.530	981
957.619	751
957.708	897
957.796	347
957.885	905
957.974	-268
958.063	1247
958.152	-553
958.241	983
958.329	447
958.418	844
958.507	233
958.596	1231
958.684	-52
958.773	689
958.861	77
958.950	598
959.039	430
959.127	811
959.216	1748
959.304	161
959.393	260
959.481	1122
959.570	345
959.658	-394
959.746	-54
959.835	172
959.923	761
960.011	-56
960.100	1076
960.188	1039
960.276	388
960.365	333
960.453	938
960.541	-152
960.629	758
960.717	-48
960.805	-520
960.893	-346
960.981	961
961.069	1158
961.158	1738
961.245	1973
961.333	1087
961.421	878
961.509	728
961.597	498
961.685	444
961.773	157
961.861	361
961.949	1666
962.036	486
962.124	50
962.212	626
962.299	535
962.387	375
962.475	0
962.562	649
962.650	1276
962.738	324
962.825	-178
962.913	627
963.000	-494
963.088	730
963.175	260
963.263	1149
963.350	-386
963.438	503
963.525	303
963.612	392
963.700	53
963.787	1301
963.874	330
963.962	835
964.049	657
964.136	552
964.223	-759
964.310	-559
964.398	-278
964.485	404
964.572	137
964.659	442
964.746	-5
964.833	-325
964.920	-600
965.007	438
965.094	63
965.181	625
965.268	322
965.355	847
965.441	56
965.528	696
965.615	1608
965.702	608
965.789	-342
965.875	450
965.962	260
966.049	-360
966.136	2068
966.222	458
966.309	60
966.395	5
966.482	1622
966.569	396
966.655	-129
966.742	-24
966.828	-58
966.915	-67
967.001	64
967.087	-43
967.174	-30
967.260	230
967.347	661
967.433	350
967.519	43
967.605	-28
967.692	-96
967.778	-54
967.864	252
967.950	-94
968.036	-102
968.123	720
968.209	-378
968.295	-1037
968.381	590
968.467	284
968.553	-1172
968.639	844
968.725	-572
968.811	754
968.897	-236
968.983	-215
969.069	-683
969.154	650
969.240	-370
969.326	-234
969.412	-741
969.497	435
969.583	-438
969.669	1145
969.755	634
969.840	382
969.926	1028
970.012	1444
970.097	1514
970.183	1509
970.268	112
970.354	1188
970.439	-663
970.525	1330
970.610	-996
970.696	1516
970.781	-334
970.866	-485
970.952	121
971.037	102
971.122	463
971.208	939
971.293	439
971.378	-5
971.463	-410
971.549	688
971.634	-273
971.719	-190
971.804	-199
971.889	-102
971.974	-716
972.059	965
972.144	42
972.229	66
972.314	-1008
972.399	28
972.484	-438
972.569	481
972.654	-1102
972.739	597
972.824	-99
972.908	-316
972.993	-520
973.078	-38
973.163	-83
973.247	692
973.332	-1343
973.417	1627
973.501	-740
973.586	438
973.671	-5
973.755	543
973.840	182
973.924	974
974.009	574
974.093	738
974.178	1643
974.262	76
974.346	150
974.431	37
974.515	-536
974.600	371
974.684	372
974.768	898
974.852	1219
974.937	-63
975.021	513
975.105	-92
975.189	43
975.273	260
975.358	-724
975.442	-749
975.526	600
975.610	-443
975.694	-522
975.778	1185
975.862	-249
975.946	-1796
976.030	1921
976.114	202
976.198	86
976.281	272
976.365	718
976.449	-79
976.533	109
976.617	770
976.700	542
976.784	907
976.868	-109
976.951	179
977.035	-422
977.119	211
977.202	286
977.286	736
977.369	560
977.453	1741
977.536	1533
977.620	1395
977.703	878
977.787	-258
977.870	756
977.953	1441
978.037	-560
978.120	691
978.203	280
978.287	211
978.370	83
978.453	-226
978.536	41
978.620	974
978.703	175
978.786	1183
978.869	-183
978.952	-790
979.035	1115
979.118	1038
979.201	-441
979.284	567
979.367	-1107
979.450	1493
979.533	-855
979.616	261
979.699	-423
979.782	867
979.865	170
979.948	25
980.030	-809
980.113	655
980.196	-338
980.279	508
980.361	-298
980.444	287
980.526	979
980.609	1786
980.692	1301
980.774	1529
980.857	-128
980.939	1411
981.022	-323
981.104	644
981.187	-533
981.269	1426
981.352	526
981.434	-192
981.516	-404
981.599	1264
981.681	449
981.763	994
981.846	-70
981.928	297
982.010	305
982.092	-147
982.174	1735
982.256	101
982.339	423
982.421	262
982.503	426
982.585	-908
982.667	-274
982.749	1070
982.831	-230
982.913	-108
982.995	1124
983.077	-29
983.158	1300
983.240	-317
983.322	592
983.404	2424
983.486	1543
983.568	1154
983.649	994
983.731	1222
983.813	475
983.894	821
983.976	-308
984.058	248
984.139	1200
984.221	167
984.302	659
984.384	1577
984.465	90
984.547	914
984.628	-608
984.710	1844
984.791	114
984.872	1353
984.954	50
985.035	1215
985.116	623
985.198	730
985.279	1138
985.360	1130
985.441	-24
985.522	1369
985.604	-71
985.685	-335
985.766	1034
985.847	1875
985.928	557
986.009	1039
986.090	655
986.171	1369
986.252	-361
986.333	775
986.414	63
986.495	1182
986.576	426
986.656	1103
986.737	1466
986.818	1457
986.899	1042
986.980	1150
987.060	1403
987.141	39
987.222	1234
987.302	1355
987.383	2273
987.464	1309
987.544	2167
987.625	1398
987.705	1440
987.786	2057
987.866	962
987.947	1528
988.027	1406
988.108	742
988.188	1078
988.268	1735
988.349	1345
988.429	1428
988.509	1588
988.589	1373
988.670	7
988.750	2134
988.830	842
988.910	1897
988.990	1080
989.070	560
989.151	1140
989.231	1237
989.311	2202
989.391	1343
989.471	705
989.551	1072
989.631	1450
989.711	1848
989.791	-549
989.870	884
989.950	1214
990.030	1855
990.110	857
990.190	96
990.269	-133
990.349	416
990.429	971
990.509	1438
990.588	-55
990.668	1168
990.747	576
990.827	700
990.907	1197
990.986	865
991.066	1076
991.145	485
991.225	346
991.304	1056
991.383	759
991.463	831
991.542	545
991.622	484
991.701	-352
991.780	34
991.859	559
991.939	174
992.018	530
992.097	1353
992.176	835
992.256	585
992.335	-107
992.414	901
992.493	-148
992.572	311
992.651	1607
992.730	153
992.809	582
992.888	-282
992.967	-265
993.046	504
993.125	-960
993.203	409
993.282	-185
993.361	577
993.440	-27
993.519	485
993.597	231
993.676	-404
993.755	126
993.834	770
993.912	-1703
993.991	681
994.069	-826
994.148	50
994.226	-793
994.305	544
994.384	-640
994.462	755
994.540	-1117
994.619	-213
994.697	668
994.776	-110
994.854	-482
994.932	384
995.011	7
995.089	101
995.167	-462
995.245	296
995.324	-1472
995.402	1127
995.480	187
995.558	263
995.636	-1003
995.714	-37
995.792	1234
995.870	-47
995.948	-200
996.026	658
996.104	-1426
996.182	152
996.260	-1207
996.338	-339
996.416	-1441
996.494	-305
996.572	557
996.649	150
996.727	-439
996.805	-253
996.883	-928
996.960	-425
997.038	-317
997.116	-159
997.193	-1091
997.271	531
997.348	-924
997.426	-164
997.504	-1615
997.581	-172
997.658	-955
997.736	-1054
997.813	-1237
997.891	106
997.968	-581
998.046	-525
998.123	185
998.200	-70
998.277	-1198
998.355	439
998.432	-2532
998.509	-700
998.586	-488
998.663	90
998.741	-1312
998.818	-923
998.895	-62
998.972	-458
999.049	-677
999.126	-705
999.203	-550
999.280	-864
999.357	-357
999.434	-391
999.511	-679
999.587	125
999.664	-1319
999.741	-12
999.818	-601
999.895	-887
999.971	-1045
1000.048	-950
1000.125	196
1000.202	-1106
1000.278	-1019
1000.355	-266
1000.431	-872
1000.508	-1199
1000.584	-588
1000.661	-214
1000.738	-1788
1000.814	-1027
1000.890	-456
1000.967	-245
1001.043	-428
1001.120	-1799
1001.196	-393
1001.272	-1014
1001.349	-1078
1001.425	-283
1001.501	-1028
1001.577	-1084
1001.654	-767
1001.730	-1471
1001.806	-1279
1001.882	-1739
1001.958	-1013
1002.034	-874
1002.110	-1214
1002.186	-1300
1002.262	-1930
1002.338	-1292
1002.414	-1897
1002.490	23
1002.566	-1362
1002.642	-1489
1002.718	-471
1002.794	-993
1002.870	-1654
1002.945	-936
1003.021	-1263
1003.097	-1114
1003.173	-532
1003.248	-806
1003.324	-1212
1003.400	-1047
1003.475	-1743
1003.551	-1142
1003.626	-418
1003.702	-1229
1003.777	-675
1003.853	-1301
1003.928	-2292
1004.004	-1052
1004.079	-395
1004.155	-941
1004.230	-1492
1004.305	282
1004.381	-2620
1004.456	-485
1004.531	-817
1004.607	-295
1004.682	-1304
1004.757	-500
1004.832	-998
1004.907	-1017
1004.982	-834
1005.057	-439
1005.133	-1251
1005.208	-994
1005.283	-1675
1005.358	-436
1005.433	-1359
1005.508	-777
1005.583	-1325
1005.657	-421
1005.732	-446
1005.807	-1069
1005.882	-1518
1005.957	-1105
1006.032	-313
1006.106	-1281
1006.181	-789
1006.256	-467
1006.331	-1373
1006.405	-1307
1006.480	-1365
1006.554	-1833
1006.629	-1230
1006.704	-1159
1006.778	-1884
1006.853	-302
1006.927	-1604
1007.002	-1743
1007.076	-1757
1007.150	-1264
1007.225	-1095
1007.299	-1428
1007.373	-1843
1007.448	-562
1007.522	-429
1007.596	-835
1007.671	-1688
1007.745	-475
1007.819	-1686
1007.893	-1886
1007.967	-1502
1008.041	-1808
1008.115	-930
1008.190	-1482
1008.264	-1087
1008.338	-2220
1008.412	-663
1008.486	-682
1008.560	-1245
1008.633	-1745
1008.707	-1493
1008.781	-588
1008.855	-1774
1008.929	-365
1009.003	-1495
1009.076	-1123
1009.150	-1211
1009.224	-998
1009.298	-1592
1009.371	-1638
1009.445	-1227
1009.519	-22
1009.592	-2157
1009.666	-446
1009.739	-954
1009.813	-1560
1009.886	-371
1009.960	-2112
1010.033	-1291
1010.107	-635
1010.180	-2135
1010.253	-510
1010.327	-2491
1010.400	-1497
1010.473	-853
1010.547	-350
1010.620	-1817
1010.693	-477
1010.766	-1524
1010.840	-225
1010.913	-1221
1010.986	-1399
1011.059	-1589
1011.132	-1258
1011.205	-965
1011.278	-951
1011.351	-1220
1011.424	-685
1011.497	-2325
1011.570	-1094
1011.643	-1523
1011.716	-1408
1011.789	-1933
1011.862	-647
1011.934	-696
1012.007	-1732
1012.080	-789
1012.153	-1659
1012.225	-938
1012.298	-1590
1012.371	-2000
1012.443	-1202
1012.516	-1648
1012.588	-1131
1012.661	-1444
1012.733	-1253
1012.806	-308
1012.879	-1546
1012.951	-1294
1013.023	-1508
1013.096	-882
1013.168	-1430
1013.241	-804
1013.313	-597
1013.385	-1849
1013.458	-902
1013.530	208
1013.602	-1285
1013.674	-788
1013.746	-1417
1013.819	-2210
1013.891	-449
1013.963	-2323
1014.035	-1218
1014.107	-1934
1014.179	-903
1014.251	-2206
1014.323	-705
1014.395	-1615
1014.467	-1948
1014.539	-1183
1014.611	-1780
1014.683	-1482
1014.754	-876
1014.826	-2048
1014.898	-1529
1014.970	-1977
1015.042	-316
1015.113	-1081
1015.185	-1626
1015.257	-2404
1015.328	-1171
1015.400	-1213
1015.471	-987
1015.543	-2392
1015.615	-918
1015.686	-1547
1015.757	-1072
1015.829	-642
1015.901	-1601
1015.972	-950
1016.043	-1418
1016.115	-1476
1016.186	-1667
1016.257	-1802
1016.328	-1681
1016.400	-840
1016.471	-2427
1016.542	-1149
1016.613	-1848
1016.685	-1772
1016.756	-463
1016.827	-1360
1016.898	-1402
1016.969	-1007
1017.040	-695
1017.111	-2125
1017.182	-1373
1017.253	-1254
1017.324	-1496
1017.395	-1884
1017.466	-794
1017.537	-2174
1017.608	-570
1017.678	-2255
1017.749	-1667
1017.820	-1624
1017.891	-2111
1017.961	-1145
1018.032	-901
1018.103	-1564
1018.173	-934
1018.244	-1539
1018.315	-1690
1018.385	-1022
1018.456	-632
1018.526	-2058
1018.597	-1643
1018.667	-1575
1018.738	-2560
1018.808	-1051
1018.878	-2079
1018.949	-1513
1019.019	-1910
1019.089	-1982
1019.160	-1020
1019.230	-2481
1019.300	-115
1019.371	-2104
1019.441	-310
1019.511	-1512
1019.581	-1185
1019.651	-1607
1019.721	-1017
1019.791	-1564
1019.861	-932
1019.931	-992
1020.001	-1837
1020.071	-1602
1020.141	-1053
1020.211	-1503
1020.281	-1798
1020.351	-1046
1020.421	-1056
1020.491	-1765
1020.560	-2077
1020.630	-2009
1020.700	-1239
1020.770	-1871
1020.839	-1675
1020.909	-1922
1020.979	-1719
1021.048	-1685
1021.118	-1033
1021.187	-2351
1021.257	-1289
1021.326	-985
1021.396	-2121
1021.465	-1765
1021.535	-1569
1021.604	-2086
1021.674	-913
1021.743	-1412
1021.812	-1448
1021.882	-1639
1021.951	-1749
1022.020	-1295
1022.089	-1999
1022.159	-1515
1022.228	-1656
1022.297	-2186
1022.366	-1872
1022.435	-1589
1022.504	-1390
1022.573	-2244
1022.642	-1677
1022.711	-1880
1022.781	-682
1022.849	-1534
1022.918	-1772
1022.987	-2130
1023.056	-1242
1023.125	-1921
1023.194	-1200
1023.263	-1445
1023.331	-1392
1023.400	-2186
1023.469	-913
1023.538	-1477
1023.606	-1942
1023.675	-1638
1023.744	-1617
1023.812	-2561
1023.881	-2277
1023.949	-1501
1024.018	-1722
1024.086	-2146
1024.155	-1326
1024.223	-2638
1024.292	-1054
1024.360	-1305
1024.429	-1506
1024.497	-1510
1024.565	-2072
1024.634	-1343
1024.702	-1474
1024.770	-1691
1024.838	-1733
1024.907	-1344
1024.975	-1846
1025.043	-1217
1025.111	-1328
1025.179	-1913
1025.247	-1832
1025.315	-1087
1025.383	-1525
1025.451	-2066
1025.519	-933
1025.587	-2049
1025.655	-1611
1025.723	-1674
1025.791	-1658
1025.859	-2175
1025.927	-1242
1025.995	-1982
1026.062	-1427
1026.130	-1689
1026.198	-2194
1026.266	-1755
1026.333	-986
1026.401	-1572
1026.469	-1713
1026.536	-1320
1026.604	-1738
1026.671	-2323
1026.739	-1023
1026.806	-1869
1026.874	-2084
1026.941	-2070
1027.009	-1410
1027.076	-2438
1027.144	-785
1027.211	-1871
1027.278	-2043
1027.345	-1882
1027.413	-2214
1027.480	-2068
1027.547	-1024
1027.614	-1833
1027.682	-1926
1027.749	-2528
1027.816	-1647
1027.883	-1846
1027.950	-1126
1028.017	-2938
1028.084	-1690
1028.151	-2454
1028.218	-1931
1028.285	-1329
1028.352	-1203
1028.419	-2399
1028.486	-2163
1028.553	-1898
1028.619	-1573
1028.686	-2181
1028.753	-1575
1028.820	-2371
1028.886	-1631
1028.953	-1441
1029.020	-2160
1029.086	-2491
1029.153	-1576
1029.220	-2288
1029.286	-1532
1029.353	-1666
1029.419	-2096
1029.486	-2207
1029.552	-2024
1029.619	-1696
1029.685	-2075
1029.751	-1799
1029.818	-977
1029.884	-2280
1029.951	-1480
1030.017	-2467
1030.083	-1810
1030.149	-2008
1030.216	-1723
1030.282	-1884
1030.348	-1234
1030.414	-2824
1030.480	-1215
1030.546	-1968
1030.612	-1757
1030.678	-2120
1030.744	-1723
1030.810	-1930
1030.876	-1850
1030.942	-1971
1031.008	-2728
1031.074	-2178
1031.140	-1534
1031.206	-1481
1031.272	-1881
1031.337	-1889
1031.403	-2481
1031.469	-1986
1031.534	-2430
1031.600	-2088
1031.666	-2288
1031.731	-2228
1031.797	-2226
1031.863	-2471
1031.928	-1863
1031.994	-1864
1032.059	-1183
1032.125	-2039
1032.190	-2007
1032.256	-2529
1032.321	-1796
1032.386	-2514
1032.452	-2048
1032.517	-2822
1032.582	-2647
1032.647	-2023
1032.713	-1775
1032.778	-1451
1032.843	-2336
1032.908	-2431
1032.974	-1887
1033.039	-1331
1033.104	-1638
1033.169	-2942
1033.234	-2116
1033.299	-2003
1033.364	-1751
1033.429	-1986
1033.494	-1350
1033.559	-2302
1033.624	-2325
1033.688	-2000
1033.753	-2417
1033.818	-2211
1033.883	-1779
1033.948	-3332
1034.013	-1721
1034.077	-2131
1034.142	-1667
1034.207	-1182
1034.271	-755
1034.336	-1636
1034.400	-1234
1034.465	-2777
1034.530	-1981
1034.594	-2079
1034.658	-2173
1034.723	-2687
1034.787	-2231
1034.852	-2488
1034.916	-1855
1034.981	-1761
1035.045	-1593
1035.109	-2832
1035.173	-2005
1035.238	-2296
1035.302	-1473
1035.366	-1823
1035.430	-2250
1035.495	-2258
1035.559	-2019
1035.623	-2327
1035.687	-1688
1035.751	-1793
1035.815	-1734
1035.879	-2300
1035.943	-2307
1036.007	-1529
1036.071	-1608
1036.135	-2502
1036.198	-2368
1036.262	-2569
1036.326	-2276
1036.390	-2346
1036.454	-1543
1036.517	-2333
1036.581	-2262
1036.645	-2537
1036.709	-2151
1036.772	-2120
1036.836	-1954
1036.900	-2373
1036.963	-2140
1037.026	-2619
1037.090	-2162
1037.154	-2234
1037.217	-1933
1037.280	-2966
1037.344	-1968
1037.407	-2651
1037.471	-2820
1037.534	-2511
1037.597	-1873
1037.661	-2919
1037.724	-2220
1037.787	-2434
1037.850	-2206
1037.913	-2731
1037.977	-1818
1038.040	-2156
1038.103	-1812
1038.166	-2252
1038.229	-1665
1038.292	-2318
1038.355	-2624
1038.418	-1645
1038.481	-1519
1038.544	-2510
1038.607	-1732
1038.670	-2200
1038.732	-1832
1038.795	-2528
1038.858	-2404
1038.921	-1253
1038.984	-2022
1039.046	-2829
1039.109	-2845
1039.172	-2805
1039.234	-1683
1039.297	-2109
1039.360	-1686
1039.422	-2322
1039.485	-1511
1039.547	-2868
1039.610	-2075
1039.672	-2402
1039.734	-1812
1039.797	-2532
1039.859	-1519
1039.922	-2780
1039.984	-1871
1040.046	-1991
1040.109	-1586
1040.171	-2886
1040.233	-2706
1040.295	-2285
1040.358	-2522
1040.420	-2241
1040.482	-1956
1040.544	-2237
1040.606	-1744
1040.668	-1948
1040.730	-2143
1040.792	-2575
1040.854	-2886
1040.916	-1762
1040.978	-2437
1041.040	-1873
1041.102	-1862
1041.164	-2931
1041.225	-2943
1041.287	-2078
1041.349	-1813
1041.411	-2632
1041.472	-2240
1041.534	-2309
1041.596	-2465
1041.657	-2421
1041.719	-2280
1041.781	-2191
1041.842	-2557
1041.904	-1347
1041.965	-2179
1042.027	-2710
1042.088	-2266
1042.150	-2153
1042.211	-2668
1042.272	-2029
1042.334	-2022
1042.395	-2693
1042.456	-1938
1042.518	-2262
1042.579	-1840
1042.640	-2684
1042.701	-2692
1042.763	-2615
1042.824	-2090
1042.885	-2926
1042.946	-2093
1043.007	-2389
1043.068	-1907
1043.129	-2356
1043.190	-1780
1043.251	-1999
1043.312	-2724
1043.373	-2515
1043.434	-1891
1043.495	-1398
1043.556	-2052
1043.616	-2603
1043.677	-1067
1043.738	-1901
1043.799	-1677
1043.859	-1900
1043.920	-1905
1043.981	-1726
1044.041	-2156
1044.102	-2043
1044.162	-1994
1044.223	-2342
1044.284	-2154
1044.344	-2107
1044.405	-2525
1044.465	-2407
1044.525	-1753
1044.586	-1560
1044.646	-1674
1044.707	-1973
1044.767	-1774
1044.827	-1832
1044.887	-2203
1044.948	-1702
1045.008	-1319
1045.068	-2217
1045.128	-854
1045.188	-1635
1045.249	-830
1045.309	-1523
1045.369	-1962
1045.429	-2516
1045.489	-2018
1045.549	-1598
1045.609	-1797
1045.669	-3133
1045.729	-2213
1045.789	-2941
1045.848	-1180
1045.908	-2051
1045.968	-1731
1046.028	-1834
1046.088	-1912
1046.147	-1310
1046.207	-1168
1046.267	-1752
1046.326	-1823
1046.386	-1326
1046.446	-1732
1046.505	-962
1046.565	-951
1046.624	-1095
1046.684	-1543
1046.743	-784
1046.803	-479
1046.862	-894
1046.922	0
