'Start Wavelength	183.907
'End Wavelength	1046.922
'Gate Delay	5.000
'Gate Width (ms)	1.050
'Laser Output Level	0.000
'X Position	0.000
'Y Position	0.000
'Z Position	0.000
'Grid Point Number	1.000
'Shot Number	100.000
183.907	465.000
183.977	190.000
184.047	343
184.116	109
184.186	58
184.256	-142
184.325	-360
184.395	-206
184.465	404
184.534	-630
184.604	90
184.674	528
184.743	0
184.813	266
184.883	-6
184.952	-598
185.022	768
185.092	431
185.161	754
185.231	391
185.301	-274
185.370	273
185.440	-346
185.509	-369
185.579	245
185.649	-334
185.718	416
185.788	-311
185.857	337
185.927	-64
185.996	104
186.066	-64
186.136	528
186.205	-184
186.275	414
186.344	380
186.414	32
186.483	-432
186.553	442
186.622	267
186.692	-316
186.761	193
186.831	539
186.900	-1323
186.970	-145
187.039	287
187.109	238
187.178	910
187.248	237
187.317	444
187.387	-199
187.456	-48
187.526	457
187.595	33
187.664	756
187.734	174
187.803	162
187.873	270
187.942	110
188.012	254
188.081	-440
188.150	-423
188.220	58
188.289	-47
188.358	-368
188.428	-187
188.497	78
188.567	-536
188.636	-745
188.705	-567
188.775	-28
188.844	-1290
188.913	217
188.983	309
189.052	809
189.121	-608
189.191	-1022
189.260	383
189.329	217
189.399	112
189.468	-260
189.537	226
189.606	154
189.676	419
189.745	486
189.814	535
189.883	597
189.953	-631
190.022	141
190.091	-554
190.161	310
190.230	749
190.299	-330
190.368	-657
190.437	-164
190.507	-487
190.576	395
190.645	-219
190.714	-465
190.783	-158
190.853	643
190.922	380
190.991	-37
191.060	509
191.129	-938
191.198	359
191.268	118
191.337	437
191.406	868
191.475	-399
191.544	78
191.613	585
191.682	355
191.752	-284
191.821	-334
191.890	-309
191.959	597
192.028	11
192.097	570
192.166	1127
192.235	-256
192.304	-589
192.373	768
192.442	279
192.511	-55
192.580	-178
192.650	998
192.719	62
192.788	1021
192.857	323
192.926	-417
192.995	-695
193.064	-191
193.133	-109
193.202	-98
193.271	312
193.340	565
193.409	324
193.478	585
193.547	-139
193.615	67
193.684	252
193.753	351
193.822	267
193.891	49
193.960	447
194.029	-84
194.098	-6
194.167	-15
194.236	815
194.305	125
194.374	-203
194.443	145
194.512	-260
194.580	276
194.649	618
194.718	975
194.787	449
194.856	-42
194.925	1130
194.994	-563
195.062	498
195.131	433
195.200	295
195.269	106
195.338	50
195.407	221
195.475	-12
195.544	73
195.613	101
195.682	64
195.751	693
195.819	215
195.888	-6
195.957	366
196.026	651
196.094	819
196.163	-157
196.232	837
196.301	-375
196.369	-12
196.438	87
196.507	422
196.576	-574
196.644	583
196.713	278
196.782	-324
196.850	155
196.919	420
196.988	436
197.056	-47
197.125	-210
197.194	1134
197.262	20
197.331	-564
197.400	-10
197.468	293
197.537	-224
197.606	497
197.674	431
197.743	562
197.812	-834
197.880	1249
197.949	24
198.017	691
198.086	374
198.155	-80
198.223	344
198.292	288
198.360	100
198.429	256
198.497	166
198.566	-6
198.635	678
198.703	1242
198.772	459
198.840	-286
198.909	154
198.977	255
199.046	-228
199.114	297
199.183	-476
199.251	976
199.320	-473
199.388	498
199.457	-666
199.525	283
199.594	-555
199.662	24
199.731	635
199.799	350
199.867	636
199.936	-226
200.004	288
200.073	814
200.141	-122
200.210	304
200.278	-369
200.346	34
200.415	214
200.483	422
200.552	66
200.620	549
200.688	163
200.757	1102
200.825	-404
200.893	-114
200.962	-132
201.030	38
201.098	-39
201.167	852
201.235	-206
201.303	-11
201.372	-18
201.440	-189
201.508	-44
201.577	366
201.645	-208
201.713	682
201.781	-393
201.850	1112
201.918	530
201.986	65
202.055	1208
202.123	1117
202.191	-241
202.259	402
202.327	293
202.396	851
202.464	-134
202.532	798
202.600	669
202.669	834
202.737	264
202.805	-512
202.873	-140
202.941	533
203.009	683
203.078	534
203.146	109
203.214	-348
203.282	-213
203.350	902
203.418	-456
203.487	332
203.555	618
203.623	493
203.691	668
203.759	-486
203.827	656
203.895	-212
203.963	-286
204.031	-89
204.099	-284
204.168	-338
204.236	962
204.304	353
204.372	-230
204.440	217
204.508	861
204.576	-512
204.644	-82
204.712	223
204.780	257
204.848	447
204.916	-318
204.984	-43
205.052	1122
205.120	605
205.188	202
205.256	72
205.324	183
205.392	144
205.460	-428
205.528	95
205.596	486
205.664	918
205.732	107
205.799	479
205.867	1286
205.935	185
206.003	698
206.071	304
206.139	639
206.207	898
206.275	459
206.343	545
206.411	467
206.478	370
206.546	137
206.614	-245
206.682	915
206.750	398
206.818	544
206.885	570
206.953	-254
207.021	1210
207.089	202
207.157	-34
207.225	360
207.292	503
207.360	1048
207.428	-66
207.496	283
207.563	608
207.631	206
207.699	888
207.767	137
207.834	-58
207.902	247
207.970	503
208.038	14
208.105	60
208.173	627
208.241	163
208.309	611
208.376	1661
208.444	1402
208.512	278
208.579	-1122
208.647	1232
208.715	1186
208.782	297
208.850	600
208.918	-42
208.985	568
209.053	514
209.120	570
209.188	591
209.256	117
209.323	-304
209.391	707
209.459	1364
209.526	1008
209.594	771
209.661	184
209.729	985
209.796	181
209.864	898
209.932	-287
209.999	1263
210.067	1295
210.134	516
210.202	40
210.269	811
210.337	902
210.404	862
210.472	1281
210.539	538
210.607	730
210.674	535
210.742	737
210.809	304
210.877	-110
210.944	839
211.012	104
211.079	2290
211.146	744
211.214	821
211.281	666
211.349	726
211.416	578
211.484	986
211.551	355
211.618	603
211.686	1345
211.753	192
211.821	886
211.888	848
211.955	522
212.023	912
212.090	1216
212.157	1094
212.225	1519
212.292	2426
212.359	1425
212.427	2100
212.494	1102
212.561	630
212.629	621
212.696	695
212.763	788
212.831	516
212.898	517
212.965	-314
213.032	765
213.100	961
213.167	123
213.234	1535
213.301	1597
213.369	1409
213.436	262
213.503	76
213.570	858
213.638	676
213.705	-515
213.772	192
213.839	457
213.906	1135
213.973	688
214.041	813
214.108	961
214.175	1367
214.242	664
214.309	957
214.376	642
214.444	190
214.511	709
214.578	1548
214.645	1033
214.712	504
214.779	-112
214.846	158
214.913	1597
214.980	1465
215.048	337
215.115	1242
215.182	45
215.249	1292
215.316	237
215.383	938
215.450	-12
215.517	1660
215.584	676
215.651	651
215.718	991
215.785	686
215.852	559
215.919	1052
215.986	920
216.053	1038
216.120	729
216.187	729
216.254	242
216.321	775
216.388	1061
216.455	701
216.522	1145
216.589	991
216.656	1650
216.722	1199
216.789	1437
216.856	1403
216.923	1072
216.990	2183
217.057	1186
217.124	1371
217.191	1131
217.258	2334
217.324	2348
217.391	1721
217.458	1590
217.525	927
217.592	1157
217.659	299
217.725	1176
217.792	614
217.859	1084
217.926	65
217.993	206
218.059	1620
218.126	149
218.193	966
218.260	486
218.327	1133
218.393	813
218.460	616
218.527	111
218.594	751
218.660	1056
218.727	1792
218.794	-255
218.860	758
218.927	-378
218.994	1325
219.061	188
219.127	785
219.194	429
219.261	11
219.327	505
219.394	477
219.461	-134
219.527	-130
219.594	462
219.661	332
219.727	-18
219.794	894
219.860	-601
219.927	918
219.994	380
220.060	1122
220.127	834
220.193	1357
220.260	484
220.326	1876
220.393	2446
220.460	3014
220.526	1638
220.593	1931
220.659	3190
220.726	1195
220.792	2746
220.859	2680
220.925	3625
220.992	4225
221.058	3515
221.125	2512
221.191	1682
221.258	1168
221.324	707
221.391	1380
221.457	-174
221.524	1205
221.590	1840
221.657	1915
221.723	1726
221.789	890
221.856	1549
221.922	230
221.989	646
222.055	511
222.121	-262
222.188	2377
222.254	299
222.321	600
222.387	-544
222.453	617
222.520	359
222.586	335
222.652	293
222.719	253
222.785	929
222.851	148
222.918	416
222.984	966
223.050	550
223.116	-967
223.183	1835
223.249	206
223.315	14
223.382	390
223.448	478
223.514	210
223.580	110
223.647	-369
223.713	-432
223.779	170
223.845	269
223.911	1028
223.978	-151
224.044	1133
224.110	52
224.176	958
224.242	384
224.309	-607
224.375	453
224.441	875
224.507	-752
224.573	-443
224.639	727
224.705	-56
224.772	787
224.838	741
224.904	852
224.970	188
225.036	274
225.102	-165
225.168	758
225.234	1400
225.300	482
225.366	468
225.432	619
225.499	326
225.565	278
225.631	97
225.697	-223
225.763	1277
225.829	1231
225.895	1585
225.961	1475
226.027	1954
226.093	1902
226.159	2244
226.225	2336
226.291	4350
226.357	6304
226.423	4087
226.489	3247
226.554	2477
226.620	2344
226.686	2092
226.752	3763
226.818	4456
226.884	5481
226.950	6200
227.016	3404
227.082	3046
227.148	1975
227.214	1515
227.279	1138
227.345	1232
227.411	592
227.477	777
227.543	1133
227.609	1577
227.674	1626
227.740	1320
227.806	916
227.872	559
227.938	981
228.003	1075
228.069	1115
228.135	609
228.201	906
228.267	730
228.332	709
228.398	-85
228.464	806
228.530	219
228.595	371
228.661	-191
228.727	588
228.792	2255
228.858	-221
228.924	-667
228.990	1821
229.055	-271
229.121	301
229.187	537
229.252	735
229.318	195
229.384	583
229.449	259
229.515	-1492
229.581	-736
229.646	1987
229.712	235
229.777	134
229.843	517
229.909	1018
229.974	1146
230.040	1062
230.105	485
230.171	501
230.236	1394
230.302	1452
230.368	1819
230.433	2898
230.499	1554
230.564	1168
230.630	60
230.695	1022
230.761	1594
230.826	-846
230.892	992
230.957	173
231.023	335
231.088	860
231.154	1441
231.219	922
231.284	336
231.350	1613
231.415	-782
231.481	831
231.546	461
231.612	25
231.677	100
231.742	-181
231.808	1840
231.873	-1138
231.939	-1384
232.004	1305
232.069	1528
232.135	234
232.200	-108
232.265	754
232.331	-584
232.396	117
232.461	-125
232.527	4
232.592	136
232.657	261
232.723	220
232.788	-44
232.853	1412
232.918	479
232.984	-418
233.049	57
233.114	53
233.179	708
233.245	1063
233.310	1748
233.375	51
233.440	1397
233.506	1780
233.571	2652
233.636	515
233.701	666
233.766	434
233.832	1773
233.897	-3
233.962	-1094
234.027	2353
234.092	588
234.157	494
234.222	306
234.288	-393
234.353	1533
234.418	1282
234.483	1201
234.548	698
234.613	450
234.678	1612
234.743	1277
234.808	3795
234.873	294
234.938	1970
235.004	1059
235.069	982
235.134	670
235.199	980
235.264	538
235.329	-1005
235.394	1458
235.459	1128
235.524	289
235.589	2034
235.654	-43
235.719	-835
235.784	987
235.849	882
235.913	774
235.978	1889
236.043	1816
236.108	999
236.173	13
236.238	1409
236.303	686
236.368	897
236.433	1578
236.498	834
236.563	2450
236.627	4175
236.692	7852
236.757	8819
236.822	5372
236.887	3286
236.952	3176
237.017	1396
237.081	3301
237.146	2948
237.211	6529
237.276	9915
237.341	9983
237.405	8046
237.470	4810
237.535	3151
237.600	2218
237.664	1989
237.729	447
237.794	1248
237.859	4715
237.923	3324
237.988	2007
238.053	3413
238.118	886
238.182	2891
238.247	4243
238.312	1198
238.376	1163
238.441	-304
238.506	2111
238.570	-342
238.635	1737
238.700	918
238.764	-17
238.829	795
238.893	759
238.958	1962
239.023	1326
239.087	741
239.152	1376
239.216	110
239.281	966
239.346	1265
239.410	847
239.475	690
239.539	3166
239.604	1530
239.668	1416
239.733	668
239.797	638
239.862	2745
239.926	3055
239.991	1691
240.055	947
240.120	523
240.184	713
240.249	354
240.313	273
240.378	271
240.442	1637
240.507	2810
240.571	1044
240.635	890
240.700	1451
240.764	949
240.829	929
240.893	-222
240.957	877
241.022	1249
241.086	3004
241.151	746
241.215	318
241.279	1497
241.344	943
241.408	1613
241.472	284
241.537	2602
241.601	704
241.665	371
241.730	1716
241.794	2188
241.858	383
241.922	495
241.987	1433
242.051	1601
242.115	-145
242.179	1561
242.244	457
242.308	1125
242.372	1240
242.436	956
242.501	1298
242.565	-297
242.629	753
242.693	1123
242.757	-271
242.822	1109
242.886	1219
242.950	1909
243.014	195
243.078	1131
243.142	1260
243.206	1150
243.271	1546
243.335	1103
243.399	1915
243.463	4078
243.527	10190
243.591	4228
243.655	2198
243.719	806
243.783	1849
243.847	1983
243.911	2053
243.975	2479
244.040	1171
244.104	3139
244.168	542
244.232	1376
244.296	1952
244.360	1670
244.424	-546
244.488	1582
244.552	1553
244.615	-251
244.679	1065
244.743	865
244.807	911
244.871	760
244.935	999
244.999	191
245.063	1242
245.127	1472
245.191	1741
245.255	1901
245.319	1493
245.383	-316
245.446	2264
245.510	254
245.574	1045
245.638	1891
245.702	-221
245.766	1740
245.829	2366
245.893	694
245.957	419
246.021	1335
246.085	843
246.149	2098
246.212	3534
246.276	3953
246.340	1986
246.404	1930
246.467	1844
246.531	439
246.595	1884
246.659	2279
246.722	-251
246.786	2193
246.850	1553
246.913	2095
246.977	-195
247.041	1947
247.104	999
247.168	1799
247.232	2247
247.295	5667
247.359	3813
247.423	1409
247.486	2331
247.550	2199
247.614	201
247.677	1474
247.741	1582
247.804	1180
247.868	2103
247.932	1709
247.995	5854
248.059	2299
248.122	798
248.186	3041
248.249	3260
248.313	7998
248.376	9214
248.440	6816
248.503	2278
248.567	3530
248.630	2716
248.694	4284
248.757	6048
248.821	9616
248.884	8520
248.948	5970
249.011	8114
249.075	9951
249.138	9997
249.202	5573
249.265	2505
249.328	3261
249.392	2478
249.455	3286
249.519	1819
249.582	2841
249.645	4707
249.709	3836
249.772	3289
249.835	3282
249.899	2290
249.962	1628
250.025	960
250.089	3778
250.152	6374
250.215	3562
250.279	1706
250.342	2726
250.405	2226
250.468	1849
250.532	2567
250.595	4437
250.658	8386
250.721	15070
250.785	7913
250.848	5649
250.911	2384
250.974	2503
251.038	2609
251.101	7393
251.164	3750
251.227	4431
251.290	3004
251.354	4769
251.417	11870
251.480	15162
251.543	10888
251.606	21182
251.669	19734
251.732	10408
251.795	8920
251.859	9549
251.922	14907
251.985	12379
252.048	5685
252.111	4231
252.174	3252
252.237	6113
252.300	11522
252.363	11604
252.426	19478
252.489	9883
252.552	5889
252.615	4494
252.678	5005
252.741	8835
252.804	10067
252.867	20658
252.930	14443
252.993	8178
253.056	6524
253.119	4386
253.182	2330
253.245	4813
253.308	5039
253.371	3207
253.434	3904
253.497	3362
253.559	5517
253.622	4960
253.685	5511
253.748	6390
253.811	2601
253.874	4137
253.937	2849
254.000	3388
254.062	4020
254.125	6878
254.188	6305
254.251	5513
254.314	2790
254.376	4423
254.439	5516
254.502	5505
254.565	3602
254.628	8045
254.690	4987
254.753	2745
254.816	1393
254.878	3243
254.941	4218
255.004	4570
255.067	2063
255.129	2335
255.192	1183
255.255	736
255.317	1687
255.380	1787
255.443	915
255.505	371
255.568	745
255.631	565
255.693	1304
255.756	684
255.819	1957
255.881	797
255.944	1931
256.006	547
256.069	1204
256.132	1159
256.194	1582
256.257	2616
256.319	2875
256.382	2179
256.444	2716
256.507	1969
256.569	1549
256.632	1773
256.694	2030
256.757	7510
256.819	17769
256.882	10378
256.944	4614
257.007	4188
257.069	2601
257.132	1821
257.194	2832
257.257	2257
257.319	1661
257.381	2536
257.444	6607
257.506	17892
257.569	22803
257.631	11130
257.693	6080
257.756	3551
257.818	1960
257.880	2630
257.943	2550
258.005	1775
258.067	1317
258.130	1861
258.192	1552
258.254	2480
258.317	1940
258.379	2027
258.441	2877
258.503	4079
258.566	2892
258.628	4464
258.690	898
258.753	1870
258.815	2990
258.877	1133
258.939	1761
259.001	1947
259.064	982
259.126	698
259.188	2334
259.250	2298
259.312	1249
259.375	2077
259.437	2403
259.499	1615
259.561	611
259.623	2211
259.685	1545
259.747	2109
259.809	2723
259.872	5577
259.934	8629
259.996	11087
260.058	3783
260.120	1310
260.182	790
260.244	1463
260.306	879
260.368	2019
260.430	193
260.492	3895
260.554	5009
260.616	2272
260.678	3565
260.740	6739
260.802	1695
260.864	1944
260.926	398
260.988	1730
261.050	1736
261.112	3184
261.174	9370
261.236	5580
261.298	2344
261.359	2642
261.421	4442
261.483	383
261.545	1959
261.607	-190
261.669	1537
261.731	851
261.793	4446
261.854	1358
261.916	2710
261.978	2213
262.040	2198
262.102	2062
262.164	2417
262.225	1731
262.287	1113
262.349	2081
262.411	2206
262.472	2038
262.534	1504
262.596	3866
262.658	1474
262.719	588
262.781	1986
262.843	2897
262.904	2295
262.966	1866
263.028	1978
263.090	5692
263.151	15582
263.213	7635
263.275	5085
263.336	1933
263.398	1454
263.459	1308
263.521	1106
263.583	3447
263.644	2275
263.706	878
263.767	713
263.829	-1
263.891	545
263.952	402
264.014	174
264.075	1472
264.137	5908
264.198	3647
264.260	833
264.321	1468
264.383	2207
264.444	8529
264.506	2924
264.567	2121
264.629	3123
264.690	6587
264.752	3185
264.813	2459
264.875	1295
264.936	1881
264.998	1667
265.059	472
265.120	820
265.182	2176
265.243	11835
265.305	15183
265.366	4843
265.427	2433
265.489	1344
265.550	95
265.611	1949
265.673	2720
265.734	1712
265.795	1642
265.857	1024
265.918	1466
265.979	4216
266.040	15229
266.102	18138
266.163	6956
266.224	3974
266.286	1950
266.347	1550
266.408	1585
266.469	1379
266.530	1831
266.592	1441
266.653	3027
266.714	4123
266.775	1886
266.836	1837
266.898	392
266.959	1508
267.020	2816
267.081	1833
267.142	895
267.203	1340
267.264	650
267.326	2144
267.387	1047
267.448	406
267.509	1326
267.570	1831
267.631	642
267.692	1030
267.753	1291
267.814	1047
267.875	1867
267.936	3444
267.997	2698
268.058	2600
268.119	665
268.180	1674
268.241	977
268.302	792
268.363	827
268.424	819
268.485	307
268.546	974
268.607	1337
268.668	935
268.729	1009
268.790	812
268.851	2618
268.912	3186
268.972	4266
269.033	1816
269.094	1942
269.155	651
269.216	1087
269.277	1705
269.338	761
269.398	605
269.459	963
269.520	1434
269.581	2079
269.642	2725
269.702	1761
269.763	1640
269.824	2207
269.885	1103
269.945	2764
270.006	952
270.067	817
270.128	1843
270.188	495
270.249	865
270.310	598
270.370	1134
270.431	826
270.492	653
270.553	605
270.613	1893
270.674	5210
270.734	1900
270.795	612
270.856	905
270.916	1554
270.977	616
271.038	2277
271.098	1919
271.159	2052
271.219	2714
271.280	780
271.340	519
271.401	520
271.462	1847
271.522	1095
271.583	1340
271.643	1643
271.704	543
271.764	1705
271.825	3585
271.885	11307
271.946	13667
272.006	7153
272.066	6067
272.127	10929
272.187	5305
272.248	2592
272.308	2594
272.369	6566
272.429	4945
272.489	3794
272.550	3801
272.610	4429
272.671	3403
272.731	2408
272.791	4017
272.852	3042
272.912	2180
272.972	2248
273.033	1566
273.093	2017
273.153	3954
273.214	2156
273.274	2310
273.334	5784
273.394	10984
273.455	5398
273.515	5294
273.575	9389
273.635	5773
273.696	6037
273.756	9673
273.816	5370
273.876	2955
273.936	3720
273.997	7615
274.057	3281
274.117	1636
274.177	3513
274.237	10420
274.297	10741
274.358	6298
274.418	7261
274.478	6736
274.538	3162
274.598	1209
274.658	4932
274.718	6168
274.778	3656
274.838	1790
274.898	2943
274.958	7591
275.018	8613
275.078	7498
275.138	2929
275.198	1246
275.258	1103
275.318	2003
275.378	3170
275.438	4594
275.498	2604
275.558	3385
275.618	8505
275.678	7297
275.738	4099
275.798	4995
275.858	2558
275.918	898
275.978	1624
276.038	1204
276.098	723
276.157	1306
276.217	8501
276.277	3491
276.337	3417
276.397	1399
276.457	2140
276.517	1345
276.576	1801
276.636	1260
276.696	1960
276.756	4687
276.815	3787
276.875	1107
276.935	2013
276.995	1597
277.055	1970
277.114	1232
277.174	2329
277.234	5777
277.293	2917
277.353	1596
277.413	675
277.472	1412
277.532	1961
277.592	1936
277.651	6275
277.711	11970
277.771	4443
277.830	11760
277.890	13130
277.950	7938
278.009	21175
278.069	11920
278.128	9183
278.188	13881
278.248	6468
278.307	12700
278.367	10267
278.426	3391
278.486	1972
278.545	1803
278.605	2623
278.664	1245
278.724	1310
278.783	3245
278.843	9965
278.902	4139
278.962	1819
279.021	1881
279.081	3889
279.140	3999
279.199	3086
279.259	2587
279.318	3173
279.378	4938
279.437	7011
279.496	18348
279.556	62604
279.615	55355
279.675	17114
279.734	7901
279.793	10008
279.853	13760
279.912	6396
279.971	3691
280.031	3871
280.090	4670
280.149	9944
280.208	9819
280.268	41890
280.327	47338
280.386	13714
280.445	7574
280.505	7043
280.564	3912
280.623	4000
280.682	3792
280.742	6676
280.801	2697
280.860	1840
280.919	1254
280.978	1980
281.037	1821
281.097	1243
281.156	1746
281.215	1395
281.274	1671
281.333	5295
281.392	5648
281.451	1629
281.510	998
281.569	1302
281.628	672
281.688	1507
281.747	1272
281.806	2039
281.865	934
281.924	422
281.983	947
282.042	946
282.101	1515
282.160	1052
282.219	1332
282.278	1013
282.337	3793
282.396	2747
282.454	1356
282.513	968
282.572	6290
282.631	4495
282.690	1233
282.749	482
282.808	1769
282.867	1488
282.926	2299
282.985	1215
283.043	352
283.102	1625
283.161	1257
283.220	4056
283.279	7320
283.338	2966
283.396	2141
283.455	1887
283.514	1602
283.573	3304
283.631	2433
283.690	2053
283.749	2087
283.808	3915
283.866	5525
283.925	2355
283.984	2583
284.043	3166
284.101	3826
284.160	2371
284.219	3877
284.277	4438
284.336	5540
284.395	10974
284.453	10266
284.512	6544
284.570	6969
284.629	8523
284.688	9445
284.746	10343
284.805	12656
284.863	16429
284.922	21036
284.981	24777
285.039	32053
285.098	41642
285.156	47774
285.215	38624
285.273	33566
285.332	47533
285.390	46629
285.449	38038
285.507	28975
285.566	23306
285.624	18257
285.683	14545
285.741	11966
285.799	10236
285.858	9523
285.916	8021
285.975	6855
286.033	6040
286.091	6235
286.150	4410
286.208	4525
286.267	3973
286.325	4834
286.383	4692
286.442	5933
286.500	4275
286.558	3048
286.616	2099
286.675	4429
286.733	3924
286.791	3258
286.850	3529
286.908	3447
286.966	4744
287.024	3434
287.083	4415
287.141	2778
287.199	2249
287.257	2455
287.315	2715
287.374	1704
287.432	4555
287.490	4133
287.548	2552
287.606	1600
287.664	1503
287.723	2426
287.781	3129
287.839	2208
287.897	2300
287.955	2978
288.013	3068
288.071	5843
288.129	20002
288.187	52337
288.245	33046
288.303	11641
288.361	6528
288.419	3608
288.477	3597
288.535	2014
288.593	1953
288.651	2045
288.709	1846
288.767	1404
288.825	1014
288.883	1471
288.941	1934
288.999	1506
289.057	1499
289.115	1155
289.173	1666
289.231	2189
289.289	2842
289.346	3095
289.404	3070
289.462	2281
289.520	3057
289.578	1481
289.636	1417
289.694	434
289.751	446
289.809	644
289.867	1055
289.925	1972
289.983	3264
290.040	1539
290.098	1493
290.156	1155
290.214	2354
290.271	1018
290.329	1780
290.387	1365
290.444	1334
290.502	628
290.560	1395
290.617	2707
290.675	3221
290.733	1747
290.790	1664
290.848	2169
290.906	3780
290.963	2191
291.021	2737
291.078	3317
291.136	2175
291.194	3248
291.251	9842
291.309	4480
291.366	1789
291.424	1011
291.481	3079
291.539	4527
291.596	3021
291.654	1427
291.711	1618
291.769	738
291.826	3612
291.884	2083
291.941	641
291.999	816
292.056	1889
292.114	922
292.171	571
292.228	685
292.286	1810
292.343	3943
292.401	9952
292.458	7131
292.515	4027
292.573	3253
292.630	2917
292.687	1835
292.745	1881
292.802	2040
292.859	6360
292.917	7960
292.974	6145
293.031	2057
293.089	2191
293.146	1943
293.203	1129
293.260	1300
293.318	1426
293.375	2315
293.432	1299
293.489	2044
293.546	1620
293.604	2658
293.661	4861
293.718	12675
293.775	9392
293.832	5233
293.889	2574
293.947	2988
294.004	2290
294.061	2877
294.118	3273
294.175	9275
294.232	14909
294.289	8539
294.346	5507
294.403	3976
294.460	3652
294.517	2975
294.574	2107
294.631	1362
294.688	2707
294.745	3818
294.802	12741
294.859	19483
294.916	8577
294.973	4187
295.030	4272
295.087	3244
295.144	2619
295.201	2580
295.258	2141
295.315	2275
295.372	4493
295.429	11075
295.486	6050
295.542	3194
295.599	7530
295.656	15055
295.713	9093
295.770	11026
295.827	5139
295.883	2826
295.940	2748
295.997	3887
296.054	3593
296.111	2348
296.167	2357
296.224	1202
296.281	2889
296.338	3465
296.394	2386
296.451	2230
296.508	4025
296.564	8612
296.621	7319
296.678	10214
296.734	18301
296.791	8971
296.848	5327
296.904	3505
296.961	8171
297.018	11052
297.074	10030
297.131	4469
297.187	2738
297.244	3628
297.301	8431
297.357	17776
297.414	7330
297.470	3833
297.527	2567
297.583	1776
297.640	2334
297.696	2657
297.753	2914
297.809	3062
297.866	1363
297.922	1179
297.979	1495
298.035	1196
298.092	2111
298.148	6434
298.204	6958
298.261	3795
298.317	5185
298.374	13884
298.430	9814
298.486	4408
298.543	2898
298.599	3892
298.656	4804
298.712	6538
298.768	10985
298.824	8476
298.881	3757
298.937	2402
298.993	2328
299.050	3062
299.106	2936
299.162	1605
299.218	3539
299.275	2077
299.331	1544
299.387	3125
299.443	10554
299.500	13330
299.556	6369
299.612	2772
299.668	3647
299.724	2703
299.780	4030
299.837	2890
299.893	3460
299.949	8914
300.005	12879
300.061	9530
300.117	17297
300.173	10057
300.229	4468
300.285	4587
300.341	7678
300.397	3809
300.453	2821
300.510	3165
300.566	2743
300.622	2074
300.678	5619
300.734	11162
300.790	11132
300.845	12244
300.901	7859
300.957	10432
301.013	9882
301.069	3503
301.125	3215
301.181	3372
301.237	2035
301.293	1580
301.349	2841
301.405	2360
301.461	3040
301.516	5474
301.572	4823
301.628	4573
301.684	4654
301.740	4955
301.796	10094
301.851	7027
301.907	9632
301.963	9867
302.019	11374
302.074	26095
302.130	32879
302.186	19040
302.242	9510
302.297	6096
302.353	4483
302.409	7056
302.464	9484
302.520	5697
302.576	11447
302.631	15221
302.687	10782
302.743	5165
302.798	2969
302.854	2787
302.910	3532
302.965	3568
303.021	5647
303.076	6625
303.132	7277
303.187	7669
303.243	5537
303.299	3441
303.354	2690
303.410	2426
303.465	2185
303.521	1977
303.576	2729
303.632	2708
303.687	4816
303.743	11138
303.798	10985
303.853	5391
303.909	3809
303.964	2928
304.020	4606
304.075	6683
304.130	5671
304.186	8659
304.241	10750
304.297	9493
304.352	7937
304.358	7720
304.407	5966
304.449	4684
304.463	4256
304.518	4562
304.539	4581
304.573	4615
304.629	3240
304.630	3243
304.684	3455
304.720	5893
304.739	7124
304.794	12623
304.811	11329
304.850	8255
304.902	3775
304.905	3485
304.960	2769
304.992	2717
305.015	2624
305.071	3706
305.083	3673
305.126	3693
305.173	3107
305.181	2999
305.236	3189
305.264	3028
305.292	2924
305.347	5301
305.354	5650
305.402	7699
305.445	6397
305.457	6017
305.512	4218
305.535	4102
305.567	4167
305.622	6808
305.626	7004
305.678	10052
305.716	11781
305.733	12365
305.788	14042
305.807	12069
305.843	8497
305.897	10148
305.898	10169
305.953	12046
305.988	9521
306.008	8028
306.063	9798
306.078	9120
306.118	7127
306.168	3478
306.173	3158
306.228	2297
306.259	1811
306.283	1510
306.338	2123
306.349	2167
306.393	2178
306.440	2692
306.448	2824
306.503	2975
306.530	3160
306.558	3867
306.613	8694
306.620	9751
306.668	15340
306.711	14419
306.723	13907
306.778	10460
306.801	8273
306.833	5892
306.888	3307
306.892	3274
306.943	2901
306.982	3256
306.997	3483
307.052	3520
307.072	4257
307.107	6269
307.162	13128
307.163	13157
307.217	12647
307.253	9674
307.272	8263
307.327	6419
307.343	6152
307.381	5897
307.434	5807
307.436	5842
307.491	6142
307.524	8496
307.546	9382
307.600	10207
307.614	9354
307.655	6449
307.704	3424
307.710	3212
307.765	3496
307.795	3885
307.819	4357
307.874	7436
307.885	7534
307.929	7077
307.975	6707
307.984	6861
308.038	8309
308.065	10179
308.093	14863
308.148	29064
308.156	32032
308.202	46386
308.246	56081
308.257	55750
308.312	38232
308.336	29544
308.366	22871
308.421	14920
308.426	14264
308.475	9471
308.517	7473
308.530	6938
308.585	6015
308.607	5705
308.639	5339
308.694	5333
308.697	5397
308.748	7743
308.787	9350
308.803	9195
308.857	8369
308.877	7529
308.912	6922
308.967	7807
308.967	7835
309.021	10556
309.058	13474
309.076	15711
309.130	24547
309.148	28255
309.185	41249
309.238	61374
309.239	61496
309.293	66999
309.328	67182
309.348	62386
309.402	40027
309.418	33617
309.457	25023
309.508	17086
309.511	16814
309.566	15865
309.598	16428
309.620	18370
309.674	24947
309.688	27070
309.729	26865
309.778	22748
309.783	22219
309.837	15551
309.868	11827
309.892	11291
309.946	11831
309.959	12515
310.001	14606
310.049	16260
310.055	15845
310.109	10567
310.139	7428
310.163	6392
310.218	5581
310.229	5533
310.272	4652
310.319	3175
310.326	3052
310.381	2707
310.409	2554
310.435	2250
310.489	2123
310.499	2051
310.543	1813
310.589	1671
310.598	1690
310.652	2028
310.679	2098
310.706	1858
310.760	1430
310.769	1369
310.814	1463
310.859	1490
310.868	1415
310.923	1201
310.948	1088
310.977	1792
311.031	3278
311.038	3521
311.085	2853
311.128	1753
311.139	1732
311.193	1859
311.218	1888
311.247	1766
311.301	1622
311.308	1623
311.356	1681
311.398	1652
311.410	1653
311.464	1754
311.488	1751
311.518	1508
311.572	1164
311.578	1132
311.626	1592
311.668	2039
311.680	2118
311.734	2367
311.758	2538
311.788	2642
311.842	2827
311.847	2849
311.896	2469
311.937	2189
311.950	2196
312.004	2303
312.027	2352
312.058	2157
312.112	1842
312.117	1820
312.165	990
312.207	305
312.297	2437
312.386	1750
312.476	2214
312.566	3432
312.656	2759
312.745	1080
312.835	1198
312.925	2155
313.015	1788
313.104	1099
313.194	590
313.284	1594
313.374	1902
313.463	928
313.553	1165
313.643	1524
313.732	867
313.822	144
313.912	1231
314.001	1226
314.091	1785
314.180	1564
314.270	1591
314.360	1659
314.449	1899
314.539	322
314.628	1259
314.718	1253
314.808	1348
314.897	883
314.987	596
315.076	1212
315.166	779
315.255	1487
315.345	1501
315.434	887
315.524	1223
315.613	1817
315.703	1771
315.792	2334
315.881	4049
315.971	1900
316.060	3559
316.150	3650
316.239	4169
316.328	1555
316.418	1565
316.507	512
316.597	1096
316.686	1693
316.775	1888
316.865	3335
316.954	1593
317.043	905
317.133	588
317.222	510
317.311	887
317.400	-475
317.490	2774
317.579	1321
317.668	850
317.757	2072
317.847	3428
317.936	7320
318.025	4819
318.114	3058
318.203	3095
318.293	9889
318.382	21513
318.471	11286
318.560	13645
318.649	11073
318.738	2782
318.828	2122
318.917	1808
319.006	2474
319.095	5737
319.184	13514
319.273	7106
319.362	4006
319.451	1422
319.540	1107
319.629	3413
319.718	6421
319.807	4345
319.896	5461
319.985	16465
320.074	5131
320.163	2351
320.252	4369
320.341	3095
320.430	1622
320.519	3786
320.608	2507
320.697	3020
320.786	2074
320.875	2065
320.964	2041
321.053	2975
321.142	5235
321.230	6362
321.319	4410
321.408	8544
321.497	2942
321.586	3311
321.675	4286
321.764	4052
321.852	2481
321.941	5022
322.030	2887
322.119	2846
322.207	9047
322.296	5860
322.385	2938
322.474	3013
322.562	10549
322.651	4830
322.740	3717
322.829	4956
322.917	4590
323.006	2563
323.095	2823
323.183	2135
323.272	3100
323.361	5169
323.449	14069
323.538	3905
323.626	10675
323.715	5836
323.804	2789
323.892	9418
323.981	5034
324.069	1599
324.158	5198
324.246	4827
324.335	2061
324.424	2368
324.512	754
324.601	1370
324.689	1167
324.778	1751
324.866	3277
324.954	1518
325.043	1342
325.131	2021
325.220	4158
325.308	3754
325.397	3095
325.485	1997
325.574	373
325.662	1111
325.750	79
325.839	1249
325.927	801
326.015	740
326.104	1763
326.192	2273
326.280	925
326.369	1484
326.457	1634
326.545	2687
326.634	1246
326.722	1295
326.810	1312
326.898	1617
326.987	1012
327.075	2450
327.163	3673
327.251	854
327.340	117
327.428	1491
327.516	572
327.604	1794
327.692	943
327.781	1510
327.869	1781
327.957	1919
328.045	1441
328.133	924
328.221	298
328.309	1693
328.397	1258
328.485	1318
328.574	1313
328.662	5277
328.750	2522
328.838	1363
328.926	222
329.014	780
329.102	891
329.190	4100
329.278	1268
329.366	774
329.454	901
329.542	1077
329.630	421
329.718	584
329.806	420
329.893	1226
329.981	802
330.069	433
330.157	530
330.245	2560
330.333	1247
330.421	1470
330.509	2207
330.597	7139
330.684	3357
330.772	1804
330.860	1902
330.948	2442
331.036	1119
331.123	520
331.211	299
331.299	1079
331.387	2790
331.475	3347
331.562	1230
331.650	521
331.738	-36
331.825	1513
331.913	-99
332.001	483
332.089	1363
332.176	2128
332.264	5083
332.352	3640
332.439	1508
332.527	510
332.614	128
332.702	1325
332.790	750
332.877	2215
332.965	5722
333.052	2014
333.140	2102
333.228	7472
333.315	1525
333.403	1060
333.490	2574
333.578	3555
333.665	10370
333.753	4059
333.840	669
333.928	1821
334.015	2695
334.103	5353
334.190	15865
334.278	3469
334.365	1603
334.452	1867
334.540	-289
334.627	493
334.715	1571
334.802	2657
334.889	16616
334.977	14282
335.064	1510
335.151	814
335.239	756
335.326	1936
335.413	8493
335.501	9552
335.588	1895
335.675	877
335.762	1679
335.850	2607
335.937	2065
336.024	4610
336.111	17605
336.199	6376
336.286	2143
336.373	812
336.460	-151
336.547	1458
336.635	1611
336.722	792
336.809	404
336.896	1189
336.983	5026
337.070	13216
337.157	16573
337.245	12024
337.332	7108
337.419	430
337.506	-232
337.593	2008
337.680	4556
337.767	13408
337.854	3017
337.941	3543
338.028	3721
338.115	479
338.202	2420
338.289	3497
338.376	9738
338.463	3801
338.550	7090
338.637	7313
338.724	1849
338.811	3478
338.898	995
338.984	438
339.071	881
339.158	882
339.245	3701
339.332	1885
339.419	2103
339.506	1840
339.593	-663
339.679	962
339.766	108
339.853	1439
339.940	1766
340.027	602
340.113	514
340.200	1224
340.287	142
340.374	965
340.460	1762
340.547	-399
340.634	1817
340.720	6836
340.807	2409
340.894	1543
340.980	248
341.067	251
341.154	1084
341.240	806
341.327	3026
341.414	925
341.500	9
341.587	723
341.674	255
341.760	2144
341.847	2285
341.933	1348
342.020	244
342.106	1664
342.193	1501
342.279	1919
342.366	637
342.452	2065
342.539	1085
342.625	2232
342.712	6643
342.798	2350
342.885	691
342.971	174
343.058	-628
343.144	88
343.230	1054
343.317	683
343.403	-22
343.490	471
343.576	-585
343.662	901
343.749	-309
343.835	623
343.921	1857
344.008	11929
344.094	22674
344.180	5363
344.267	1584
344.353	6826
344.439	5693
344.525	3039
344.612	2929
344.698	2619
344.784	236
344.870	737
344.957	391
345.043	1771
345.129	-221
345.215	2315
345.301	131
345.387	183
345.474	757
345.560	695
345.646	239
345.732	1542
345.818	-33
345.904	118
345.990	-108
346.076	458
346.162	1410
346.249	1114
346.335	149
346.421	1185
346.507	2412
346.593	8414
346.679	788
346.765	1716
346.851	871
346.937	-515
347.023	1253
347.108	726
347.194	195
347.280	930
347.366	599
347.452	2770
347.538	10281
347.624	9213
347.710	7017
347.796	963
347.882	747
347.967	331
348.053	885
348.139	790
348.225	70
348.311	601
348.397	337
348.482	941
348.568	1296
348.654	334
348.740	-58
348.825	-1009
348.911	2116
348.997	5763
349.083	9919
349.168	1619
349.254	930
349.340	1071
349.425	512
349.511	1268
349.597	520
349.682	1954
349.768	6613
349.854	3134
349.939	1309
350.025	4015
350.110	16486
350.196	4990
350.282	164
350.367	1143
350.453	840
350.538	433
350.624	154
350.709	1337
350.795	-89
350.880	95
350.966	539
351.051	1049
351.137	222
351.222	950
351.308	2388
351.393	6584
351.479	276
351.564	98
351.649	764
351.735	488
351.820	388
351.906	390
351.991	19
352.076	3993
352.162	5598
352.247	1697
352.332	533
352.418	779
352.503	3204
352.588	11605
352.673	6991
352.759	1677
352.844	707
352.929	896
353.014	62
353.100	1375
353.185	386
353.270	1818
353.355	2991
353.441	926
353.526	27
353.611	2010
353.696	1971
353.781	2930
353.866	-6
353.952	1413
354.037	1471
354.122	5770
354.207	4363
354.292	1335
354.377	1414
354.462	1636
354.547	1407
354.632	1965
354.717	1497
354.802	169
354.887	710
354.972	764
355.057	687
355.142	372
355.227	1407
355.312	2394
355.397	2520
355.482	8245
355.567	2954
355.652	4339
355.737	3833
355.822	8766
355.907	5600
355.991	1942
356.076	-35
356.161	1660
356.246	499
356.331	1407
356.416	1807
356.501	15189
356.585	11046
356.670	1474
356.755	3038
356.840	2695
356.924	9611
357.009	29628
357.094	11940
357.179	2845
357.263	2353
357.348	3964
357.433	2743
357.517	2597
357.602	2617
357.687	2106
357.771	5124
357.856	12021
357.941	7998
358.025	11028
358.110	30584
358.195	15002
358.279	3130
358.364	3350
358.448	8234
358.533	18023
358.617	11970
358.702	12243
358.787	4984
358.871	3512
358.956	2974
359.040	1258
359.125	592
359.209	2088
359.294	6119
359.378	9768
359.462	2600
359.547	1131
359.631	1032
359.716	-1040
359.800	719
359.885	2520
359.969	-232
360.053	1610
360.138	165
360.222	54
360.306	1807
360.391	1805
360.475	5477
360.559	10787
360.644	6978
360.728	2896
360.812	8458
360.896	18402
360.981	7821
361.065	3654
361.149	1520
361.233	544
361.318	191
361.402	1124
361.486	599
361.570	236
361.654	581
361.739	2286
361.823	12481
361.907	18395
361.991	1676
362.075	1214
362.159	3406
362.243	3530
362.327	1338
362.411	3772
362.495	882
362.580	349
362.664	82
362.748	-198
362.832	266
362.916	-66
363.000	5789
363.084	15699
363.168	19640
363.252	4730
363.336	1748
363.420	3157
363.503	11504
363.587	11631
363.671	2136
363.755	992
363.839	3391
363.923	743
364.007	2400
364.091	2324
364.175	2621
364.258	19020
364.342	8059
364.426	8485
364.510	2433
364.594	4438
364.677	5012
364.761	14494
364.845	9924
364.929	4193
365.013	2857
365.096	3599
365.180	1954
365.264	6503
365.347	19307
365.431	7453
365.515	84
365.598	436
365.682	1713
365.766	1591
365.849	1307
365.933	1357
366.017	2311
366.100	92
366.184	-188
366.267	1666
366.351	768
366.435	-317
366.518	-560
366.602	1103
366.685	439
366.769	555
366.852	1074
366.936	2935
367.019	612
367.103	60
367.186	3671
367.270	319
367.353	-226
367.436	991
367.520	-27
367.603	783
367.687	262
367.770	2164
367.853	1941
367.937	6965
368.020	7868
368.104	799
368.187	2617
368.270	4089
368.353	2957
368.437	3575
368.520	7703
368.603	4811
368.687	5686
368.770	13112
368.853	3988
368.936	4080
369.020	4697
369.103	2173
369.186	2545
369.269	2224
369.352	1853
369.436	1961
369.519	2768
369.602	2273
369.685	2471
369.768	447
369.851	1105
369.934	532
370.018	801
370.101	861
370.184	3199
370.267	2838
370.350	9333
370.433	10146
370.516	13380
370.599	10499
370.682	1492
370.765	7834
370.848	8164
370.931	13379
371.014	5932
371.097	-35
371.180	1239
371.263	1292
371.346	-1243
371.429	946
371.511	137
371.594	1857
371.677	2477
371.760	4287
371.843	1237
371.926	12530
372.009	23894
372.091	10749
372.174	6109
372.257	12673
372.340	4127
372.423	4908
372.505	5959
372.588	1438
372.671	4926
372.754	13409
372.836	5959
372.919	7229
373.002	11613
373.085	2704
373.167	3265
373.250	6121
373.332	11976
373.415	18864
373.498	31390
373.580	11744
373.663	15407
373.746	18509
373.828	4372
373.911	2810
373.993	1620
374.076	10121
374.159	8431
374.241	4757
374.324	11673
374.406	8203
374.489	10283
374.571	26160
374.654	9080
374.736	5493
374.819	15701
374.901	24481
374.983	21265
375.066	4178
375.148	1573
375.231	8431
375.313	15798
375.395	5118
375.478	534
375.560	1133
375.643	613
375.725	5551
375.807	19394
375.890	16989
375.972	5510
376.054	4145
376.136	5095
376.219	1326
376.301	7141
376.383	16159
376.465	5740
376.548	4290
376.630	5306
376.712	15089
376.794	5499
376.877	1101
376.959	-711
377.041	1380
377.123	1739
377.205	2873
377.287	78
377.369	563
377.452	-208
377.534	899
377.616	336
377.698	560
377.780	-866
377.862	1603
377.944	1245
378.026	-236
378.108	467
378.190	-418
378.272	709
378.354	229
378.436	-270
378.518	153
378.600	4234
378.682	4207
378.764	7911
378.846	5881
378.928	1207
379.010	2652
379.091	2213
379.173	686
379.255	-132
379.337	1273
379.419	3978
379.501	12890
379.583	4256
379.664	1423
379.746	1936
379.828	9298
379.910	9785
379.991	10485
380.073	526
380.155	498
380.237	103
380.318	744
380.400	1754
380.482	1717
380.564	2385
380.645	2731
380.727	2037
380.809	3225
380.890	1729
380.972	-111
381.053	-229
381.135	2046
381.217	2137
381.298	10576
381.380	5556
381.461	3787
381.543	16217
381.624	17760
381.706	2979
381.787	5009
381.869	4299
381.951	7813
382.032	24485
382.113	17772
382.195	4771
382.276	7284
382.358	5066
382.439	13897
382.521	16537
382.602	24462
382.684	13709
382.765	26786
382.846	42185
382.928	73245
383.009	38751
383.090	30059
383.172	89269
383.253	116314
383.334	40802
383.416	28586
383.497	15265
383.578	12746
383.659	25252
383.741	78036
383.822	151349
383.903	78673
383.984	28985
384.066	38737
384.147	19757
384.228	6328
384.309	3426
384.390	3274
384.471	2307
384.553	1815
384.634	3282
384.715	4680
384.796	1058
384.877	2500
384.958	9423
385.039	8975
385.120	2382
385.201	2975
385.282	2724
385.363	4216
385.444	3073
385.525	11453
385.606	18778
385.687	10401
385.768	3484
385.849	2768
385.930	13245
386.011	19473
386.092	4308
386.173	1845
386.254	1256
386.335	2153
386.416	2601
386.496	8371
386.577	9786
386.658	2796
386.739	1542
386.820	2225
386.901	475
386.981	1418
387.062	464
387.143	1268
387.224	8027
387.304	7377
387.385	3085
387.466	3388
387.547	7050
387.627	3806
387.708	2993
387.789	15089
387.869	14409
387.950	4724
388.031	1056
388.111	-705
388.192	2959
388.273	4277
388.353	1762
388.434	1237
388.514	2408
388.595	12689
388.676	15024
388.756	8356
388.837	9300
388.917	6529
388.998	1148
389.078	3247
389.159	5986
389.239	4195
389.320	5350
389.400	321
389.480	3396
389.561	8679
389.641	3946
389.722	1995
389.802	2004
389.883	4268
389.963	9808
390.043	5683
390.124	1454
390.204	8042
390.284	12398
390.365	4709
390.445	7780
390.525	15506
390.605	12970
390.686	3683
390.766	2351
390.846	2075
390.927	2684
391.007	4717
391.087	2606
391.167	197
391.247	-414
391.328	2281
391.408	1904
391.488	1875
391.568	-1428
391.648	762
391.728	2118
391.808	2205
391.888	747
391.969	4554
392.049	6620
392.129	3245
392.209	3129
392.289	10218
392.369	4390
392.449	4439
392.529	2156
392.609	2823
392.689	2756
392.769	8216
392.849	6452
392.929	6887
393.009	12606
393.089	7769
393.169	6404
393.248	27039
393.328	118034
393.408	106406
393.488	20742
393.568	10207
393.648	4934
393.728	1578
393.807	816
393.887	2548
393.967	1482
394.047	1932
394.127	3016
394.206	5812
394.286	21609
394.366	79987
394.446	80236
394.525	20518
394.605	4574
394.685	4425
394.764	7639
394.844	11817
394.924	5956
395.003	1907
395.083	1030
395.163	1264
395.242	616
395.322	1701
395.402	-697
395.481	2550
395.561	4322
395.640	13144
395.720	9053
395.799	14808
395.879	10943
395.958	9590
396.038	32972
396.117	102081
396.197	105461
396.276	36267
396.356	10942
396.435	7029
396.515	4874
396.594	2919
396.673	6692
396.753	34736
396.832	106222
396.912	63444
396.991	11546
397.070	4117
397.150	398
397.229	1622
397.308	1080
397.388	2035
397.467	1626
397.546	1332
397.625	-2660
397.705	2139
397.784	557
397.863	590
397.942	602
398.022	137
398.101	3230
398.180	12686
398.259	5918
398.338	2101
398.417	198
398.497	-264
398.576	1010
398.655	-900
398.734	527
398.813	77
398.892	3057
398.971	13836
399.050	6134
399.129	399
399.208	1189
399.287	6036
399.366	7198
399.445	1375
399.524	942
399.603	-604
399.682	834
399.761	3432
399.840	14651
399.919	11348
399.998	614
400.077	-1073
400.156	-775
400.235	2422
400.313	-216
400.392	-434
400.471	4466
400.550	7437
400.629	144
400.708	523
400.786	-516
400.865	1842
400.944	1230
401.023	2016
401.102	-634
401.180	-214
401.259	-497
401.338	-696
401.416	636
401.495	246
401.574	572
401.652	-974
401.731	237
401.810	-1288
401.888	-1136
401.967	-46
402.046	-808
402.124	-179
402.203	-927
402.281	315
402.360	1159
402.438	4407
402.517	692
402.596	-232
402.674	-416
402.753	-806
402.831	283
402.910	722
402.988	868
403.066	3616
403.145	1723
403.223	2107
403.302	2567
403.380	2128
403.459	1794
403.537	356
403.615	-623
403.694	-927
403.772	127
403.850	-547
403.929	-16
404.007	-577
404.085	761
404.164	-652
404.242	986
404.320	5739
404.398	15238
404.477	13430
404.555	21708
404.633	18688
404.711	11329
404.789	6357
404.868	144
404.946	-359
405.024	-826
405.102	201
405.180	-1124
405.258	-1277
405.336	294
405.415	-811
405.493	202
405.571	526
405.649	-1118
405.727	-1164
405.805	627
405.883	-104
405.961	116
406.039	-396
406.117	-1853
406.195	840
406.273	3050
406.351	16574
406.429	9614
406.507	689
406.585	-1009
406.663	452
406.740	382
406.818	-1123
406.896	-1120
406.974	245
407.052	-364
407.130	10223
407.208	12914
407.285	2526
407.363	-1456
407.441	-204
407.519	-598
407.596	-188
407.674	1461
407.752	6675
407.830	6130
407.907	1550
407.985	-1757
408.063	-519
408.141	-743
408.218	671
408.296	-1186
408.373	-690
408.451	862
408.529	210
408.606	-989
408.684	-631
408.762	-1060
408.839	467
408.917	-724
408.994	-364
409.072	-746
409.149	-448
409.227	2443
409.304	2422
409.382	-50
409.459	-1145
409.537	789
409.614	-259
409.692	-709
409.769	87
409.846	-386
409.924	3600
410.001	2748
410.079	989
410.156	626
410.233	542
410.311	-1278
410.388	347
410.465	3375
410.543	3410
410.620	1372
410.697	-90
410.775	-488
410.852	-1556
410.929	2388
411.006	4270
411.083	2193
411.161	10932
411.238	7590
411.315	1601
411.392	73
411.469	4506
411.547	5912
411.624	2077
411.701	1288
411.778	359
411.855	509
411.932	-476
412.009	-1030
412.086	223
412.163	-144
412.240	-566
412.317	2932
412.394	2393
412.471	-271
412.548	-1178
412.625	-889
412.702	20
412.779	3892
412.856	3108
412.933	-101
413.010	3122
413.087	7210
413.164	9676
413.241	11480
413.318	1890
413.395	2479
413.471	3909
413.548	329
413.625	102
413.702	-1084
413.779	-494
413.855	-693
413.932	-990
414.009	-2024
414.086	-753
414.162	-1174
414.239	432
414.316	2843
414.393	9553
414.469	671
414.546	-789
414.623	-404
414.699	-1466
414.776	-407
414.853	-779
414.929	-735
415.006	-480
415.082	-380
415.159	-275
415.236	-634
415.312	-513
415.389	326
415.465	-693
415.542	-92
415.618	-1196
415.695	483
415.771	-790
415.848	-493
415.924	-470
416.000	-903
416.077	-7
416.153	-1572
416.230	-1812
416.306	-1256
416.383	-1189
416.459	-847
416.535	-201
416.612	-714
416.688	95
416.764	-500
416.841	-574
416.917	-1183
416.993	-459
417.069	-404
417.146	-705
417.222	-104
417.298	-188
417.374	-825
417.451	-782
417.527	-718
417.603	-359
417.679	-1482
417.755	-838
417.831	-1617
417.908	-303
417.984	-542
418.060	-1675
418.136	426
418.212	565
418.288	-1160
418.364	-264
418.440	-2092
418.516	520
418.592	-103
418.668	1307
418.744	1217
418.820	936
418.896	72
418.972	-936
419.048	-733
419.124	674
419.200	-921
419.276	-732
419.352	-1391
419.428	-924
419.504	-1399
419.579	-947
419.655	-761
419.731	-56
419.807	564
419.883	2417
419.959	622
420.034	-494
420.110	142
420.186	4708
420.262	3410
420.337	-693
420.413	-1208
420.489	-747
420.565	-254
420.640	-1179
420.716	-366
420.792	-2060
420.867	186
420.943	-1281
421.019	136
421.094	-655
421.170	-142
421.245	-990
421.321	-756
421.397	-1243
421.472	732
421.548	2926
421.623	579
421.699	-198
421.774	-344
421.850	-462
421.925	-211
422.001	-83
422.076	-661
422.152	-81
422.227	152
422.302	1467
422.378	1768
422.453	3122
422.529	11256
422.604	46209
422.679	83815
422.755	42123
422.830	10172
422.905	3406
422.981	738
423.056	345
423.131	105
423.207	188
423.282	-853
423.357	1632
423.432	-243
423.508	-351
423.583	1338
423.658	535
423.733	-1110
423.808	-792
423.883	14
423.959	-1104
424.034	-1082
424.109	-1130
424.184	-2230
424.259	-1005
424.334	-484
424.409	-1141
424.484	-1260
424.559	-1261
424.634	-1538
424.709	-993
424.784	-880
424.859	-1140
424.934	-923
425.009	3403
425.084	5336
425.159	1114
425.234	-399
425.309	-140
425.384	3782
425.459	5292
425.534	788
425.609	-1194
425.683	-1115
425.758	-1256
425.833	-1071
425.908	-225
425.983	1047
426.058	6085
426.132	1634
426.207	-607
426.282	1062
426.357	-531
426.431	-474
426.506	-134
426.581	-905
426.655	-249
426.730	-1033
426.805	-585
426.879	511
426.954	-174
427.029	327
427.103	7043
427.178	15141
427.253	5286
427.327	-318
427.402	1078
427.476	6750
427.551	2358
427.625	298
427.700	330
427.774	-1124
427.849	-538
427.923	-1594
427.998	-977
428.072	-1214
428.147	1244
428.221	4003
428.296	13557
428.370	6948
428.444	1036
428.519	-149
428.593	2077
428.667	1041
428.742	2526
428.816	2018
428.890	8567
428.965	13560
429.039	4745
429.113	2781
429.188	404
429.262	-915
429.336	552
429.410	2203
429.485	1142
429.559	1513
429.633	1301
429.707	-17
429.781	804
429.855	9011
429.930	11795
430.004	6787
430.078	12471
430.152	9819
430.226	14919
430.300	13662
430.374	1181
430.448	1120
430.522	3430
430.596	12085
430.670	6707
430.744	13573
430.818	19802
430.892	3109
430.966	-339
431.040	-290
431.114	-1395
431.188	-970
431.262	-1556
431.336	-962
431.410	1721
431.484	1777
431.557	1638
431.631	-1324
431.705	-982
431.779	849
431.853	8392
431.927	5074
432.000	-520
432.074	-1282
432.148	-546
432.222	-597
432.295	-495
432.369	-940
432.443	-87
432.516	6075
432.590	14566
432.664	3937
432.737	-862
432.811	-584
432.885	-1124
432.958	176
433.032	-297
433.106	-886
433.179	-910
433.253	-390
433.326	569
433.400	-1942
433.473	-842
433.547	-2059
433.620	-1193
433.694	-675
433.767	240
433.841	-1570
433.914	-977
433.988	-901
434.061	-176
434.134	-271
434.208	-328
434.281	-1977
434.355	-1295
434.428	-757
434.501	-1255
434.575	-901
434.648	-643
434.721	-1669
434.795	-854
434.868	-866
434.941	-999
435.014	41
435.088	1108
435.161	299
435.234	1509
435.307	2048
435.381	-471
435.454	-1388
435.527	-904
435.600	-1202
435.673	-872
435.746	-1111
435.819	-725
435.892	-1274
435.966	-1010
436.039	-1904
436.112	-176
436.185	-2047
436.258	-992
436.331	-1583
436.404	-1099
436.477	-1376
436.550	-1486
436.623	-428
436.696	-706
436.769	-747
436.842	-940
436.915	-1269
436.987	-996
437.060	-1536
437.133	-1064
437.206	-1732
437.279	-570
437.352	-1518
437.425	-1375
437.498	-1181
437.570	-131
437.643	-718
437.716	-882
437.789	-1230
437.861	5218
437.934	16826
438.007	6100
438.080	-1081
438.152	-987
438.225	-248
438.298	8408
438.370	22158
438.443	17036
438.516	10984
438.588	1019
438.661	-963
438.734	-631
438.806	-1487
438.879	-216
438.951	3327
439.024	8361
439.096	682
439.169	-781
439.241	-612
439.314	-833
439.386	-318
439.459	1290
439.531	5897
439.604	1156
439.676	-636
439.749	-1789
439.821	-2255
439.893	-827
439.966	-640
440.038	1950
440.110	1449
440.183	-69
440.255	770
440.327	1417
440.400	2845
440.472	13609
440.544	8027
440.617	2458
440.689	6229
440.761	10506
440.833	15914
440.905	8899
440.978	-340
441.050	-1378
441.122	-1067
441.194	-1096
441.266	-1351
441.338	-918
441.411	-954
441.483	4275
441.555	5784
441.627	1093
441.699	795
441.771	267
441.843	-1251
441.915	-888
441.987	-951
442.059	-203
442.131	279
442.203	1037
442.275	-677
442.347	-17
442.419	-793
442.491	3504
442.563	8735
442.635	5858
442.706	3073
442.778	2142
442.850	-278
442.922	-175
442.994	-599
443.066	-120
443.137	535
443.209	3627
443.281	1007
443.353	165
443.425	5017
443.496	19839
443.568	18945
443.640	7092
443.711	356
443.783	926
443.855	71
443.926	-802
443.998	-1065
444.070	275
444.141	271
444.213	1267
444.285	268
444.356	451
444.428	879
444.499	-616
444.571	-1208
444.642	-968
444.714	-1945
444.785	-944
444.857	-104
444.928	2116
445.000	-247
445.071	1612
445.143	911
445.214	1379
445.285	1186
445.357	4701
445.428	15590
445.500	34868
445.571	21380
445.642	9580
445.714	4440
445.785	5188
445.856	-630
445.928	1636
445.999	4909
446.070	3808
446.141	284
446.213	87
446.284	400
446.355	-574
446.426	-1329
446.497	-1061
446.569	-822
446.640	124
446.711	-1032
446.782	-90
446.853	-445
446.924	-336
446.995	96
447.066	-668
447.138	-1016
447.209	-220
447.280	-1055
447.351	-1110
447.422	-1131
447.493	66
447.564	-776
447.635	-782
447.706	-2145
447.777	-1414
447.847	-1741
447.918	-1872
447.989	-1397
448.060	-343
448.131	875
448.202	353
448.273	-598
448.344	-208
448.414	-976
448.485	-970
448.556	-1199
448.627	-931
448.698	-627
448.768	-1452
448.839	-844
448.910	520
448.981	536
449.051	-731
449.122	-1011
449.193	-245
449.263	-768
449.334	-116
449.405	-308
449.475	389
449.546	238
449.616	826
449.687	536
449.758	-298
449.828	-1102
449.899	-1487
449.969	-1822
450.040	-842
450.110	-1848
450.181	-775
450.251	-1554
450.322	-1179
450.392	-680
450.463	-769
450.533	-601
450.604	2211
450.674	574
450.744	-123
450.815	-2004
450.885	-671
450.955	-970
451.026	-1969
451.096	-1781
451.166	-626
451.237	-306
451.307	2368
451.377	-137
451.447	-1007
451.518	-1927
451.588	-1500
451.658	-1126
451.728	-1419
451.799	2203
451.869	2873
451.939	-982
452.009	-1037
452.079	-1449
452.149	-623
452.219	-120
452.289	4784
452.360	4276
452.430	1255
452.500	1384
452.570	449
452.640	729
452.710	656
452.780	2228
452.850	1257
452.920	1132
452.990	349
453.060	-368
453.129	-821
453.199	-786
453.269	3456
453.339	8624
453.409	13821
453.479	13898
453.549	20988
453.619	21405
453.688	7439
453.758	-64
453.828	-511
453.898	-1466
453.968	-545
454.037	-1411
454.087	-805
454.107	-575
454.168	-993
454.177	-1077
454.247	-779
454.249	-798
454.316	-1863
454.330	-1527
454.386	-329
454.411	89
454.456	473
454.492	1927
454.525	3189
454.574	1545
454.595	823
454.655	26
454.665	-105
454.734	798
454.736	850
454.804	1065
454.817	1754
454.873	3780
454.898	4094
454.943	4527
454.979	3136
455.013	1980
455.060	2566
455.082	3186
455.141	4790
455.152	5612
455.221	15140
455.222	15686
455.291	41006
455.303	50522
455.360	80658
455.384	104872
455.430	131472
455.465	100272
455.499	74799
455.546	36912
455.569	20842
455.627	9862
455.638	7958
455.707	2555
455.708	2591
455.777	1965
455.789	1785
455.846	1031
455.869	1085
455.916	1329
455.950	1121
455.985	677
456.031	1072
456.054	1199
456.112	865
456.124	796
456.193	1245
456.193	1223
456.262	357
456.274	552
456.332	1257
456.355	1047
456.401	602
456.436	512
456.470	308
456.516	150
456.540	68
456.597	314
456.609	381
456.678	825
456.678	808
456.747	-332
456.759	-394
456.817	-616
456.840	-435
456.886	42
456.920	299
456.955	570
457.001	349
457.024	148
457.082	950
457.093	1140
457.162	2241
457.163	2267
457.232	2486
457.243	2608
457.301	3616
457.324	4223
457.370	5065
457.405	6409
457.439	5917
457.485	2513
457.508	1780
457.566	1440
457.577	1495
457.646	2892
457.647	2934
457.715	5094
457.727	5452
457.784	6706
457.808	7166
457.853	10509
457.889	14098
457.922	16157
457.969	21042
457.991	20216
458.050	14190
458.060	13598
458.129	7459
458.130	7402
458.198	4703
458.211	4363
458.267	3327
458.292	2515
458.336	1552
458.372	1541
458.405	2284
458.453	3652
458.474	4628
458.533	7810
458.543	8242
458.611	12857
458.614	13050
458.680	8969
458.694	7273
458.749	3893
458.775	3037
458.818	2388
458.855	2144
458.887	1911
458.936	1872
458.955	1967
459.016	1676
459.024	1694
459.093	2812
459.097	2862
459.162	2527
459.177	2550
459.230	3756
459.257	4349
459.299	5855
459.338	7131
459.368	7943
459.418	10701
459.437	9568
459.499	3962
459.505	3941
459.574	2597
459.579	2610
459.643	2011
459.659	1860
459.711	1995
459.740	2305
459.780	2637
459.820	2560
459.849	3043
459.900	4539
459.917	4792
459.981	5574
459.986	5461
460.054	4007
460.061	3844
460.123	3403
460.141	3385
460.191	4069
460.222	4263
460.260	4166
460.302	4383
460.328	4409
460.382	4660
460.397	4745
460.462	4368
460.465	4438
460.534	6870
460.543	7205
460.602	17665
460.623	21486
460.671	31806
460.703	40417
460.739	33460
460.783	23203
460.808	19295
460.864	5461
460.876	4594
460.944	2985
460.945	2961
461.013	2923
461.024	2872
461.081	2926
461.104	2983
461.150	2786
461.184	2437
461.218	2380
461.264	2913
461.286	3045
461.345	2774
461.355	2756
461.423	3111
461.425	3114
461.491	2922
461.505	2915
461.559	5257
461.585	6373
461.628	9052
461.665	11556
461.696	12070
461.745	13442
461.764	11839
461.825	5306
461.832	5354
461.901	5428
461.905	5491
461.969	4785
461.985	4637
462.037	4524
462.065	4308
462.105	3858
462.145	3550
462.173	4936
462.225	7498
462.241	7937
462.305	10232
462.310	9961
462.378	5145
462.385	4554
462.446	4391
462.465	4440
462.514	4251
462.545	4265
462.582	4237
462.625	4042
462.650	4019
462.705	3828
462.718	3968
462.785	5115
462.786	5132
462.854	5746
462.865	5835
462.922	6060
462.945	6273
462.990	5088
463.025	3761
463.058	3690
463.104	3862
463.126	3572
463.184	3079
463.194	3216
463.262	3459
463.264	3476
463.330	4004
463.344	4109
463.398	4318
463.424	4506
463.466	4908
463.504	5125
463.533	5152
463.583	5330
463.601	5400
463.663	5246
463.669	5324
463.737	6587
463.743	6662
463.805	8352
463.823	8927
463.873	12561
463.903	14776
463.940	15147
463.982	15547
464.008	12800
464.062	6708
464.076	6480
464.142	4960
464.144	4939
464.211	4107
464.221	4033
464.279	4526
464.301	4575
464.347	4612
464.381	4905
464.414	5599
464.461	6361
464.482	6519
464.540	7053
464.550	7109
464.617	7070
464.620	7068
464.685	7611
464.699	7659
464.753	8270
464.779	8637
464.820	9750
464.859	10648
464.888	9841
464.938	8566
464.956	8929
465.018	10180
465.023	10111
465.091	8812
465.098	8665
465.158	8735
465.177	8795
465.226	8528
465.257	8270
465.293	8166
465.336	7891
465.361	8310
465.416	9373
465.428	9731
465.495	11678
465.496	11733
465.563	16993
465.575	17894
465.631	20662
465.654	21872
465.698	14440
465.734	7996
465.765	7533
465.813	6814
465.833	6877
465.893	7119
465.900	7085
465.968	6779
465.972	6742
466.035	6974
466.052	7002
466.102	7123
466.131	7168
466.170	7042
466.210	6891
466.237	7459
466.290	8588
466.304	8467
466.369	7664
466.372	7704
466.439	8530
466.449	8612
466.506	8857
466.528	8944
466.573	10991
466.607	12432
466.641	17118
466.687	23721
466.708	25158
466.766	28904
466.775	26906
466.842	11402
466.845	10643
466.909	9489
466.925	9204
466.977	9563
467.004	9745
467.044	10361
467.083	10944
467.111	11978
467.163	13838
467.178	14653
467.242	17895
467.245	17874
467.312	16650
467.321	16453
467.379	14754
467.400	14089
467.446	13743
467.480	13441
467.559	12248
467.638	10608
467.717	10063
467.796	11388
467.875	12401
467.955	11267
468.034	16052
468.113	28905
468.192	37998
468.271	13213
468.350	10183
468.429	10788
468.508	10081
468.588	10183
468.667	10232
468.746	10529
468.825	10558
468.904	10508
468.983	14824
469.062	29565
469.141	45601
469.220	18793
469.299	11063
469.378	11740
469.456	14703
469.535	12379
469.614	13344
469.693	12697
469.772	14601
469.851	18909
469.930	15658
470.009	16912
470.088	14565
470.166	13951
470.245	17435
470.324	19731
470.403	15945
470.482	12613
470.560	11890
470.639	12553
470.718	12600
470.797	10352
470.875	11382
470.954	14120
471.033	15437
471.111	9390
471.190	9855
471.269	9437
471.347	10085
471.426	10687
471.505	12181
471.583	12778
471.662	12068
471.740	10968
471.819	11327
471.898	10420
471.976	10226
472.055	10233
472.133	12199
472.212	14773
472.290	13668
472.369	10393
472.447	12370
472.526	20021
472.604	35026
472.683	25585
472.761	11240
472.839	10793
472.918	10826
472.996	10631
473.075	10954
473.153	10131
473.231	8889
473.310	10304
473.388	10296
473.466	10578
473.545	11592
473.623	12659
473.701	11293
473.780	10485
473.858	7856
473.936	11638
474.014	9148
474.093	10785
474.171	13120
474.249	15376
474.327	11850
474.405	8488
474.484	8354
474.562	8308
474.640	9594
474.718	8912
474.796	8234
474.874	9102
474.952	8147
475.030	8117
475.108	8536
475.187	8798
475.265	8765
475.343	11112
475.421	10642
475.499	8600
475.577	9844
475.655	11004
475.733	17792
475.811	25408
475.889	22629
475.966	15379
476.044	8788
476.122	10057
476.200	9195
476.278	8899
476.356	8369
476.434	8913
476.512	10333
476.590	10367
476.667	10630
476.745	8318
476.823	10265
476.901	9082
476.979	9283
477.056	9043
477.134	10111
477.212	9090
477.290	8655
477.367	9411
477.445	8649
477.523	8583
477.601	10266
477.678	9668
477.756	10319
477.834	10599
477.911	8435
477.989	9214
478.066	8679
478.144	8359
478.222	8325
478.299	8025
478.377	9424
478.454	8442
478.532	8985
478.609	9773
478.687	10910
478.764	7279
478.842	8634
478.919	8892
478.997	8581
479.074	7567
479.152	9140
479.229	10435
479.307	8908
479.384	7914
479.461	8675
479.539	8724
479.616	10822
479.694	10264
479.771	9625
479.848	10015
479.926	10504
480.003	12371
480.080	8726
480.157	8302
480.235	7335
480.312	7706
480.389	8951
480.467	11783
480.544	13788
480.621	9863
480.698	11709
480.775	11956
480.853	10127
480.930	8553
481.007	9214
481.084	10049
481.161	11715
481.238	9949
481.315	7913
481.392	8572
481.470	7600
481.547	8808
481.624	7801
481.701	8423
481.778	8490
481.855	7845
481.932	11019
482.009	17565
482.086	11636
482.163	7699
482.240	8925
482.317	8103
482.393	9997
482.470	8311
482.547	8699
482.624	10491
482.701	13859
482.778	10971
482.855	7987
482.932	7952
483.009	8375
483.085	13918
483.162	18774
483.239	15990
483.316	8484
483.393	8306
483.469	9591
483.546	8707
483.623	9365
483.699	8482
483.776	8554
483.853	8099
483.930	11383
484.006	22182
484.083	36789
484.160	27489
484.236	43493
484.313	32287
484.389	24573
484.466	22955
484.543	21437
484.619	20242
484.696	22901
484.772	21976
484.849	23729
484.925	20422
485.002	21833
485.078	29109
485.155	31544
485.231	20886
485.308	19098
485.384	18390
485.461	21844
485.537	27621
485.614	31208
485.690	18439
485.766	17949
485.843	18307
485.919	21104
485.995	21335
486.072	18189
486.148	17833
486.224	18363
486.301	18338
486.377	26309
486.453	35656
486.530	24306
486.606	26148
486.682	27382
486.758	28541
486.835	28617
486.911	25100
486.987	34632
487.063	32343
487.139	35961
487.215	30010
487.292	22523
487.368	20688
487.444	29501
487.520	46194
487.596	31842
487.672	26049
487.748	36759
487.824	42336
487.900	25561
487.976	21894
488.052	31649
488.128	53314
488.204	30143
488.280	17888
488.356	19529
488.432	30244
488.508	39442
488.584	18651
488.660	15640
488.736	16879
488.812	17022
488.888	19315
488.964	20775
489.039	31296
489.115	43430
489.191	28520
489.267	17035
489.343	15829
489.418	15030
489.494	14949
489.570	13623
489.646	16426
489.722	14894
489.797	16150
489.873	25574
489.949	51304
490.024	44256
490.100	16432
490.176	15707
490.251	18961
490.327	22021
490.403	16764
490.478	16134
490.554	12708
490.629	13287
490.705	12731
490.781	13954
490.856	12658
490.932	14758
491.007	13406
491.083	12885
491.158	12185
491.234	16167
491.309	25111
491.385	23912
491.460	11914
491.536	14405
491.611	13137
491.686	13939
491.762	14665
491.837	22938
491.913	32088
491.988	40904
492.063	47154
492.139	21222
492.214	16720
492.289	13130
492.365	12806
492.440	14863
492.515	15392
492.590	17436
492.666	14959
492.741	19198
492.816	24160
492.891	22918
492.967	26549
493.042	32188
493.117	42294
493.192	63023
493.267	175872
493.342	595003
493.418	685247
493.493	123110
493.568	35558
493.643	24270
493.718	21051
493.793	19757
493.868	19809
493.943	15585
494.018	14351
494.093	14232
494.168	14661
494.243	13345
494.318	13533
494.393	13337
494.468	11883
494.543	11724
494.618	13832
494.693	15129
494.768	14547
494.842	12795
494.917	11987
494.992	13787
495.067	15611
495.142	15243
495.217	16067
495.292	17788
495.366	17010
495.441	19202
495.516	21006
495.591	23799
495.665	43921
495.740	83262
495.815	39639
495.890	20013
495.964	17696
496.039	22483
496.114	18775
496.188	21486
496.263	20896
496.338	18697
496.412	19210
496.487	21028
496.561	20447
496.636	20881
496.710	20001
496.785	19045
496.860	19889
496.934	17980
497.009	17690
497.083	18112
497.158	18289
497.232	18796
497.307	19400
497.381	17913
497.455	18993
497.530	21115
497.604	15721
497.679	15675
497.753	20685
497.827	22291
497.902	17622
497.976	22135
498.050	46951
498.125	156933
498.199	131955
498.273	23868
498.348	17378
498.422	16025
498.496	16715
498.570	16966
498.645	13820
498.719	12352
498.793	15506
498.867	20809
498.941	25593
499.016	68805
499.090	164304
499.164	50198
499.238	13869
499.312	13479
499.386	14837
499.460	14715
499.534	15870
499.609	18263
499.683	20131
499.757	18048
499.831	35251
499.905	117390
499.979	92636
500.053	24009
500.127	23436
500.201	18163
500.275	16826
500.349	17214
500.422	17607
500.496	20854
500.570	33154
500.644	74644
500.718	118428
500.792	29708
500.866	16945
500.940	19474
501.013	18480
501.087	17491
501.161	22148
501.235	25351
501.309	49005
501.382	114419
501.456	85661
501.530	29564
501.603	42075
501.677	19073
501.751	14329
501.825	17016
501.898	22610
501.972	50073
502.046	30197
502.119	15337
502.193	26541
502.266	52750
502.340	26717
502.413	28339
502.487	45022
502.561	25983
502.634	13709
502.708	12585
502.781	10433
502.855	12450
502.928	10015
503.002	12400
503.075	10211
503.149	11994
503.222	11519
503.295	12259
503.369	12092
503.442	15624
503.516	37020
503.589	80911
503.662	47802
503.736	21038
503.809	40945
503.882	31390
503.956	49173
504.029	36523
504.102	20329
504.175	22497
504.249	12533
504.322	12124
504.395	10877
504.468	10076
504.542	8431
504.615	7696
504.688	9310
504.761	6538
504.834	10292
504.907	10255
504.980	11949
505.053	10662
505.127	8366
505.200	13448
505.273	11543
505.346	8529
505.419	8075
505.492	10223
505.565	7448
505.638	7677
505.711	7502
505.784	6881
505.857	5827
505.930	8922
506.003	7621
506.076	9786
506.149	9014
506.221	8972
506.294	11529
506.367	19838
506.440	61543
506.513	28646
506.586	11400
506.659	8277
506.731	8176
506.804	8316
506.877	8280
506.950	9072
507.022	8598
507.095	7869
507.168	10112
507.241	8031
507.313	7108
507.386	7056
507.459	9201
507.531	7523
507.604	6747
507.677	7756
507.749	5707
507.822	10032
507.894	14628
507.967	19263
508.040	12726
508.112	12110
508.185	10473
508.257	8293
508.330	13139
508.402	9865
508.475	9266
508.547	9763
508.620	9681
508.692	13660
508.765	10117
508.837	8340
508.909	8290
508.982	8451
509.054	8947
509.127	8594
509.199	8450
509.271	8110
509.344	8063
509.416	7428
509.488	8039
509.560	8771
509.633	8729
509.705	9259
509.777	9001
509.849	11630
509.922	8006
509.994	8739
510.066	10590
510.138	8423
510.210	18195
510.283	15393
510.355	12857
510.427	11158
510.499	11835
510.571	10133
510.643	9088
510.715	14919
510.787	11366
510.859	11576
510.931	11492
511.003	13911
511.076	13460
511.148	9631
511.219	10584
511.291	13895
511.363	14595
511.435	10964
511.507	8876
511.579	10049
511.651	11249
511.723	9394
511.795	9247
511.867	8910
511.939	10567
512.010	15300
512.082	13297
512.154	8319
512.226	9171
512.298	14157
512.369	17176
512.441	14289
512.513	13742
512.585	10316
512.656	11847
512.728	11976
512.800	10740
512.871	13466
512.943	11669
513.015	9275
513.086	10836
513.158	10399
513.230	10070
513.301	11977
513.373	12921
513.444	10784
513.516	10260
513.588	10636
513.659	11366
513.731	11633
513.802	10104
513.874	17299
513.945	22498
514.016	10645
514.088	10128
514.159	10023
514.231	12159
514.302	16409
514.374	14067
514.445	11548
514.516	20516
514.588	13536
514.659	12441
514.730	17681
514.802	14340
514.873	10206
514.944	12371
515.016	12133
515.087	11090
515.158	12916
515.229	17773
515.301	9162
515.372	11773
515.443	9828
515.514	9194
515.585	8638
515.656	11144
515.728	11590
515.799	9411
515.870	12418
515.941	15259
516.012	15670
516.083	16872
516.154	14276
516.225	15826
516.296	16528
516.367	14343
516.438	15232
516.509	18289
516.580	25732
516.651	78281
516.722	234534
516.793	87643
516.864	25125
516.935	24294
517.006	27298
517.077	33377
517.148	71822
517.219	270971
517.289	346535
517.360	96408
517.431	31081
517.502	17312
517.573	17184
517.643	15771
517.714	17454
517.785	16877
517.856	17013
517.926	20608
517.997	21829
518.068	23910
518.138	32526
518.209	48908
518.280	172400
518.350	499353
518.421	176895
518.492	33653
518.562	19180
518.633	15657
518.703	12601
518.774	18448
518.845	24217
518.915	22163
518.986	14115
519.056	15304
519.127	19847
519.197	29927
519.268	65999
519.338	38478
519.408	13649
519.479	17283
519.549	11983
519.620	11740
519.690	9447
519.760	9192
519.831	9261
519.901	8495
519.971	9048
520.042	9556
520.112	9813
520.182	10599
520.253	11989
520.323	10765
520.393	17717
520.463	28065
520.534	18046
520.604	39494
520.674	16661
520.744	15719
520.814	41900
520.885	31106
520.955	23703
521.025	71991
521.095	24434
521.165	10452
521.235	7555
521.305	6734
521.375	8270
521.445	9887
521.515	9353
521.585	11246
521.655	7671
521.725	9456
521.795	9232
521.865	4649
521.935	11849
522.005	9125
522.075	6808
522.145	9178
522.215	7665
522.285	10580
522.355	12227
522.424	20890
522.494	16461
522.564	11366
522.634	16375
522.704	39356
522.774	14837
522.843	8439
522.913	8445
522.983	8393
523.053	6164
523.122	7577
523.192	8911
523.262	20832
523.331	19901
523.401	9707
523.471	7540
523.540	7524
523.610	5648
523.680	6730
523.749	8037
523.819	8069
523.888	7588
523.958	6144
524.027	7776
524.097	9824
524.166	6434
524.236	6196
524.305	8832
524.375	5605
524.444	5762
524.514	8539
524.583	6454
524.653	6759
524.722	9427
524.791	6555
524.861	7733
524.930	5467
524.999	5875
525.069	9428
525.138	6764
525.207	7677
525.277	7564
525.346	7624
525.415	7243
525.484	6218
525.554	6106
525.623	7527
525.692	6987
525.761	6385
525.830	7363
525.900	5812
525.969	9251
526.038	11882
526.107	14570
526.176	36408
526.245	25827
526.314	15080
526.383	24677
526.452	24625
526.522	47133
526.591	43686
526.660	25022
526.729	15829
526.797	14911
526.867	25827
526.935	101595
527.004	116263
527.073	49513
527.142	9181
527.211	7162
527.280	7950
527.349	7731
527.418	5224
527.487	8035
527.555	4802
527.624	6687
527.693	4526
527.762	8386
527.831	4551
527.899	7178
527.968	6343
528.037	4660
528.106	6630
528.174	9324
528.243	8499
528.312	10494
528.380	11226
528.449	5355
528.518	7753
528.586	3629
528.655	6157
528.723	6332
528.792	5400
528.861	5075
528.929	4603
528.998	6962
529.066	7732
529.135	9846
529.203	7548
529.272	9925
529.340	12573
529.409	12925
529.477	10222
529.545	10798
529.614	14687
529.682	12836
529.751	15324
529.819	19251
529.887	15843
529.956	13999
530.024	13864
530.092	12560
530.161	14251
530.229	16348
530.297	15358
530.365	14893
530.434	14248
530.502	14611
530.570	14140
530.638	10280
530.707	11459
530.775	13102
530.843	11096
530.911	13422
530.979	12368
531.047	12600
531.115	13673
531.183	11935
531.252	12183
531.320	11853
531.388	11132
531.456	12726
531.524	11074
531.592	13956
531.660	16803
531.728	13153
531.796	12243
531.864	13565
531.932	13683
532.000	12714
532.067	13590
532.135	14767
532.203	16287
532.271	16639
532.339	20373
532.407	27332
532.475	19971
532.542	16343
532.610	17326
532.678	17762
532.746	42532
532.814	76999
532.881	27570
532.949	16516
533.017	13978
533.084	13969
533.152	13708
533.220	13340
533.287	13070
533.355	13659
533.423	14449
533.490	13558
533.558	14186
533.625	13715
533.693	13286
533.761	13672
533.828	13897
533.896	12084
533.963	19013
534.031	19489
534.098	21525
534.166	15922
534.233	12246
534.300	14008
534.368	13371
534.435	11869
534.503	12772
534.570	14318
534.637	11865
534.705	12251
534.772	12672
534.840	13272
534.907	25088
534.974	23609
535.041	10544
535.109	10833
535.176	9433
535.243	11127
535.310	10623
535.378	9737
535.445	9844
535.512	8159
535.579	9528
535.646	7994
535.714	9462
535.781	11114
535.848	12748
535.915	13440
535.982	12571
536.049	12152
536.116	11635
536.183	8974
536.250	8849
536.317	9108
536.384	9830
536.451	11760
536.518	11453
536.585	8774
536.652	12287
536.719	13110
536.786	8627
536.853	9863
536.920	12086
536.987	13083
537.053	12604
537.120	41001
537.187	30846
537.254	7827
537.321	8151
537.388	8765
537.454	6642
537.521	6685
537.588	6490
537.654	8740
537.721	10086
537.788	8728
537.855	7975
537.921	7908
537.988	7744
538.055	8433
538.121	6626
538.188	7840
538.254	8718
538.321	12897
538.388	9743
538.454	7775
538.521	6786
538.587	6754
538.654	7036
538.720	5610
538.787	7413
538.853	7596
538.920	7616
538.986	7675
539.053	7492
539.119	7205
539.185	6618
539.252	8045
539.318	8876
539.385	9365
539.451	7131
539.517	7659
539.583	9559
539.650	15339
539.716	28472
539.782	10476
539.849	6624
539.915	7928
539.981	5888
540.047	7154
540.114	7498
540.180	10237
540.246	5832
540.312	7773
540.378	11401
540.444	12663
540.510	16035
540.576	33218
540.643	11296
540.709	6130
540.775	6146
540.841	6400
540.907	9901
540.973	15228
541.039	9999
541.105	9513
541.171	6756
541.237	5782
541.303	6876
541.369	9453
541.435	7781
541.500	12683
541.566	7201
541.632	5996
541.698	5729
541.764	7348
541.830	6041
541.896	5706
541.961	7117
542.027	6588
542.093	7760
542.159	8526
542.224	8619
542.290	13985
542.356	19940
542.421	39165
542.487	44914
542.553	20877
542.618	13099
542.684	9400
542.750	7714
542.815	8744
542.881	10664
542.947	29218
543.012	20111
543.078	6198
543.143	6109
543.209	7388
543.274	5190
543.340	8286
543.405	14908
543.471	17076
543.536	7271
543.602	7868
543.667	5196
543.732	8320
543.798	6217
543.863	6609
543.928	5962
543.994	5776
544.059	6117
544.124	6759
544.190	6758
544.255	7364
544.320	7383
544.386	5913
544.451	8592
544.516	9353
544.581	9010
544.646	19534
544.712	27743
544.777	8906
544.842	8553
544.907	8597
544.972	8462
545.037	8319
545.102	9029
545.168	8558
545.233	10414
545.298	10382
545.363	9275
545.428	10304
545.493	14423
545.558	23866
545.623	12129
545.688	8498
545.753	8843
545.818	8946
545.883	10319
545.947	9113
546.012	9302
546.077	8211
546.142	9227
546.207	8121
546.272	9144
546.337	8593
546.401	8645
546.466	9117
546.531	7207
546.596	9059
546.661	8062
546.725	9536
546.790	8090
546.855	9099
546.919	8090
546.984	9838
547.049	8878
547.113	10104
547.178	9532
547.243	11206
547.307	11134
547.372	13987
547.436	12085
547.501	10507
547.565	12545
547.630	11950
547.695	11708
547.759	12637
547.823	10599
547.888	10810
547.952	10831
548.017	10949
548.081	13238
548.146	13296
548.210	12040
548.274	11186
548.339	10087
548.403	11541
548.468	10060
548.532	10057
548.596	10077
548.660	10067
548.725	11637
548.789	13636
548.853	12886
548.917	11724
548.982	13129
549.046	12346
549.110	9474
549.174	10281
549.238	10602
549.303	10323
549.367	11641
549.431	10799
549.495	11041
549.559	10766
549.623	11656
549.687	13591
549.751	15160
549.815	14316
549.879	14595
549.943	12275
550.007	14463
550.071	13186
550.135	14001
550.199	12962
550.263	13176
550.327	13674
550.391	14852
550.455	13777
550.519	14053
550.582	15285
550.646	16605
550.710	16472
550.774	15641
550.838	14626
550.901	14645
550.965	16416
551.029	15282
551.093	18605
551.156	20193
551.220	28535
551.284	28559
551.347	20942
551.411	31704
551.475	30050
551.538	18951
551.602	18368
551.666	18785
551.729	21326
551.793	28493
551.856	57580
551.920	91472
551.983	51878
552.047	26965
552.110	20908
552.174	16741
552.237	16204
552.301	15200
552.364	14450
552.428	14689
552.491	14337
552.554	15606
552.618	16310
552.681	17269
552.745	19572
552.808	28174
552.871	34698
552.934	26468
552.998	22209
553.061	25868
553.124	28812
553.187	33826
553.251	40280
553.314	50679
553.377	73812
553.440	155324
553.503	461479
553.567	555164
553.630	164054
553.693	57991
553.756	34720
553.819	25576
553.882	19824
553.945	18331
554.008	16620
554.071	14667
554.134	15109
554.197	13733
554.260	14454
554.323	15539
554.386	14202
554.449	12225
554.512	13799
554.575	12832
554.638	12863
554.701	13512
554.764	12189
554.827	12245
554.889	11403
554.952	9769
555.015	10437
555.078	10311
555.141	9867
555.203	9899
555.266	9712
555.329	9958
555.391	10293
555.454	10124
555.517	9177
555.580	10830
555.642	9406
555.705	8651
555.768	9886
555.830	9600
555.893	9331
555.955	9281
556.018	8313
556.080	8538
556.143	8706
556.206	8273
556.268	9544
556.330	9249
556.393	8989
556.455	8627
556.518	10707
556.580	10133
556.643	7896
556.705	7872
556.767	7239
556.830	7873
556.892	8680
556.955	9616
557.017	8581
557.079	7757
557.142	7997
557.204	8339
557.266	11829
557.328	11168
557.391	7008
557.453	7148
557.515	7564
557.577	7933
557.639	8307
557.701	6946
557.764	6975
557.826	7284
557.888	7947
557.950	7929
558.012	7976
558.074	8030
558.136	13757
558.198	25050
558.260	12803
558.322	7812
558.384	9279
558.446	11646
558.508	10032
558.570	11435
558.632	15717
558.694	20286
558.756	21734
558.818	54944
558.880	111291
558.942	32596
559.003	26972
559.065	14333
559.127	9773
559.189	10616
559.251	11952
559.312	13479
559.374	27613
559.436	70754
559.498	32907
559.559	9897
559.621	9606
559.683	9946
559.744	16380
559.806	38880
559.868	46189
559.929	12371
559.991	11432
560.052	13235
560.114	26324
560.176	16522
560.237	18178
560.299	22521
560.360	9485
560.422	8391
560.483	9288
560.545	6965
560.606	6908
560.667	5875
560.729	7284
560.790	7089
560.852	6805
560.913	6647
560.974	7427
561.036	6510
561.097	7952
561.158	7257
561.220	7906
561.281	7042
561.342	7591
561.403	8643
561.465	8660
561.526	14725
561.587	17736
561.648	7628
561.709	7534
561.771	7146
561.832	7696
561.893	7553
561.954	8108
562.015	8260
562.076	8360
562.137	8738
562.198	6991
562.259	7734
562.320	8157
562.381	9406
562.442	14684
562.503	12097
562.564	9941
562.625	8839
562.686	9441
562.747	16142
562.808	10851
562.869	8253
562.930	7922
562.991	8133
563.051	7758
563.112	7573
563.173	7907
563.234	7068
563.294	7291
563.355	6413
563.416	7382
563.477	7051
563.537	6998
563.598	6965
563.659	7320
563.720	6678
563.780	6667
563.841	7171
563.901	7220
563.962	6948
564.023	7497
564.083	7906
564.144	7349
564.204	6499
564.265	6917
564.325	7399
564.386	12060
564.446	10424
564.507	7115
564.567	7641
564.628	8639
564.688	6339
564.749	6685
564.809	7085
564.869	8686
564.930	7316
564.990	7154
565.050	6753
565.111	6761
565.171	6578
565.231	7433
565.292	7492
565.352	5547
565.412	6909
565.472	6450
565.532	7103
565.593	6048
565.653	6633
565.713	7746
565.773	7350
565.833	7475
565.893	8956
565.953	6884
566.013	7725
566.074	6853
566.134	8801
566.194	11446
566.254	10250
566.314	8056
566.374	6022
566.434	7460
566.494	6597
566.554	6999
566.614	7236
566.673	6686
566.733	7985
566.793	8337
566.853	9137
566.913	7720
566.973	8374
567.033	10776
567.092	13679
567.152	7845
567.212	7473
567.272	6605
567.331	7091
567.391	6794
567.451	6522
567.511	8854
567.570	8710
567.630	6616
567.690	6547
567.749	5969
567.809	5940
567.868	6532
567.928	7497
567.988	9180
568.047	8073
568.107	6396
568.166	7254
568.226	6690
568.285	7066
568.345	6860
568.404	7700
568.464	6414
568.523	6984
568.582	6403
568.642	6791
568.701	7608
568.761	7454
568.820	7066
568.879	8969
568.939	8941
568.998	6912
569.057	6392
569.116	6651
569.176	6108
569.235	5967
569.294	5739
569.353	6070
569.413	6354
569.472	6313
569.531	6712
569.590	5745
569.649	6383
569.708	7155
569.767	9943
569.827	20673
569.886	14204
569.945	6660
570.004	6987
570.063	7082
570.122	6782
570.181	6592
570.240	9264
570.299	13065
570.358	19408
570.417	9359
570.475	6747
570.534	7286
570.593	8249
570.652	11701
570.711	13994
570.770	6423
570.829	6685
570.887	6736
570.946	6965
571.005	6570
571.064	6027
571.122	6853
571.181	6320
571.240	5360
571.299	7031
571.357	6773
571.416	6031
571.475	6828
571.533	5849
571.592	7352
571.650	5613
571.709	5740
571.768	5775
571.826	6065
571.885	5647
571.943	5411
572.002	5677
572.060	5797
572.119	5565
572.177	5695
572.236	5841
572.294	4550
572.352	6332
572.411	6475
572.469	6233
572.528	7144
572.586	9649
572.644	15466
572.703	25630
572.761	12168
572.819	6329
572.877	5376
572.936	4930
572.994	5674
573.052	6090
573.110	9087
573.169	6234
573.227	5205
573.285	6147
573.343	5467
573.401	5717
573.459	5581
573.517	4687
573.576	5878
573.634	6804
573.692	9147
573.750	6868
573.808	5871
573.866	6105
573.924	6968
573.982	6705
574.040	6116
574.098	6468
574.155	4787
574.213	5953
574.271	5432
574.329	8241
574.387	5762
574.445	4635
574.503	5558
574.560	4965
574.618	5598
574.676	4609
574.734	5169
574.792	5273
574.849	5578
574.907	5180
574.965	6029
575.022	4483
575.080	4100
575.138	4177
575.195	5411
575.253	4823
575.311	5434
575.368	4193
575.426	4595
575.483	5636
575.541	5029
575.598	4611
575.656	5264
575.713	4856
575.771	4452
575.828	4564
575.886	5324
575.943	5346
576.001	5241
576.058	4994
576.115	5560
576.173	6656
576.230	5491
576.287	6054
576.345	6163
576.402	5111
576.459	5569
576.517	6054
576.574	6448
576.631	5873
576.688	5101
576.746	5839
576.803	5919
576.860	5063
576.917	6421
576.974	6506
577.031	6206
577.089	7043
577.146	7711
577.203	8235
577.260	9250
577.317	9015
577.374	10155
577.431	11770
577.488	13276
577.545	16611
577.602	24318
577.659	39489
577.716	76710
577.773	109436
577.830	57478
577.886	24883
577.943	15576
578.000	11356
578.057	11017
578.114	10551
578.171	8693
578.227	12482
578.284	11128
578.341	10475
578.398	8502
578.454	8086
578.511	7562
578.568	8373
578.625	6329
578.681	5951
578.738	5174
578.794	6349
578.851	6149
578.908	6738
578.964	6724
579.021	6601
579.077	6258
579.134	4986
579.190	5841
579.247	6207
579.303	5403
579.360	5584
579.416	5838
579.473	4750
579.529	5122
579.586	5253
579.642	6677
579.698	7007
579.755	7196
579.811	7868
579.867	9304
579.924	12392
579.980	18406
580.036	24637
580.093	18979
580.149	17673
580.205	18280
580.261	12905
580.317	10149
580.374	8827
580.430	10187
580.486	11800
580.542	18106
580.598	12632
580.619	10680
580.654	7303
580.692	6229
580.710	5706
580.765	6761
580.767	6803
580.823	6386
580.838	6331
580.879	6202
580.911	6227
580.935	6256
580.984	6124
580.991	6119
581.047	6311
581.057	6361
581.103	6650
581.130	7064
581.159	7461
581.203	7380
581.215	7395
581.270	7572
581.276	7591
581.326	7728
581.349	7393
581.382	6959
581.422	6651
581.438	6521
581.494	6405
581.494	6398
581.550	6269
581.567	6687
581.606	7586
581.640	6805
581.661	6344
581.713	7418
581.717	7512
581.773	7856
581.786	7768
581.829	7419
581.859	7809
581.885	8200
581.932	7323
581.940	7172
581.996	7637
582.004	7641
582.052	7625
582.077	7207
582.107	6697
582.150	8291
582.163	8796
582.219	7913
582.223	7937
582.274	8376
582.296	8956
582.330	9820
582.368	10316
582.386	10676
582.441	14711
582.441	14722
582.497	20771
582.514	25624
582.552	37206
582.587	56993
582.608	68019
582.659	36754
582.663	34344
582.719	12542
582.732	11697
582.774	9644
582.805	8702
582.830	7903
582.877	8423
582.885	8515
582.941	7526
582.950	7660
582.996	8352
583.023	9098
583.052	10176
583.095	11239
583.107	11430
583.162	11841
583.168	11835
583.218	11724
583.240	10988
583.273	9848
583.313	9026
583.328	8831
583.384	7822
583.385	7815
583.439	7152
583.458	7209
583.494	7482
583.531	6834
583.549	6574
583.603	6361
583.605	6338
583.660	6065
583.676	6166
583.715	6817
583.748	7025
583.770	7069
583.820	6514
583.825	6446
583.881	6145
583.893	6111
583.936	6127
583.965	6106
583.991	6082
584.038	6062
584.046	6019
584.101	5710
584.110	5764
584.156	6332
584.183	6250
584.211	6025
584.255	6114
584.266	6180
584.321	6167
584.328	6234
584.376	6576
584.400	6465
584.431	6416
584.472	6289
584.486	6208
584.541	6962
584.545	6944
584.596	6450
584.617	6553
584.651	7083
584.689	8004
584.706	8240
584.761	7732
584.762	7734
584.816	7599
584.834	7876
584.871	8476
584.906	8931
584.926	9150
584.978	9064
584.980	9069
585.035	10198
585.051	10716
585.090	11816
585.123	13430
585.145	14978
585.195	19708
585.200	20575
585.254	37480
585.267	45353
585.309	75036
585.340	97966
585.364	105672
585.412	46761
585.419	38385
585.473	14047
585.484	11752
585.528	10309
585.556	10331
585.583	11075
585.628	13998
585.637	14906
585.692	23985
585.700	25583
585.747	31242
585.772	25708
585.801	17525
585.845	10319
585.856	9203
585.910	8104
585.917	7936
585.965	7226
585.989	7466
586.019	7642
586.061	7384
586.074	7343
586.128	7406
586.133	7364
586.183	6773
586.205	6771
586.237	6841
586.277	7018
586.292	6979
586.346	6781
586.349	6773
586.401	6633
586.421	6743
586.455	7210
586.493	7419
586.509	7584
586.564	8833
586.565	8909
586.618	11488
586.637	10918
586.672	9285
586.709	7505
586.727	6634
586.781	6270
586.781	6264
586.835	5933
586.853	5989
586.889	6200
586.925	5947
586.944	5609
586.996	5917
586.998	5938
587.052	5523
587.068	5737
587.106	6097
587.140	6246
587.161	6290
587.212	6176
587.215	6160
587.269	6326
587.284	6252
587.323	5823
587.356	5742
587.377	5981
587.427	6357
587.431	6362
587.485	6850
587.499	6780
587.539	6060
587.571	5949
587.593	6351
587.643	7081
587.648	7054
587.702	6404
587.715	6360
587.755	6586
587.786	6664
587.810	6691
587.858	6934
587.864	6927
587.917	6997
587.930	6920
587.971	7108
588.001	7560
588.025	7644
588.073	7404
588.079	7472
588.133	8709
588.145	8947
588.187	8845
588.217	8899
588.241	9371
588.288	10022
588.295	10065
588.348	11503
588.360	11642
588.402	12197
588.431	12948
588.456	13507
588.503	14649
588.510	14820
588.564	16430
588.575	16995
588.617	19239
588.646	20905
588.671	22834
588.718	27982
588.725	29041
588.778	40464
588.789	44048
588.832	71361
588.861	94997
588.886	133420
588.932	225519
588.939	233192
588.993	269231
589.004	262249
589.047	145254
589.075	78704
589.100	54662
589.147	30815
589.154	29382
589.207	23421
589.218	22614
589.261	22419
589.290	23086
589.314	24355
589.361	28656
589.368	30024
589.421	44599
589.433	48979
589.475	88736
589.504	123767
589.528	160111
589.576	233540
589.582	227530
589.635	113163
589.647	91101
589.689	43418
589.718	20854
589.742	17507
589.790	13396
589.795	13120
589.849	11635
589.861	11548
589.902	11432
589.932	10752
589.955	9697
590.004	7913
590.009	7867
590.062	7690
590.075	7719
590.115	7257
590.146	6808
590.168	6799
590.218	7104
590.222	7086
590.275	6852
590.289	6757
590.328	6488
590.360	6475
590.381	6526
590.431	6300
590.435	6277
590.488	6532
590.503	6523
590.541	6592
590.574	6842
590.594	7009
590.645	7398
590.647	7445
590.700	9362
590.716	9941
590.753	10052
590.787	9447
590.806	8366
590.859	6060
590.859	6044
590.912	5981
590.930	5975
590.965	5861
591.001	5821
591.018	5823
591.071	5904
591.072	5917
591.124	5653
591.143	5514
591.177	5952
591.214	6687
591.230	6736
591.283	6809
591.285	6820
591.336	6936
591.356	7012
591.389	6472
591.427	5805
591.442	5742
591.495	5531
591.498	5529
591.547	5617
591.569	5699
591.600	5532
591.640	5351
591.653	5397
591.706	5648
591.711	5688
591.759	6139
591.782	6389
591.811	6481
591.853	6690
591.864	6642
591.917	6408
591.924	6378
591.969	5452
591.995	5021
592.022	5300
592.066	5717
592.075	5818
592.127	6628
592.137	6799
592.180	6948
592.208	6995
592.233	6484
592.279	5621
592.285	5649
592.338	6029
592.350	6140
592.390	6032
592.421	5965
592.443	5939
592.491	5951
592.495	5948
592.548	6185
592.562	6271
592.600	6065
592.633	5933
592.653	6000
592.704	6206
592.705	6235
592.775	5947
592.846	6032
592.916	5924
592.987	6167
593.058	6085
593.128	5764
593.199	6167
593.270	6669
593.341	5106
593.411	6671
593.482	5641
593.553	6010
593.623	6534
593.694	6185
593.764	6156
593.835	5799
593.906	5708
593.976	6297
594.047	5104
594.117	7934
594.188	6365
594.258	6445
594.329	5966
594.399	5708
594.470	5856
594.540	5926
594.611	5744
594.681	5356
594.751	5333
594.822	6432
594.892	6365
594.963	6914
595.033	6309
595.103	6322
595.174	7422
595.244	8438
595.314	8619
595.384	6625
595.455	6498
595.525	6825
595.595	6860
595.665	6382
595.736	6821
595.806	6599
595.876	7733
595.946	6795
596.016	6732
596.087	6936
596.157	7299
596.227	6852
596.297	7132
596.367	7944
596.437	9464
596.507	9363
596.577	10030
596.647	9149
596.717	8941
596.787	7337
596.857	9636
596.927	10105
596.997	13059
597.067	29738
597.137	59092
597.207	28530
597.277	9973
597.347	9367
597.417	8936
597.487	10164
597.557	9594
597.626	9375
597.696	9091
597.766	10026
597.836	11849
597.906	9317
597.975	9029
598.045	8099
598.115	9507
598.185	8873
598.254	10551
598.324	10991
598.394	9244
598.464	9982
598.533	9613
598.603	9624
598.672	9748
598.742	10805
598.812	10126
598.881	10219
598.951	10871
599.020	11035
599.090	10768
599.159	11027
599.229	11060
599.299	10918
599.368	11693
599.437	12518
599.507	14918
599.576	23708
599.646	50153
599.715	51938
599.785	15635
599.854	12012
599.924	12338
599.993	12767
600.062	12537
600.132	12340
600.201	12485
600.270	14226
600.340	13963
600.409	14117
600.478	13485
600.547	14727
600.617	14246
600.686	12606
600.755	12988
600.824	13336
600.894	13603
600.963	13930
601.032	14853
601.101	14685
601.170	15080
601.239	14860
601.308	15670
601.378	15527
601.447	15755
601.516	15830
601.585	17120
601.654	17096
601.723	19687
601.792	26179
601.861	47474
601.930	73854
601.999	31738
602.068	20702
602.137	19942
602.206	19851
602.275	20018
602.343	20726
602.412	20558
602.481	20490
602.550	20150
602.619	21226
602.688	20353
602.756	20107
602.825	20976
602.894	20499
602.963	20310
603.032	20952
603.100	20004
603.169	20899
603.238	20764
603.307	19213
603.375	20705
603.444	20781
603.513	20004
603.581	20400
603.650	21181
603.719	16959
603.787	17105
603.856	17188
603.924	18548
603.993	17906
604.061	17545
604.130	18414
604.198	17894
604.267	19377
604.335	18563
604.404	19218
604.472	19494
604.541	19926
604.609	21932
604.678	21181
604.746	21337
604.815	21917
604.883	20143
604.951	21155
605.020	21384
605.088	19605
605.156	18081
605.225	18131
605.293	17370
605.361	19423
605.429	17560
605.498	18795
605.566	17422
605.634	18436
605.702	17305
605.771	18228
605.839	18306
605.907	17752
605.975	19916
606.043	19693
606.111	24071
606.180	41315
606.248	88860
606.316	91349
606.384	24895
606.452	16040
606.520	11758
606.588	10286
606.656	9999
606.724	9451
606.792	10228
606.860	8752
606.928	7600
606.996	7187
607.064	7068
607.132	8452
607.200	9065
607.267	7586
607.335	8157
607.403	9309
607.471	7933
607.539	8451
607.607	8704
607.674	7031
607.742	7930
607.810	7120
607.878	8135
607.946	8080
608.013	8360
608.081	9955
608.149	9922
608.216	7507
608.284	9309
608.352	7607
608.419	6834
608.487	9639
608.555	7087
608.622	8664
608.690	7879
608.757	8986
608.825	9384
608.893	10466
608.960	14302
609.028	12722
609.095	10292
609.163	7156
609.230	6982
609.298	8202
609.365	6017
609.432	7230
609.500	7703
609.567	8512
609.635	9915
609.702	10137
609.769	9557
609.837	7879
609.904	7706
609.971	6952
610.039	11605
610.106	13192
610.173	22561
610.241	52083
610.308	56723
610.375	34459
610.442	10991
610.509	9192
610.577	9531
610.644	8904
610.711	9153
610.778	11350
610.845	14992
610.912	26216
610.980	65548
611.047	150029
611.114	56270
611.181	13778
611.248	8456
611.315	11150
611.382	8812
611.449	9071
611.516	9753
611.583	9268
611.650	8278
611.717	9048
611.784	9962
611.851	11794
611.918	15533
611.984	13813
612.051	17683
612.118	34489
612.185	78218
612.252	40505
612.319	13031
612.386	11423
612.452	10569
612.519	10197
612.586	11491
612.653	10214
612.719	10008
612.786	8448
612.853	9433
612.919	8377
612.986	9866
613.053	8816
613.120	7710
613.186	6817
613.253	9955
613.319	8436
613.386	8554
613.453	9517
613.519	11396
613.586	9352
613.652	12786
613.719	11848
613.785	13331
613.852	16385
613.918	23345
613.985	50470
614.051	128931
614.118	350781
614.184	270756
614.250	40051
614.317	16910
614.383	12763
614.449	11449
614.516	10595
614.582	10650
614.648	8773
614.715	9438
614.781	8240
614.847	9078
614.914	9708
614.980	10053
615.046	9102
615.112	8562
615.179	8730
615.245	8228
615.311	7383
615.377	8706
615.443	8111
615.509	7901
615.575	9814
615.642	7961
615.708	9748
615.774	9302
615.840	10101
615.906	10541
615.972	14103
616.038	20178
616.104	45198
616.170	105336
616.236	71278
616.302	19488
616.368	13290
616.434	9742
616.500	10518
616.565	11917
616.631	12179
616.697	9501
616.763	11879
616.829	15073
616.895	23421
616.961	20623
617.026	11728
617.092	9357
617.158	9023
617.224	8541
617.289	8866
617.355	7014
617.421	6979
617.487	9090
617.552	7977
617.618	6970
617.684	6622
617.749	10093
617.815	7554
617.880	7347
617.946	7336
618.012	7978
618.077	8341
618.143	7600
618.208	8102
618.274	8029
618.339	8262
618.405	6377
618.470	8513
618.536	7119
618.601	7806
618.667	6510
618.732	7533
618.798	7020
618.863	7678
618.928	6363
618.994	7763
619.059	8234
619.124	8526
619.190	6701
619.255	6316
619.320	7130
619.386	7315
619.451	6175
619.516	7160
619.581	7511
619.647	7084
619.712	6315
619.777	7348
619.842	8308
619.907	8680
619.972	6772
620.038	6069
620.103	7844
620.168	6122
620.233	7429
620.298	6392
620.363	6469
620.428	7935
620.493	6987
620.558	6913
620.623	6873
620.688	7064
620.753	6873
620.818	7470
620.883	7922
620.948	7006
621.013	7087
621.078	7175
621.143	5554
621.207	9799
621.272	8217
621.337	8059
621.402	8533
621.467	9623
621.532	8993
621.596	10606
621.661	9349
621.726	7608
621.791	7616
621.855	7590
621.920	7736
621.985	7396
622.049	9185
622.114	7995
622.179	8695
622.243	7707
622.308	7549
622.373	10287
622.437	9796
622.502	7765
622.566	8303
622.631	6746
622.695	9423
622.760	8181
622.824	8661
622.889	8942
622.953	8763
623.018	12803
623.082	11959
623.147	8629
623.211	9077
623.276	8395
623.340	7247
623.404	8858
623.469	7692
623.533	8365
623.597	8062
623.662	7640
623.726	6777
623.790	6652
623.854	7340
623.919	8140
623.983	8087
624.047	7070
624.111	8067
624.176	8218
624.240	13106
624.304	14193
624.368	7079
624.432	7210
624.496	7520
624.560	7504
624.625	6991
624.689	8446
624.753	7007
624.817	6911
624.881	6272
624.945	7372
625.009	7075
625.073	7306
625.137	8947
625.201	8798
625.265	7835
625.329	7759
625.393	7398
625.456	6750
625.520	6994
625.584	8079
625.648	8663
625.712	11012
625.776	17486
625.839	18776
625.903	9080
625.967	6327
626.031	11180
626.095	12052
626.158	6078
626.222	4490
626.286	6229
626.349	5293
626.413	4289
626.477	6510
626.540	4862
626.604	4585
626.668	7176
626.731	5078
626.795	5159
626.858	4929
626.922	4762
626.986	4875
627.049	2872
627.113	4962
627.176	5060
627.240	4837
627.303	4415
627.366	4683
627.430	5565
627.493	5238
627.557	3350
627.620	5636
627.684	3142
627.747	5191
627.810	2354
627.874	4959
627.937	3240
628.000	6218
628.064	4053
628.127	2732
628.190	3733
628.253	4389
628.317	3783
628.380	4772
628.443	5360
628.506	4252
628.569	4254
628.632	3217
628.696	3626
628.759	2955
628.822	2649
628.885	3245
628.948	3524
629.011	3311
629.074	2879
629.137	3697
629.200	4411
629.263	6351
629.326	2486
629.389	2694
629.452	3067
629.515	3166
629.578	3784
629.641	4904
629.704	2482
629.767	3125
629.830	4116
629.892	3025
629.955	2125
630.018	4705
630.081	1949
630.144	3683
630.207	1865
630.269	4577
630.332	2792
630.395	3244
630.458	3119
630.520	451
630.583	4107
630.646	3274
630.708	2114
630.771	1757
630.834	3603
630.896	2252
630.959	2617
631.021	1959
631.084	2331
631.146	3243
631.209	4307
631.272	2125
631.334	3667
631.397	2099
631.459	1777
631.522	3260
631.584	2571
631.646	3378
631.709	3068
631.771	2683
631.834	2985
631.896	2741
631.958	1142
632.021	3437
632.083	1508
632.145	3140
632.208	2016
632.270	3572
632.332	1175
632.395	1500
632.457	3158
632.519	1950
632.581	3267
632.643	1642
632.706	2633
632.768	1468
632.830	3299
632.892	1973
632.954	2013
633.016	2935
633.078	2043
633.141	2072
633.203	1912
633.265	2947
633.327	2914
633.389	896
633.451	3856
633.513	2124
633.575	2786
633.637	1638
633.698	1778
633.760	2938
633.822	3547
633.884	4039
633.946	5266
634.008	9040
634.070	22036
634.132	52735
634.193	18492
634.255	3514
634.317	1820
634.379	3572
634.441	1533
634.502	1671
634.564	2740
634.626	2498
634.687	2259
634.749	2648
634.811	2518
634.873	1514
634.934	2441
634.996	2378
635.057	1683
635.119	986
635.181	2166
635.242	3169
635.304	465
635.365	4339
635.427	1164
635.488	2079
635.550	1275
635.611	3084
635.673	-214
635.734	3474
635.796	1462
635.857	2547
635.918	1627
635.980	2933
636.041	775
636.102	2392
636.164	2575
636.225	2685
636.286	120
636.348	2396
636.409	2148
636.470	1147
636.531	1891
636.593	1052
636.654	2306
636.715	2297
636.776	2180
636.838	1170
636.899	1865
636.960	1472
637.021	1170
637.082	1747
637.143	2561
637.204	1057
637.265	944
637.326	1423
637.387	1935
637.448	353
637.509	1445
637.570	1088
637.631	3163
637.692	193
637.753	806
637.814	2241
637.875	1644
637.936	2572
637.997	1240
638.058	908
638.119	1197
638.179	1324
638.240	1371
638.301	1048
638.362	761
638.423	742
638.483	2174
638.544	677
638.605	2414
638.666	632
638.726	2083
638.787	1973
638.848	1187
638.908	1395
638.969	1065
639.030	908
639.090	989
639.151	676
639.211	2314
639.272	1450
639.332	2404
639.393	1708
639.453	1096
639.514	1276
639.574	1186
639.635	1201
639.695	1926
639.756	125
639.816	1551
639.877	1448
639.937	2697
639.997	3014
640.058	349
640.118	1189
640.178	2352
640.239	692
640.299	747
640.359	903
640.420	1101
640.480	1211
640.540	369
640.600	149
640.661	2179
640.721	942
640.781	2433
640.841	982
640.901	939
640.961	1173
641.021	1051
641.082	411
641.142	1851
641.202	1672
641.262	-83
641.322	1325
641.382	154
641.442	1306
641.502	1161
641.562	1531
641.622	1063
641.682	315
641.742	962
641.802	1250
641.861	1701
641.921	1182
641.981	2437
642.041	1427
642.101	991
642.161	-135
642.221	1094
642.280	1056
642.340	722
642.400	-124
642.460	1659
642.519	657
642.579	1353
642.639	2184
642.698	-813
642.758	2587
642.818	1583
642.877	203
642.937	700
642.997	1738
643.056	1868
643.116	-701
643.175	2895
643.235	764
643.294	994
643.354	1400
643.414	1882
643.473	1500
643.532	848
643.592	1259
643.651	3742
643.711	7422
643.770	13204
643.830	32161
643.889	58626
643.948	10405
644.008	2557
644.067	1390
644.126	514
644.186	856
644.245	1936
644.304	145
644.363	2490
644.423	-199
644.482	80
644.541	1288
644.600	-102
644.659	2419
644.719	1273
644.778	3206
644.837	5137
644.896	9749
644.955	19455
645.014	24692
645.073	31324
645.132	5555
645.191	2167
645.250	1051
645.309	2549
645.368	562
645.427	2312
645.486	397
645.545	2857
645.604	-1
645.663	1541
645.722	565
645.781	1576
645.840	1530
645.898	788
645.957	3503
646.016	1570
646.075	5738
646.134	11271
646.192	30932
646.251	37784
646.310	4395
646.369	2282
646.427	1512
646.486	-358
646.545	797
646.603	685
646.662	1755
646.721	1542
646.779	506
646.838	-858
646.896	1149
646.955	773
647.014	2140
647.072	2150
647.131	7505
647.189	2340
647.248	-129
647.306	1217
647.365	2516
647.423	-1189
647.481	1276
647.540	-701
647.598	398
647.657	273
647.715	1842
647.773	34
647.832	1951
647.890	-236
647.948	681
648.007	2646
648.065	2817
648.123	7376
648.181	16985
648.240	43074
648.298	28776
648.356	3614
648.414	2258
648.472	1829
648.531	2027
648.589	1517
648.647	720
648.705	521
648.763	1147
648.821	536
648.879	1183
648.937	828
648.995	1417
649.053	2181
649.111	2844
649.169	4043
649.227	6511
649.285	12494
649.343	27243
649.401	17826
649.459	21241
649.516	36294
649.574	68558
649.632	192472
649.690	187870
649.748	52484
649.806	83947
649.863	109856
649.921	23451
649.979	7573
650.037	4034
650.094	1019
650.152	2788
650.210	666
650.268	2361
650.325	1621
650.383	1526
650.440	617
650.498	1552
650.556	1323
650.613	516
650.671	1078
650.728	545
650.786	236
650.843	820
650.901	-972
650.958	658
651.016	581
651.073	159
651.131	-3
651.188	-809
651.246	501
651.303	-484
651.360	949
651.418	161
651.475	605
651.532	-952
651.590	410
651.647	232
651.704	577
651.762	-233
651.819	1278
651.876	567
651.933	529
651.990	612
652.048	-1309
652.105	-438
652.162	162
652.219	-114
652.276	1482
652.333	1373
652.390	784
652.448	2788
652.505	5569
652.562	10023
652.619	21069
652.676	60772
652.733	47912
652.790	4625
652.847	988
652.904	975
652.961	-82
653.017	75
653.074	1407
653.131	1174
653.188	-1051
653.245	-274
653.302	151
653.359	609
653.415	689
653.472	-869
653.529	357
653.586	-517
653.642	-631
653.699	148
653.756	-1049
653.813	359
653.869	774
653.926	-861
653.983	-1198
654.039	920
654.096	-345
654.152	783
654.209	-1274
654.266	313
654.322	-779
654.379	1068
654.435	79
654.492	-395
654.548	504
654.605	160
654.661	586
654.717	-214
654.774	-53
654.830	343
654.887	737
654.943	851
655.000	65
655.056	106
655.112	851
655.168	-908
655.225	-346
655.281	638
655.337	281
655.394	291
655.450	229
655.506	-22
655.562	619
655.618	828
655.675	-271
655.731	750
655.787	-253
655.843	923
655.899	-196
655.955	342
656.011	1076
656.067	466
656.123	1510
656.179	1072
656.235	2190
656.291	-75
656.347	921
656.403	241
656.459	995
656.515	505
656.571	616
656.627	-139
656.683	586
656.739	-239
656.795	303
656.850	113
656.906	384
656.962	483
657.018	-292
657.074	290
657.129	-337
657.185	231
657.241	522
657.297	-430
657.352	369
657.408	-1156
657.464	1071
657.519	-139
657.575	-488
657.630	-193
657.686	-449
657.742	-772
657.797	94
657.853	-388
657.908	1258
657.964	-387
658.019	157
658.075	747
658.130	484
658.186	-88
658.241	140
658.297	-782
658.352	-417
658.407	-171
658.463	1
658.518	-151
658.573	-409
658.629	-392
658.684	-510
658.739	-202
658.795	-227
658.850	-200
658.905	-563
658.960	148
659.016	22
659.071	-227
659.126	957
659.181	765
659.236	3332
659.291	4615
659.346	6004
659.401	11247
659.457	29732
659.512	47340
659.567	10232
659.622	2149
659.677	1058
659.732	-1100
659.787	-237
659.842	261
659.897	456
659.952	-399
660.007	-174
660.061	-518
660.116	-1200
660.171	-887
660.226	-207
660.281	446
660.336	-748
660.391	347
660.445	-1070
660.500	-32
660.555	-272
660.610	-757
660.664	224
660.719	-824
660.774	674
660.828	635
660.883	203
660.938	352
660.992	-515
661.047	265
661.101	-1159
661.156	-312
661.211	-692
661.265	-222
661.320	-562
661.374	297
661.429	-418
661.483	378
661.538	-686
661.592	266
661.647	71
661.701	176
661.755	186
661.810	-25
661.864	-675
661.919	-1234
661.973	380
662.027	-565
662.081	-690
662.136	-428
662.190	-25
662.244	-118
662.299	-534
662.353	275
662.407	-1024
662.461	-761
662.515	383
662.569	-505
662.624	-411
662.678	-364
662.732	-860
662.786	-896
662.840	-578
662.894	-188
662.948	-775
663.002	-166
663.056	304
663.110	-446
663.164	-482
663.218	-340
663.272	41
663.326	-84
663.380	-387
663.434	-468
663.488	-1105
663.542	-684
663.595	171
663.649	-761
663.703	649
663.757	-733
663.811	-493
663.864	-667
663.918	-656
663.972	-1153
664.026	-861
664.079	-746
664.133	478
664.187	-102
664.240	-535
664.294	-255
664.348	-69
664.401	-594
664.455	-602
664.508	-764
664.562	-506
664.615	-189
664.669	-368
664.722	391
664.776	-980
664.829	450
664.883	-722
664.936	-420
664.990	-569
665.043	302
665.097	-252
665.150	284
665.203	227
665.257	-512
665.310	-538
665.363	239
665.417	950
665.470	-447
665.523	16
665.576	-209
665.630	-204
665.683	-187
665.736	-589
665.789	-345
665.842	-749
665.895	-425
665.949	-168
666.002	-410
666.055	-260
666.108	-60
666.161	-418
666.214	-54
666.267	-257
666.320	-461
666.373	-566
666.426	82
666.479	89
666.532	-202
666.585	-839
666.638	-371
666.691	-316
666.744	-1087
666.796	-570
666.849	-869
666.902	-367
666.955	-185
667.008	-669
667.060	-266
667.113	-384
667.166	141
667.219	-404
667.271	676
667.324	2247
667.377	3646
667.430	7374
667.482	21349
667.535	11713
667.587	1635
667.640	401
667.693	-540
667.745	912
667.798	-62
667.850	235
667.903	-600
667.955	-524
668.008	-1045
668.060	-755
668.113	-479
668.165	-183
668.218	-231
668.270	-142
668.322	-932
668.375	-631
668.427	-46
668.479	-205
668.532	-294
668.584	-247
668.636	-640
668.689	410
668.741	-827
668.793	-379
668.845	-289
668.898	358
668.950	183
669.002	-522
669.054	432
669.106	917
669.158	1968
669.211	2968
669.263	6085
669.315	16507
669.367	22154
669.419	3420
669.471	1709
669.523	569
669.575	454
669.627	1076
669.679	171
669.731	-230
669.783	-255
669.835	331
669.886	-398
669.938	-114
669.990	-99
670.042	-116
670.094	1024
670.146	700
670.197	700
670.249	1529
670.301	1776
670.353	2861
670.404	4406
670.456	6316
670.508	12404
670.560	20564
670.611	36092
670.663	67890
670.715	153068
670.766	192240
670.818	61314
670.869	13517
670.921	6487
670.972	4123
671.024	2566
671.075	2016
671.127	1186
671.178	1135
671.230	736
671.281	564
671.333	402
671.384	-26
671.436	-144
671.487	764
671.538	123
671.590	657
671.641	1577
671.692	1807
671.744	3192
671.795	1791
671.846	672
671.897	-491
671.949	-104
672.000	166
672.051	-53
672.102	38
672.153	-215
672.204	-296
672.256	189
672.307	-1030
672.358	-286
672.409	-321
672.460	-395
672.511	-359
672.562	-556
672.613	-243
672.664	-459
672.715	128
672.766	-197
672.817	-787
672.868	-723
672.919	-451
672.970	-437
673.021	-512
673.071	-563
673.122	-729
673.173	-6
673.224	-993
673.275	-433
673.326	-180
673.376	-165
673.427	-630
673.478	-364
673.528	-297
673.579	-75
673.630	-288
673.680	487
673.731	-1247
673.782	-314
673.832	-489
673.883	-270
673.934	-591
673.984	-1239
674.035	-1223
674.085	26
674.136	-188
674.186	-1356
674.237	-895
674.287	-348
674.338	-885
674.388	-882
674.438	-1005
674.489	-824
674.539	-1008
674.589	-158
674.640	-413
674.690	-1069
674.740	-1187
674.791	-468
674.841	-1073
674.891	-202
674.942	309
674.992	-613
675.042	-1178
675.092	-826
675.142	-1070
675.193	-1645
675.243	-466
675.293	-215
675.343	-678
675.393	-122
675.443	-620
675.493	-355
675.543	-1204
675.593	-147
675.643	-587
675.693	-601
675.743	-254
675.793	-173
675.843	-492
675.893	199
675.943	-1087
675.993	-573
676.043	196
676.093	-498
676.142	-479
676.192	227
676.242	-690
676.292	-673
676.341	-331
676.391	-1103
676.441	-272
676.491	-516
676.540	-1184
676.590	-379
676.640	-337
676.689	-581
676.739	-1461
676.789	461
676.838	-584
676.888	-234
676.937	-216
676.987	-657
677.037	-483
677.086	-623
677.136	-14
677.185	-897
677.235	-581
677.284	-375
677.333	-449
677.383	-1086
677.432	-807
677.482	-651
677.531	-566
677.580	-913
677.630	-788
677.679	-505
677.728	-1136
677.778	-997
677.827	-1011
677.876	-708
677.925	-972
677.975	-1021
678.024	-412
678.073	-523
678.122	-244
678.171	-663
678.220	-1170
678.269	-484
678.319	-485
678.368	-855
678.417	-893
678.466	-531
678.515	-737
678.564	-1398
678.613	-1111
678.662	-536
678.711	-1074
678.760	-683
678.809	-1156
678.857	-1229
678.906	-525
678.955	-794
679.004	-166
679.053	-928
679.102	-471
679.151	-555
679.199	-244
679.248	-695
679.297	-1620
679.346	-916
679.394	-1435
679.443	-829
679.492	-764
679.540	-804
679.589	-875
679.638	-877
679.686	-617
679.735	-885
679.784	-829
679.832	-1000
679.881	-935
679.929	-1201
679.978	-725
680.026	-184
680.075	-198
680.123	-1875
680.172	-678
680.220	-883
680.268	-215
680.317	-840
680.365	-670
680.414	-1268
680.462	-755
680.510	-685
680.559	-623
680.607	-1113
680.655	-1659
680.703	-1139
680.752	-842
680.800	-852
680.848	-1271
680.896	-523
680.945	-485
680.993	-918
681.041	-950
681.089	-1183
681.137	-1246
681.185	-1298
681.233	-697
681.258	-805
681.281	-925
681.329	-1398
681.377	-1717
681.380	-1642
681.425	-597
681.473	-446
681.502	-635
681.521	-801
681.569	-980
681.617	-305
681.624	-360
681.665	-866
681.713	-659
681.745	-782
681.761	-858
681.809	-1112
681.857	-60
681.867	-278
681.904	-1130
681.952	-373
681.989	74
682.000	197
682.048	-278
682.096	-305
682.111	-393
682.143	-665
682.191	-325
682.233	476
682.239	579
682.286	473
682.334	108
682.354	-6
682.382	-214
682.430	-160
682.476	-241
682.477	-255
682.525	-236
682.572	-322
682.598	138
682.620	476
682.667	-955
682.715	542
682.720	473
682.763	-301
682.810	-27
682.841	52
682.857	43
682.905	228
682.952	270
682.963	269
683.000	294
683.047	542
683.085	1141
683.095	1277
683.142	830
683.190	-146
683.206	112
683.237	528
683.284	446
683.328	547
683.332	544
683.379	1086
683.426	675
683.449	811
683.473	936
683.521	557
683.568	1582
683.571	1540
683.615	811
683.662	924
683.693	800
683.709	717
683.757	826
683.804	1164
683.814	1149
683.851	1033
683.898	1232
683.936	1146
683.945	1103
683.992	1080
684.039	959
684.057	938
684.086	934
684.133	926
684.179	735
684.180	715
684.227	1243
684.274	1741
684.300	1642
684.321	1540
684.368	726
684.415	1383
684.422	1361
684.462	1213
684.509	1249
684.543	1239
684.556	1220
684.603	1373
684.649	1165
684.665	1295
684.696	1598
684.743	1667
684.786	1871
684.790	1882
684.837	1361
684.883	1519
684.908	1738
684.930	1889
684.977	1968
685.023	1560
685.029	1585
685.070	1575
685.117	1757
685.150	1354
685.164	1241
685.210	2102
685.257	2761
685.272	2554
685.303	2001
685.350	1801
685.393	2249
685.396	2285
685.443	1723
685.490	2232
685.514	2537
685.536	2757
685.583	2069
685.629	2478
685.636	2470
685.675	2357
685.722	1880
685.757	2109
685.768	2193
685.815	2539
685.861	3232
685.878	2838
685.908	2275
685.954	2711
686.000	2957
686.000	2955
686.047	3033
686.093	3415
686.121	3287
686.139	3154
686.185	3690
686.232	3393
686.242	3478
686.278	3987
686.324	4031
686.363	4063
686.370	4241
686.416	6247
686.463	8376
686.484	9575
686.509	10296
686.555	9779
686.601	9381
686.606	9463
686.647	8123
686.693	6343
686.727	4492
686.739	4278
686.785	4735
686.831	4229
686.848	4287
686.877	4299
686.923	4247
686.969	3277
686.969	3272
687.015	3303
687.061	3770
687.090	3631
687.107	3517
687.153	3545
687.199	2554
687.211	2613
687.245	2914
687.291	3291
687.332	2859
687.336	2829
687.382	3125
687.428	3230
687.453	3471
687.474	3561
687.520	3916
687.565	3411
687.574	3468
687.611	3816
687.657	3313
687.695	3576
687.702	3620
687.748	3994
687.794	3640
687.816	3748
687.839	3774
687.885	3454
687.931	3244
687.937	3215
687.976	3095
688.022	3610
688.058	3590
688.067	3660
688.113	3303
688.158	3656
688.179	3746
688.204	3676
688.249	4279
688.295	3881
688.300	3947
688.340	4565
688.386	4305
688.421	4347
688.431	4320
688.477	3927
688.522	3755
688.542	3766
688.567	3903
688.613	3930
688.658	4254
688.663	4235
688.703	4159
688.749	4154
688.784	4482
688.794	4575
688.839	4504
688.884	4850
688.905	4510
688.930	4017
688.975	4693
689.020	4497
689.026	4440
689.065	4099
689.110	3884
689.146	3992
689.155	4047
689.201	3989
689.246	4017
689.267	4246
689.291	4545
689.336	4739
689.381	4494
689.388	4489
689.426	4416
689.471	4884
689.509	4330
689.516	4203
689.561	4096
689.606	3919
689.630	4000
689.651	4296
689.696	3988
689.741	4443
689.750	4614
689.785	5066
689.830	4626
689.871	4569
689.875	4556
689.920	4378
689.965	4558
689.992	4120
690.010	4023
690.054	4333
690.099	4608
690.112	4683
690.144	4752
690.189	4798
690.233	4976
690.233	4986
690.278	5030
690.323	5146
690.354	5181
690.367	5238
690.412	5325
690.457	5120
690.474	5244
690.501	5506
690.546	5428
690.590	6194
690.595	6134
690.635	5883
690.680	6468
690.716	6439
690.724	6522
690.769	7622
690.813	8498
690.836	8836
690.857	10047
690.902	12642
690.946	15376
690.957	16026
690.991	21217
691.035	28807
691.077	35124
691.080	35003
691.124	30292
691.168	26252
691.198	23961
691.213	22470
691.257	17686
691.301	12301
691.318	10396
691.346	9552
691.390	8184
691.434	6643
691.439	6522
691.478	7118
691.522	6968
691.559	7186
691.567	7177
691.611	7050
691.655	6365
691.680	6199
691.699	6172
691.743	6326
691.787	5958
691.800	5965
691.831	6135
691.875	6548
691.919	6532
691.921	6507
691.964	6247
692.008	6783
692.041	6679
692.052	6596
692.096	6285
692.139	6454
692.162	6323
692.183	6304
692.227	6093
692.271	6323
692.282	6314
692.315	6334
692.359	6423
692.402	6297
692.403	6312
692.447	6339
692.490	6562
692.523	6300
692.534	6219
692.578	6544
692.622	6309
692.643	6391
692.666	6557
692.709	6525
692.753	6550
692.763	6597
692.797	6777
692.840	7083
692.884	7056
692.884	7074
692.928	7226
692.971	7509
693.004	7669
693.015	7668
693.059	7394
693.102	7416
693.124	7150
693.146	7207
693.189	7741
693.233	8192
693.245	8333
693.276	8757
693.320	9051
693.363	9384
693.365	9369
693.407	9954
693.450	10967
693.485	11515
693.493	11905
693.537	13976
693.580	15676
693.605	16799
693.624	19481
693.667	25902
693.710	32427
693.725	34648
693.753	45033
693.797	61512
693.840	77688
693.845	79397
693.883	71237
693.926	61807
693.966	53661
693.970	52559
694.013	39562
694.056	26971
694.086	18145
694.099	17523
694.142	15331
694.185	13422
694.206	12271
694.229	11664
694.272	10695
694.315	9872
694.326	9585
694.358	9439
694.401	9254
694.444	9142
694.446	9108
694.487	8910
694.530	8482
694.566	8437
694.573	8469
694.616	8331
694.659	8134
694.686	8110
694.702	8110
694.745	7874
694.787	7727
694.806	7573
694.830	7524
694.873	7518
694.916	7564
694.926	7535
694.959	7432
695.002	7363
695.044	7133
695.046	7103
695.087	7209
695.130	7480
695.166	7657
695.172	7695
695.215	7693
695.258	7853
695.286	7890
695.301	7936
695.343	7907
695.386	8045
695.406	7933
695.428	7799
695.471	7816
695.514	7735
695.526	7670
695.556	7662
695.599	7947
695.641	7749
695.646	7741
695.684	7713
695.726	7526
695.766	7390
695.769	7429
695.811	7677
695.854	7737
695.886	8064
695.896	8141
695.938	7917
695.981	7786
696.005	7823
696.023	8024
696.065	8256
696.108	8696
696.125	8769
696.150	8847
696.192	8974
696.235	9096
696.245	9122
696.277	9061
696.319	8896
696.361	8683
696.365	8646
696.404	8845
696.446	9048
696.485	9168
696.488	9185
696.530	8937
696.572	8687
696.604	8683
696.614	8703
696.656	8515
696.698	8363
696.724	8208
696.740	8288
696.783	8479
696.825	8664
696.844	8719
696.867	8720
696.909	8648
696.951	8523
696.964	8516
696.992	8551
697.034	8314
697.076	8263
697.083	8214
697.118	8273
697.160	8468
697.202	8501
697.203	8478
697.244	8287
697.286	7998
697.323	7858
697.327	7888
697.369	7887
697.411	7850
697.442	7810
697.453	7919
697.494	8183
697.536	8551
697.562	8735
697.578	8752
697.620	8780
697.661	8714
697.682	8684
697.703	8820
697.744	9069
697.786	9305
697.801	9327
697.828	9196
697.869	8989
697.911	8779
697.921	8701
697.952	8649
697.994	8564
698.035	8483
698.040	8447
698.077	8657
698.118	8798
698.160	8970
698.160	8941
698.201	8762
698.243	8451
698.279	8193
698.284	8262
698.325	8679
698.367	9027
698.399	9304
698.408	9336
698.449	9331
698.491	9314
698.518	9288
698.532	9285
698.573	9189
698.614	9084
698.638	8989
698.656	9016
698.697	9017
698.738	9026
698.757	9004
698.779	9058
698.820	9102
698.862	9150
698.877	9139
698.903	9228
698.944	9333
698.985	9421
698.996	9422
699.026	9303
699.067	9098
699.116	8829
699.235	8355
699.354	8956
699.474	9751
699.593	9200
699.713	9298
699.832	8548
699.951	9193
700.070	8963
700.190	8403
700.309	8735
700.428	8979
700.547	7643
700.667	9055
700.786	8996
700.905	8486
701.024	8358
701.143	7886
701.262	7815
701.381	7879
701.500	7694
701.619	8023
701.738	7533
701.857	9257
701.976	7583
702.095	8611
702.214	8100
702.333	8875
702.452	7164
702.571	8186
702.690	7552
702.809	7824
702.928	7633
703.047	7933
703.165	8067
703.284	8073
703.403	7980
703.522	8190
703.640	8050
703.759	8795
703.878	10134
703.997	8020
704.115	7317
704.234	8455
704.353	8001
704.471	7806
704.590	6787
704.708	7733
704.827	7658
704.946	8215
705.064	8230
705.183	8737
705.301	10572
705.420	14753
705.538	18356
705.656	31184
705.775	78972
705.893	322853
706.012	345732
706.130	29738
706.249	13850
706.367	12438
706.485	11267
706.604	9599
706.722	9477
706.840	10548
706.958	10870
707.077	9892
707.195	9019
707.313	8597
707.431	8081
707.549	7999
707.668	8388
707.786	9080
707.904	7614
708.022	7606
708.140	8692
708.258	8357
708.376	7990
708.494	7966
708.612	8071
708.730	10819
708.848	11654
708.966	12841
709.084	10088
709.202	9186
709.320	9004
709.438	9190
709.556	8720
709.674	8878
709.791	9416
709.909	9418
710.027	9180
710.145	9177
710.263	8820
710.380	7788
710.498	8974
710.616	9641
710.733	7933
710.851	9406
710.969	9127
711.086	9045
711.204	7925
711.322	8828
711.439	9547
711.557	11699
711.674	15424
711.792	27571
711.909	89410
712.027	131239
712.144	16591
712.262	10755
712.379	10365
712.497	13205
712.614	12889
712.732	12232
712.849	10675
712.966	11027
713.084	11194
713.201	9680
713.318	11292
713.436	10067
713.553	10321
713.670	10771
713.787	11266
713.905	11182
714.022	9803
714.139	9657
714.256	10529
714.373	11173
714.490	13368
714.608	23688
714.725	76569
714.842	60442
714.959	11447
715.076	10121
715.193	9881
715.310	11932
715.427	10149
715.544	9647
715.661	9083
715.778	8782
715.895	9034
716.011	9194
716.128	8834
716.245	8836
716.362	9704
716.479	9124
716.596	8517
716.713	8876
716.829	7894
716.946	8293
717.063	7242
717.180	7328
717.296	7625
717.413	8455
717.530	7664
717.646	8627
717.763	7648
717.880	7562
717.996	7377
718.113	7413
718.229	7580
718.346	7010
718.462	6824
718.579	8162
718.695	9535
718.812	8267
718.928	8297
719.045	7553
719.161	8296
719.277	9009
719.394	17989
719.510	30263
719.626	8795
719.743	8685
719.859	8673
719.975	10102
720.092	22153
720.208	37667
720.324	9212
720.440	7417
720.557	7243
720.673	8422
720.789	11105
720.905	19742
721.021	8078
721.137	6689
721.253	6414
721.369	7300
721.486	6684
721.602	8429
721.718	5988
721.834	6747
721.950	5923
722.066	6268
722.181	5335
722.297	7359
722.413	5035
722.529	7166
722.645	8027
722.761	11653
722.877	16431
722.993	8461
723.108	6815
723.224	5727
723.340	5995
723.456	6082
723.571	6319
723.687	5689
723.803	4955
723.918	5477
724.034	5958
724.150	4922
724.265	5829
724.381	9884
724.497	9027
724.612	5649
724.728	5137
724.843	5195
724.959	5698
725.074	9890
725.190	7727
725.305	5301
725.421	5166
725.536	4795
725.651	4525
725.767	5067
725.882	4977
725.997	5040
726.113	4993
726.228	4795
726.343	4024
726.459	4469
726.574	4948
726.689	4638
726.804	4745
726.920	5227
727.035	4776
727.150	5393
727.265	4564
727.380	6049
727.495	7042
727.610	9838
727.725	19049
727.841	58704
727.956	234195
728.071	108043
728.186	11019
728.301	6434
728.416	5777
728.531	6010
728.645	3573
728.760	4827
728.875	4647
728.990	4207
729.105	3714
729.220	4435
729.335	4179
729.449	4764
729.564	3807
729.679	3509
729.794	2978
729.908	4208
730.023	4086
730.138	3267
730.253	3933
730.367	4391
730.482	3266
730.596	4157
730.711	4012
730.826	4614
730.940	3057
731.055	4272
731.169	3486
731.284	3219
731.398	3380
731.513	3845
731.627	2934
731.742	3693
731.856	4151
731.970	3127
732.085	2639
732.199	4743
732.313	4803
732.428	8636
732.542	20312
732.656	11616
732.771	3914
732.885	3522
732.999	3582
733.113	3827
733.227	3614
733.342	3559
733.456	2675
733.570	3649
733.684	2931
733.798	4065
733.912	3623
734.026	3240
734.140	2266
734.254	3542
734.368	4995
734.482	5624
734.596	2611
734.710	3127
734.824	3821
734.938	3580
735.052	2692
735.166	4586
735.280	3345
735.393	3475
735.507	2775
735.621	4410
735.735	5617
735.849	4570
735.962	4143
736.076	4154
736.190	3821
736.303	5385
736.417	4733
736.531	3526
736.644	2650
736.758	2258
736.872	2076
736.985	2977
737.099	3146
737.212	2767
737.326	2894
737.439	4254
737.553	3696
737.666	3214
737.780	1940
737.893	3330
738.007	2340
738.120	3084
738.233	3115
738.347	3602
738.460	3402
738.573	3368
738.687	3662
738.800	4575
738.913	4842
739.026	9414
739.140	30610
739.253	37222
739.366	5963
739.479	4272
739.592	3177
739.705	3026
739.818	3060
739.932	3179
740.045	3186
740.158	3299
740.271	2193
740.384	3083
740.497	2711
740.610	2717
740.723	2676
740.836	3827
740.949	3535
741.062	3752
741.174	2991
741.287	3702
741.400	3175
741.513	3777
741.626	5856
741.739	8687
741.851	2586
741.964	3251
742.077	2490
742.189	2686
742.302	3561
742.415	3303
742.527	2889
742.640	2814
742.753	3021
742.865	2818
742.978	2493
743.090	3259
743.203	2658
743.316	3183
743.428	3201
743.541	3525
743.653	2719
743.766	3048
743.878	2200
743.990	2921
744.103	4653
744.215	4483
744.327	2792
744.440	3752
744.552	3422
744.664	3117
744.777	2523
744.889	1848
745.001	4042
745.113	2910
745.226	2773
745.338	3412
745.450	2588
745.562	3601
745.674	3683
745.786	4689
745.898	9925
746.010	11480
746.122	4835
746.234	4150
746.347	3628
746.459	3285
746.570	2940
746.682	4256
746.794	5340
746.906	3480
747.018	2454
747.130	3094
747.242	2410
747.354	2599
747.466	3584
747.577	3000
747.689	3394
747.801	3273
747.913	2345
748.024	2801
748.136	2322
748.248	3518
748.359	4159
748.471	4526
748.583	7941
748.694	30170
748.806	46539
748.918	5715
749.029	2583
749.141	2827
749.252	3010
749.364	3709
749.475	4153
749.587	3637
749.698	2563
749.809	3940
749.921	2535
750.032	2581
750.144	1880
750.255	2780
750.366	2324
750.478	3134
750.589	2592
750.700	2008
750.811	2769
750.923	3215
751.034	3142
751.145	3980
751.256	1984
751.367	3111
751.479	1924
751.590	2505
751.701	1824
751.812	2647
751.923	2887
752.034	2412
752.145	1917
752.256	3060
752.367	2549
752.478	2857
752.589	1571
752.700	2912
752.811	2548
752.922	1739
753.032	2091
753.143	3459
753.254	1512
753.365	3334
753.476	2443
753.586	2832
753.697	1772
753.808	1918
753.919	1601
754.029	3034
754.140	3072
754.251	2426
754.361	2917
754.472	2323
754.582	2347
754.693	3616
754.804	2684
754.914	2437
755.025	2678
755.135	3492
755.246	2870
755.356	2251
755.466	3038
755.577	2448
755.687	3344
755.798	2590
755.908	2001
756.018	2305
756.129	2373
756.239	2834
756.349	3618
756.460	2769
756.570	3493
756.680	2828
756.790	1868
756.900	3680
757.011	2690
757.121	3484
757.231	2382
757.341	3971
757.451	3155
757.561	2107
757.671	2420
757.781	2206
757.891	3083
758.001	3201
758.111	2886
758.221	3163
758.331	2288
758.441	3148
758.551	2858
758.661	3506
758.771	3078
758.880	2827
758.990	2852
759.100	3123
759.210	3086
759.320	3512
759.429	3801
759.539	3781
759.649	2693
759.758	4228
759.868	3282
759.978	3016
760.087	3082
760.197	4194
760.307	3411
760.416	2970
760.526	3699
760.635	4505
760.745	3598
760.854	4595
760.964	8340
761.073	6781
761.182	4485
761.292	4592
761.401	4645
761.511	3738
761.620	4504
761.729	4993
761.839	4155
761.948	4666
762.057	4908
762.166	5120
762.276	4024
762.385	6848
762.494	5897
762.603	5527
762.712	6388
762.822	5463
762.931	6520
763.040	5699
763.149	6143
763.258	7453
763.367	7548
763.476	8512
763.585	9715
763.694	12653
763.803	9763
763.912	10660
764.021	11309
764.130	12731
764.238	18798
764.347	17071
764.456	13526
764.565	14994
764.674	14963
764.783	16191
764.891	17680
765.000	21252
765.109	23419
765.217	27555
765.326	32078
765.435	37130
765.543	45947
765.652	57146
765.761	71872
765.869	96518
765.978	134103
766.086	191110
766.195	279876
766.303	375252
766.412	322157
766.520	331537
766.629	353731
766.737	244911
766.846	167734
766.954	122867
767.062	111827
767.171	149014
767.279	69479
767.387	43882
767.496	36393
767.604	29600
767.712	27323
767.820	23542
767.928	21471
768.037	19995
768.145	19887
768.253	18808
768.361	16234
768.469	18561
768.577	17969
768.685	20386
768.793	19594
768.901	22830
769.009	27080
769.117	32637
769.225	41346
769.333	55817
769.441	83585
769.549	131999
769.657	225801
769.765	330278
769.873	293850
769.981	304742
770.088	191204
770.196	115070
770.304	76560
770.412	54869
770.519	44328
770.627	35486
770.735	28600
770.842	23895
770.950	20580
771.058	18219
771.165	15928
771.273	14494
771.380	13721
771.488	12050
771.595	9301
771.703	10018
771.810	9691
771.918	9006
772.025	8241
772.133	8234
772.240	7382
772.348	8620
772.455	7551
772.562	6207
772.670	5731
772.777	5864
772.884	5129
772.991	6089
773.099	4618
773.206	5008
773.313	4733
773.420	5512
773.528	3656
773.635	4679
773.742	4841
773.849	4759
773.956	3944
774.063	4100
774.170	3742
774.277	4958
774.384	3864
774.491	4170
774.598	4189
774.705	4112
774.812	2954
774.919	4058
775.026	3666
775.133	4988
775.239	3113
775.346	3483
775.453	3409
775.560	4028
775.667	2575
775.773	2273
775.880	3409
775.987	2857
776.093	3442
776.200	3142
776.307	2452
776.413	3168
776.520	2774
776.627	3447
776.733	3107
776.840	2463
776.946	4658
777.053	5423
777.159	7293
777.266	4158
777.372	8091
777.478	6549
777.585	3550
777.691	3314
777.798	5158
777.904	14184
778.010	45527
778.117	11867
778.223	3538
778.329	2605
778.435	2034
778.542	2968
778.648	1896
778.754	2313
778.860	1305
778.966	2988
779.072	1926
779.178	2270
779.284	1798
779.391	2055
779.497	1659
779.603	5007
779.708	3379
779.815	11499
779.920	38659
780.026	63670
780.132	8154
780.238	3101
780.344	2156
780.450	3456
780.556	1831
780.661	2077
780.767	1004
780.873	1989
780.979	1684
781.085	738
781.190	758
781.296	1833
781.402	856
781.507	676
781.613	1567
781.719	786
781.824	818
781.930	2644
782.035	1719
782.141	1389
782.246	1103
782.352	2028
782.457	1234
782.563	2083
782.668	963
782.773	1497
782.879	1287
782.984	1682
783.090	2481
783.195	2191
783.300	1298
783.405	1975
783.511	616
783.616	1284
783.721	903
783.826	2781
783.932	2985
784.037	2799
784.142	1821
784.247	832
784.352	1312
784.457	1734
784.562	964
784.667	1126
784.772	1008
784.877	953
784.982	606
785.087	1182
785.192	1149
785.297	832
785.402	1489
785.507	1585
785.611	1835
785.716	2085
785.821	1248
785.926	1459
786.031	645
786.135	1016
786.240	2798
786.345	935
786.450	1197
786.554	1366
786.659	950
786.763	-44
786.868	1843
786.973	1989
787.077	109
787.182	1370
787.286	1437
787.391	1689
787.495	-121
787.600	1665
787.704	270
787.809	2251
787.913	122
788.017	1035
788.122	786
788.226	1605
788.330	1021
788.435	1841
788.539	556
788.643	1577
788.747	1596
788.852	769
788.956	310
789.060	1920
789.164	174
789.268	662
789.372	1436
789.476	676
789.580	109
789.684	1165
789.788	1426
789.892	467
789.996	2130
790.100	1607
790.204	1306
790.308	2882
790.412	7512
790.516	25726
790.620	16901
790.724	3080
790.828	1876
790.931	2925
791.035	11130
791.139	15336
791.242	836
791.346	2469
791.450	972
791.554	1259
791.657	575
791.761	1515
791.864	1308
791.968	1216
792.072	1527
792.175	1077
792.279	1248
792.382	94
792.486	1310
792.589	1223
792.693	1006
792.796	531
792.899	1352
793.003	2227
793.106	-155
793.209	523
793.313	2059
793.416	-315
793.519	1968
793.623	1208
793.726	1433
793.829	1294
793.932	1563
794.035	250
794.138	1804
794.242	2072
794.345	1593
794.448	2648
794.551	4333
794.654	21966
794.757	37072
794.860	6164
794.963	1591
795.066	1530
795.169	1640
795.272	794
795.375	1177
795.477	888
795.580	935
795.683	-767
795.786	392
795.889	-340
795.991	1147
796.094	2149
796.197	-1230
796.300	2630
796.402	171
796.505	138
796.608	84
796.710	969
796.813	542
796.915	678
797.018	423
797.120	1430
797.223	-492
797.326	2119
797.428	59
797.530	208
797.633	952
797.735	1737
797.838	870
797.940	1713
798.042	379
798.145	1114
798.247	1649
798.349	-494
798.452	969
798.554	1026
798.656	-495
798.758	1381
798.860	-155
798.962	419
799.065	255
799.167	393
799.269	2227
799.371	2307
799.473	1145
799.575	-227
799.677	520
799.779	3151
799.881	-158
799.983	1427
800.085	487
800.187	440
800.289	-213
800.390	1211
800.492	1039
800.594	1648
800.696	-24
800.798	2426
800.899	-24
801.001	1007
801.103	296
801.205	1083
801.306	1437
801.408	129
801.509	481
801.611	1287
801.713	707
801.814	319
801.916	774
802.017	589
802.119	228
802.220	606
802.322	-1243
802.423	2451
802.525	-917
802.626	123
802.727	1384
802.829	1074
802.930	-1264
803.031	1884
803.133	-307
803.234	892
803.335	733
803.436	300
803.538	655
803.639	-960
803.740	1965
803.841	-403
803.942	957
804.043	729
804.144	-536
804.245	1037
804.346	-276
804.447	233
804.548	771
804.649	1428
804.750	810
804.851	423
804.952	248
805.053	1030
805.154	-498
805.255	759
805.355	632
805.456	659
805.557	-470
805.658	-274
805.758	1086
805.859	1024
805.960	-188
806.061	433
806.161	-398
806.262	495
806.362	-98
806.463	-211
806.564	870
806.664	346
806.765	343
806.865	1503
806.966	-72
807.066	-57
807.166	805
807.267	1219
807.367	-346
807.468	1296
807.568	-1245
807.668	1076
807.769	1148
807.869	593
807.969	332
808.069	997
808.170	569
808.270	82
808.370	615
808.470	922
808.570	-938
808.670	426
808.770	326
808.870	-213
808.970	965
809.070	750
809.170	239
809.271	1733
809.370	39
809.470	666
809.570	-144
809.670	-470
809.770	599
809.870	721
809.970	-573
810.070	873
810.169	181
810.269	-678
810.369	1809
810.469	-161
810.568	-703
810.668	180
810.768	-893
810.867	602
810.967	25
811.066	-318
811.166	74
811.265	1443
811.365	-501
811.464	355
811.564	890
811.663	1720
811.763	-346
811.862	804
811.962	998
812.061	644
812.160	-390
812.260	523
812.359	677
812.458	1414
812.557	4465
812.657	5997
812.756	1104
812.855	820
812.954	-185
813.053	220
813.153	122
813.252	-480
813.351	485
813.450	-29
813.549	-230
813.648	510
813.747	1094
813.846	1246
813.945	-830
814.044	269
814.143	363
814.242	705
814.341	-119
814.439	674
814.538	784
814.637	-59
814.736	401
814.835	733
814.933	-207
815.032	1322
815.131	481
815.229	489
815.328	263
815.427	500
815.525	1050
815.624	952
815.722	-579
815.821	1462
815.919	676
816.018	647
816.116	495
816.215	750
816.313	340
816.412	250
816.510	31
816.609	1646
816.707	880
816.805	565
816.904	-112
817.002	812
817.100	1635
817.198	2152
817.296	9
817.395	521
817.493	1526
817.591	1140
817.689	1774
817.787	656
817.885	532
817.983	1953
818.081	2201
818.179	4249
818.277	10364
818.375	8373
818.473	2082
818.571	1550
818.669	1040
818.767	1723
818.865	41
818.963	1797
819.061	1087
819.158	2269
819.256	5159
819.354	8351
819.452	20022
819.549	9423
819.647	2605
819.745	1796
819.842	2014
819.940	1171
820.038	829
820.135	158
820.233	2696
820.330	1726
820.428	224
820.525	2385
820.623	998
820.720	1635
820.818	2120
820.915	5310
821.012	8446
821.110	1074
821.207	1317
821.304	691
821.402	315
821.499	2245
821.596	2492
821.693	1845
821.791	615
821.888	1107
821.985	1658
822.082	831
822.179	1454
822.276	1833
822.373	876
822.470	1450
822.567	339
822.664	552
822.761	1677
822.858	572
822.955	272
823.052	771
823.149	550
823.246	509
823.343	384
823.440	1504
823.536	498
823.633	891
823.730	934
823.827	569
823.923	551
824.020	1844
824.117	360
824.213	1181
824.310	1326
824.407	1136
824.503	1404
824.600	1457
824.696	593
824.793	1731
824.889	-502
824.986	-234
825.082	59
825.179	1767
825.275	483
825.371	298
825.468	1462
825.564	-597
825.660	610
825.757	388
825.853	1065
825.949	-460
826.045	1153
826.142	565
826.238	76
826.334	1343
826.430	-577
826.526	1609
826.622	176
826.718	-306
826.814	-254
826.910	1148
827.006	514
827.102	356
827.198	1155
827.294	150
827.390	232
827.486	448
827.582	-674
827.678	-649
827.774	401
827.869	-833
827.965	1133
828.061	-615
828.157	226
828.252	1129
828.348	-1075
828.444	1975
828.539	-335
828.635	414
828.731	536
828.826	-616
828.922	506
829.017	393
829.113	429
829.208	215
829.304	88
829.399	1073
829.495	-97
829.590	700
829.685	-433
829.781	1396
829.876	126
829.971	732
830.066	563
830.162	89
830.257	-428
830.352	207
830.447	725
830.543	730
830.638	-525
830.733	1278
830.828	32
830.923	866
831.018	563
831.113	124
831.208	-1316
831.303	222
831.398	-400
831.493	305
831.588	-165
831.683	-941
831.778	-3
831.873	-202
831.967	1289
832.062	-94
832.157	-512
832.252	1566
832.346	85
832.441	931
832.536	689
832.631	1043
832.725	63
832.820	-172
832.914	-43
833.009	1004
833.104	-434
833.198	813
833.293	-891
833.387	818
833.482	-227
833.576	46
833.670	190
833.765	394
833.859	-769
833.954	1248
834.048	-69
834.142	648
834.237	-401
834.331	318
834.425	-116
834.519	-432
834.613	-286
834.708	-643
834.802	639
834.896	164
834.990	57
835.084	628
835.178	-891
835.272	187
835.366	130
835.460	623
835.554	-879
835.648	192
835.742	-1191
835.836	758
835.930	-668
836.024	763
836.117	1650
836.211	-450
836.305	344
836.399	794
836.493	-971
836.586	556
836.680	-465
836.774	-822
836.867	194
836.961	-461
837.055	-1141
837.148	352
837.242	372
837.335	-453
837.429	-609
837.522	-353
837.616	457
837.709	1551
837.803	-651
837.896	-148
837.989	-603
838.083	65
838.176	639
838.269	-27
838.363	8
838.456	-197
838.549	1108
838.642	247
838.735	1160
838.829	884
838.922	-321
839.015	-81
839.108	-986
839.201	51
839.294	60
839.387	707
839.480	36
839.573	196
839.666	-115
839.759	-725
839.852	-727
839.945	-8
840.038	-643
840.131	101
840.223	-534
840.316	415
840.409	-360
840.502	-729
840.594	-346
840.687	-1274
840.780	-334
840.873	-673
840.965	-29
841.058	32
841.150	1289
841.243	-569
841.336	-154
841.428	326
841.521	-1072
841.613	-725
841.706	-87
841.798	234
841.890	-232
841.983	-762
842.075	635
842.167	-319
842.260	-417
842.352	741
842.444	224
842.537	1442
842.629	1198
842.721	-35
842.813	314
842.905	-426
842.997	-308
843.090	-573
843.182	43
843.274	1
843.366	2971
843.458	5118
843.550	2804
843.642	-40
843.734	4
843.826	265
843.918	158
844.009	-32
844.101	-772
844.193	-332
844.285	-1008
844.377	289
844.469	522
844.560	1028
844.652	622
844.744	126
844.835	319
844.927	335
845.019	170
845.110	764
845.202	-72
845.293	392
845.385	-1287
845.476	-220
845.568	480
845.659	-444
845.751	121
845.842	128
845.934	-571
846.025	211
846.116	-502
846.208	645
846.299	-435
846.390	-164
846.482	317
846.573	-235
846.664	-108
846.755	-145
846.846	-144
846.937	-1070
847.029	-837
847.120	-1004
847.211	170
847.302	819
847.393	-1268
847.484	1153
847.575	-723
847.666	50
847.757	-244
847.847	-385
847.938	1062
848.029	-495
848.120	-953
848.211	725
848.302	-1511
848.392	-677
848.483	-109
848.574	-977
848.664	-591
848.755	-123
848.846	360
848.936	-35
849.027	-649
849.118	-933
849.208	-1303
849.299	-55
849.389	-123
849.480	420
849.570	723
849.661	2499
849.751	2994
849.841	809
849.932	-143
850.022	494
850.112	-15
850.203	-314
850.293	-1273
850.383	-99
850.474	-1675
850.564	-739
850.654	-401
850.744	-227
850.834	-728
850.924	753
851.014	-103
851.104	168
851.194	-411
851.284	679
851.374	111
851.464	152
851.554	821
851.644	523
851.734	667
851.824	1039
851.914	509
852.004	3021
852.094	2117
852.183	794
852.273	-938
852.363	-503
852.452	154
852.542	119
852.632	-915
852.721	-197
852.811	-904
852.901	291
852.990	-83
853.080	-511
853.169	63
853.259	-227
853.348	114
853.438	-212
853.527	501
853.617	-259
853.706	860
853.795	1611
853.885	4351
853.974	9339
854.063	18185
854.152	23982
854.242	5630
854.331	1545
854.420	-437
854.509	-76
854.598	-231
854.687	-210
854.777	64
854.866	-513
854.955	7
855.044	-596
855.133	-723
855.222	329
855.311	-122
855.400	600
855.488	1103
855.577	3438
855.666	6587
855.755	13369
855.844	24725
855.933	35674
856.021	9341
856.110	1272
856.199	290
856.288	-545
856.376	4
856.465	-135
856.554	25
856.642	-22
856.731	23
856.819	515
856.908	-40
856.996	729
857.085	-171
857.173	715
857.262	-1375
857.350	110
857.438	379
857.527	627
857.615	-720
857.703	-93
857.792	-520
857.880	-714
857.968	-673
858.056	-108
858.145	617
858.233	-293
858.321	-1217
858.409	534
858.497	-1299
858.585	-175
858.673	-425
858.761	-1665
858.849	-659
858.937	-75
859.025	-551
859.113	202
859.201	-1199
859.289	924
859.377	-165
859.465	229
859.552	-189
859.640	861
859.728	46
859.816	93
859.903	-69
859.991	257
860.079	-140
860.166	-413
860.254	-350
860.342	320
860.429	-911
860.517	-543
860.604	58
860.692	-469
860.779	-581
860.867	777
860.954	353
861.042	-136
861.129	-977
861.216	-554
861.304	-966
861.391	901
861.478	-492
861.565	203
861.653	972
861.740	15
861.827	25
861.914	182
862.001	16
862.089	969
862.176	-224
862.263	-193
862.350	-543
862.437	-326
862.524	-81
862.611	-443
862.698	615
862.785	364
862.871	507
862.958	224
863.045	55
863.132	240
863.219	-809
863.306	285
863.392	553
863.479	88
863.566	-38
863.652	1170
863.739	-315
863.826	605
863.912	-500
863.999	-91
864.086	261
864.172	314
864.259	273
864.345	563
864.432	-127
864.518	-281
864.604	60
864.691	-86
864.777	437
864.863	864
864.950	560
865.036	-316
865.122	532
865.209	397
865.295	368
865.381	954
865.467	-34
865.553	138
865.639	362
865.726	1620
865.812	2013
865.898	4295
865.984	5919
866.070	11931
866.156	11101
866.242	2145
866.328	-52
866.414	-51
866.499	836
866.585	232
866.671	151
866.757	645
866.843	-219
866.928	-102
867.014	-203
867.100	340
867.186	-395
867.271	639
867.357	532
867.442	843
867.528	-43
867.614	-307
867.699	276
867.785	1158
867.870	1160
867.956	1605
868.041	-371
868.127	1099
868.212	332
868.297	619
868.383	216
868.468	833
868.553	167
868.639	1532
868.724	1562
868.809	1410
868.894	-403
868.979	340
869.065	186
869.150	-721
869.235	-241
869.320	-175
869.405	-449
869.490	-230
869.575	-582
869.660	-364
869.745	32
869.830	-362
869.915	-754
870.000	-96
870.085	40
870.169	-115
870.254	-134
870.339	-872
870.424	-703
870.509	585
870.593	-430
870.678	-548
870.763	-210
870.847	55
870.932	-469
871.016	169
871.101	-1190
871.186	-170
871.270	-819
871.355	-126
871.439	-174
871.523	496
871.608	-85
871.692	873
871.777	-359
871.861	155
871.945	-749
872.030	-326
872.114	-613
872.198	-895
872.282	-317
872.367	-904
872.451	-777
872.535	-424
872.619	-826
872.703	232
872.787	-470
872.871	-94
872.955	-1574
873.039	-824
873.123	-1099
873.207	277
873.291	-863
873.375	-1034
873.459	-614
873.543	146
873.627	-932
873.711	-667
873.794	-1117
873.878	-268
873.962	-1055
874.045	-85
874.129	-510
874.137	-476
874.213	-134
874.245	-329
874.296	-642
874.352	-849
874.380	-956
874.460	-619
874.464	-605
874.547	-115
874.568	-277
874.631	-808
874.676	-633
874.714	-480
874.784	-460
874.798	-452
874.881	1578
874.892	1294
874.965	-654
874.999	-728
875.048	-850
875.107	-1101
875.131	-1203
875.215	158
875.215	157
875.298	-1171
875.323	-1074
875.381	-876
875.430	-480
875.465	-167
875.538	-106
875.548	-111
875.631	-1262
875.646	-1127
875.714	-418
875.753	-543
875.798	-629
875.861	-383
875.881	-353
875.964	-642
875.968	-641
876.047	-546
876.076	-545
876.130	-547
876.183	-428
876.213	-351
876.291	-31
876.296	-14
876.379	-834
876.398	-789
876.462	-552
876.506	-464
876.545	-376
876.613	-201
876.628	-182
876.711	548
876.721	424
876.794	-407
876.828	-441
876.877	-609
876.935	-544
876.960	-481
877.043	-306
877.043	-307
877.125	-427
877.150	-297
877.208	-19
877.258	-298
877.291	-452
877.365	126
877.374	190
877.456	-649
877.472	-596
877.539	-369
877.579	-204
877.622	-58
877.687	-17
877.704	-27
877.787	-37
877.794	-64
877.869	-55
877.901	6
877.952	-78
878.008	-73
878.034	-37
878.115	-384
878.117	-388
878.199	-400
878.222	-261
878.282	-37
878.329	-78
878.364	-8
878.437	59
878.447	50
878.529	-182
878.544	-123
878.611	170
878.651	353
878.694	577
878.758	-53
878.776	-219
878.858	346
878.865	337
878.941	119
878.972	106
879.023	109
879.078	165
879.105	243
879.185	376
879.187	378
879.269	-79
879.292	-65
879.351	-29
879.399	-542
879.433	-739
879.506	552
879.516	648
879.598	-694
879.613	-607
879.680	92
879.720	259
879.762	415
879.827	586
879.844	627
879.926	633
879.933	600
880.007	355
880.040	286
880.089	261
880.147	1008
880.171	1266
880.253	1195
880.254	1195
880.335	1761
880.360	2077
880.417	3288
880.467	4530
880.499	5443
880.574	5960
880.580	5791
880.662	2692
880.680	2199
880.744	1042
880.787	449
880.825	293
880.893	-318
880.907	-405
880.989	241
881.000	228
881.070	367
881.106	639
881.152	750
881.213	426
881.233	320
881.315	684
881.319	671
881.396	880
881.426	723
881.478	196
881.532	264
881.559	374
881.639	600
881.641	607
881.722	184
881.745	329
881.803	634
881.852	295
881.885	150
881.958	316
881.966	348
882.047	958
882.064	901
882.129	605
882.171	442
882.210	421
882.277	880
882.291	903
882.372	851
882.383	828
882.454	884
882.489	752
882.535	406
882.596	220
882.616	386
882.697	549
882.702	624
882.778	1229
882.808	982
882.859	464
882.914	470
882.940	514
883.020	88
883.021	94
883.102	721
883.127	750
883.183	310
883.233	68
883.264	55
883.339	440
883.345	471
883.426	358
883.445	374
883.507	641
883.551	669
883.587	567
883.657	567
883.668	643
883.749	1254
883.763	1277
883.830	572
883.869	399
883.910	736
883.975	974
883.991	825
884.072	351
884.081	248
884.152	399
884.187	541
884.233	706
884.292	1118
884.314	1150
884.394	958
884.398	925
884.475	163
884.504	79
884.555	330
884.610	667
884.636	866
884.716	903
884.716	906
884.797	423
884.821	429
884.877	872
884.927	910
884.958	802
885.033	626
885.038	622
885.118	470
885.139	452
885.199	836
885.244	976
885.279	954
885.350	1207
885.359	1190
885.439	419
885.456	344
885.520	394
885.561	498
885.600	706
885.667	1091
885.680	1155
885.760	1103
885.773	1170
885.840	1884
885.878	2028
885.920	2067
885.984	2325
886.000	2215
886.080	1123
886.089	1042
886.160	656
886.195	422
886.240	557
886.300	854
886.320	859
886.400	617
886.406	599
886.480	861
886.511	1041
886.560	1270
886.616	1374
886.640	1461
886.720	1615
886.722	1612
886.800	1043
886.827	866
886.879	1071
886.932	1084
886.959	1103
887.038	1255
887.039	1260
887.119	1060
887.143	957
887.198	1155
887.248	1327
887.278	1294
887.354	1182
887.358	1179
887.437	942
887.459	871
887.517	1366
887.564	1842
887.596	1786
887.669	1363
887.676	1349
887.755	1358
887.774	1273
887.835	1413
887.880	1709
887.914	1693
887.985	1417
887.994	1396
888.073	1258
888.090	1204
888.153	1265
888.195	1319
888.232	1182
888.300	834
888.311	950
888.391	1802
888.405	1944
888.470	1336
888.510	940
888.549	1073
888.615	1259
888.628	1231
888.708	1121
888.720	1080
888.787	1431
888.825	1640
888.866	1667
888.930	1627
888.945	1619
889.024	1617
889.035	1607
889.103	1392
889.140	1255
889.182	1531
889.245	1923
889.261	1877
889.340	1635
889.349	1601
889.419	1557
889.454	1514
889.498	1671
889.559	1885
889.577	1884
889.656	1850
889.664	1841
889.735	1195
889.768	881
889.814	1195
889.873	1605
889.978	1555
890.083	1580
890.187	1740
890.292	1391
890.397	1972
890.501	1339
890.606	1220
890.710	1258
890.815	1374
890.919	1740
891.024	936
891.128	2588
891.233	1964
891.337	2928
891.442	4157
891.546	2420
891.650	980
891.755	2280
891.859	3669
891.963	1733
892.068	1515
892.172	1197
892.276	1108
892.380	1140
892.484	1207
892.589	1585
892.693	1042
892.797	1294
892.901	1297
893.005	1175
893.109	1325
893.213	1339
893.317	814
893.421	1567
893.525	1282
893.629	1385
893.733	1605
893.837	1915
893.941	1280
894.045	2286
894.148	3487
894.252	7498
894.356	3929
894.460	1867
894.564	795
894.667	1406
894.771	1702
894.875	1156
894.978	988
895.082	1608
895.186	1956
895.289	1982
895.393	2955
895.496	1437
895.600	819
895.703	1379
895.807	1035
895.910	824
896.014	808
896.117	1468
896.221	1017
896.324	1212
896.427	1218
896.531	781
896.634	753
896.737	1681
896.840	785
896.944	1274
897.047	655
897.150	1176
897.253	1502
897.356	1687
897.460	692
897.563	467
897.666	395
897.769	528
897.872	1479
897.975	2113
898.078	1054
898.181	1482
898.284	95
898.387	1464
898.490	1027
898.593	957
898.695	858
898.798	1509
898.901	1143
899.004	1700
899.107	1642
899.209	1308
899.312	1654
899.415	1058
899.518	792
899.620	1231
899.723	1312
899.826	1534
899.928	1542
900.031	1423
900.133	388
900.236	803
900.338	1166
900.441	1586
900.543	654
900.646	1589
900.748	1237
900.851	1389
900.953	976
901.055	1487
901.158	1006
901.260	1129
901.362	1511
901.465	1472
901.567	1602
901.669	1941
901.771	1994
901.873	1444
901.976	682
902.078	1583
902.180	785
902.282	792
902.384	1012
902.486	1332
902.588	1417
902.690	1125
902.792	851
902.894	1494
902.996	1445
903.098	1418
903.200	871
903.302	1509
903.404	1177
903.505	540
903.607	984
903.709	1601
903.811	1603
903.913	1403
904.014	1058
904.116	911
904.218	1023
904.319	1362
904.421	1771
904.523	2215
904.624	1055
904.726	1448
904.827	1907
904.929	2136
905.030	1663
905.132	1478
905.233	1222
905.335	1990
905.436	1137
905.537	1301
905.639	1429
905.740	1358
905.841	1385
905.943	2015
906.044	1479
906.145	1532
906.247	1607
906.348	1721
906.449	1744
906.550	781
906.651	1718
906.752	1057
906.854	771
906.955	1058
907.056	1286
907.157	1094
907.258	1249
907.359	948
907.460	454
907.561	1332
907.662	1591
907.762	1464
907.863	1215
907.964	2130
908.065	1292
908.166	1597
908.267	583
908.367	808
908.468	1036
908.569	2189
908.670	1124
908.770	1261
908.871	915
908.971	1898
909.072	960
909.173	1151
909.273	865
909.374	572
909.474	1219
909.575	1453
909.675	1514
909.776	2232
909.876	1575
909.977	789
910.077	1477
910.177	922
910.278	1216
910.378	1685
910.478	1507
910.579	1683
910.679	1277
910.779	1605
910.879	1162
910.980	1468
911.080	1114
911.180	1141
911.280	1251
911.380	947
911.480	1643
911.580	1783
911.680	204
911.780	1331
911.880	1566
911.980	1138
912.080	1490
912.180	1684
912.280	1879
912.380	1388
912.480	963
912.580	1133
912.679	651
912.779	1952
912.879	722
912.979	885
913.078	1003
913.178	1114
913.278	1867
913.377	1178
913.477	1979
913.577	1124
913.676	1942
913.776	1859
913.875	639
913.975	961
914.074	1317
914.174	659
914.273	491
914.373	2167
914.472	1449
914.572	205
914.671	1291
914.770	639
914.870	1001
914.969	1706
915.068	1031
915.167	1113
915.267	1041
915.366	1339
915.465	646
915.564	1324
915.663	1981
915.763	1138
915.862	1786
915.961	1571
916.060	363
916.159	1468
916.258	812
916.357	1407
916.456	2342
916.555	771
916.654	732
916.752	1877
916.851	1256
916.950	1395
917.049	1304
917.148	1794
917.247	1336
917.345	739
917.444	841
917.543	1139
917.642	351
917.740	1246
917.839	818
917.937	1715
918.036	1414
918.135	705
918.233	493
918.332	1247
918.430	567
918.529	1313
918.627	398
918.726	834
918.824	1181
918.923	1670
919.021	1755
919.119	1102
919.218	827
919.316	915
919.414	573
919.512	384
919.611	303
919.709	964
919.807	740
919.905	206
920.003	1545
920.102	1457
920.200	1180
920.298	1330
920.396	582
920.494	1550
920.592	728
920.690	1187
920.788	415
920.886	170
920.984	964
921.082	287
921.180	1241
921.277	1296
921.375	1335
921.473	685
921.571	715
921.669	1066
921.766	1618
921.864	2072
921.962	3852
922.060	1492
922.157	533
922.255	748
922.352	1316
922.450	1480
922.548	435
922.645	1177
922.743	418
922.840	1172
922.938	1381
923.035	2181
923.133	621
923.230	1357
923.327	955
923.425	2357
923.522	1656
923.619	1611
923.717	1593
923.814	1470
923.911	1003
924.008	1732
924.106	1574
924.203	933
924.300	723
924.397	1029
924.494	1606
924.591	1918
924.688	1327
924.786	1852
924.883	622
924.979	1290
925.077	1442
925.173	1566
925.270	1847
925.367	1255
925.464	1020
925.561	433
925.658	1485
925.755	1619
925.852	1356
925.948	1231
926.045	1800
926.142	1934
926.239	1038
926.335	2165
926.432	1625
926.529	1402
926.625	1117
926.722	1738
926.818	1878
926.915	1077
927.011	986
927.108	1350
927.204	912
927.301	661
927.397	483
927.494	996
927.590	128
927.687	1237
927.783	656
927.879	682
927.976	721
928.072	1549
928.168	-103
928.264	1557
928.361	475
928.457	774
928.553	1173
928.649	1857
928.745	924
928.841	752
928.937	620
929.033	951
929.129	1370
929.225	587
929.321	631
929.417	818
929.513	673
929.609	263
929.705	721
929.801	1819
929.897	1222
929.993	265
930.089	730
930.184	996
930.280	1271
930.376	649
930.471	494
930.567	1422
930.663	1014
930.758	565
930.854	1858
930.950	688
931.045	943
931.141	2094
931.236	1304
931.332	1708
931.427	982
931.523	1167
931.618	1346
931.714	527
931.809	997
931.905	1343
932.000	741
932.095	913
932.191	251
932.286	1321
932.381	572
932.476	1494
932.572	598
932.667	854
932.762	289
932.857	696
932.952	876
933.047	69
933.142	-642
933.237	325
933.332	674
933.427	1626
933.522	956
933.617	420
933.712	1104
933.807	1184
933.902	1016
933.997	616
934.092	-86
934.187	751
934.282	1044
934.376	207
934.471	521
934.566	-376
934.661	947
934.755	585
934.850	145
934.945	1571
935.039	360
935.134	717
935.228	798
935.323	998
935.417	897
935.512	275
935.606	-195
935.701	847
935.795	94
935.890	1019
935.984	174
936.079	715
936.173	1182
936.267	808
936.362	670
936.456	850
936.550	1552
936.644	2229
936.738	2196
936.833	6103
936.927	13193
937.021	22141
937.115	3615
937.209	-149
937.303	1471
937.397	835
937.491	300
937.585	1002
937.679	243
937.773	11
937.867	167
937.961	339
938.055	475
938.149	1678
938.243	1047
938.337	575
938.430	423
938.524	1925
938.618	1048
938.712	1432
938.805	346
938.899	290
938.993	754
939.086	1626
939.180	1906
939.274	1803
939.367	582
939.461	977
939.554	-291
939.648	514
939.741	774
939.835	934
939.928	1031
940.022	449
940.115	1044
940.208	892
940.302	356
940.395	797
940.488	97
940.582	1537
940.675	271
940.768	1384
940.861	777
940.954	917
941.048	286
941.141	665
941.234	452
941.327	752
941.420	928
941.513	1162
941.606	416
941.699	625
941.792	69
941.885	1088
941.978	589
942.071	442
942.164	1168
942.257	906
942.349	253
942.442	262
942.535	-431
942.628	1318
942.721	698
942.813	-584
942.906	770
942.999	157
943.091	-192
943.184	983
943.277	321
943.369	405
943.462	-87
943.554	1473
943.647	466
943.739	844
943.832	349
943.924	-107
944.017	408
944.109	-420
944.201	612
944.294	168
944.386	-291
944.478	601
944.571	-277
944.663	574
944.755	192
944.847	584
944.940	484
945.032	448
945.124	-600
945.216	1288
945.308	262
945.400	982
945.492	1704
945.584	3871
945.676	1379
945.768	550
945.860	186
945.952	554
946.044	1082
946.136	-252
946.228	453
946.320	-301
946.412	-187
946.503	176
946.595	1259
946.687	-110
946.779	-573
946.870	-18
946.962	-60
947.054	527
947.145	-122
947.237	-277
947.329	-2
947.420	41
947.512	-474
947.603	-198
947.695	-665
947.786	-109
947.878	-57
947.969	520
948.061	-764
948.152	143
948.243	57
948.335	-498
948.426	-465
948.517	30
948.609	934
948.700	856
948.791	-47
948.882	-990
948.973	-420
949.065	-679
949.156	242
949.247	-1080
949.338	-159
949.429	-886
949.520	657
949.611	-1441
949.702	244
949.793	714
949.884	265
949.975	-36
950.066	-475
950.157	-195
950.247	243
950.338	-45
950.429	-488
950.520	342
950.611	-316
950.701	116
950.792	-899
950.883	615
950.973	-140
951.064	-537
951.155	-522
951.245	-43
951.336	-574
951.427	-603
951.517	583
951.608	435
951.698	-238
951.788	-238
951.879	-232
951.969	-513
952.060	-837
952.150	277
952.240	-345
952.331	-1463
952.421	831
952.511	22
952.602	-197
952.692	299
952.782	-49
952.872	-412
952.962	32
953.052	171
953.143	-107
953.233	-118
953.323	-79
953.413	-766
953.503	-126
953.593	484
953.683	107
953.773	-894
953.863	237
953.953	150
954.042	-517
954.132	-532
954.222	138
954.312	-549
954.402	438
954.492	672
954.581	-442
954.671	-39
954.761	-1073
954.850	24
954.940	-971
955.030	-503
955.119	-265
955.209	-405
955.298	-456
955.388	-72
955.477	194
955.567	-82
955.656	-523
955.746	297
955.835	-853
955.925	70
956.014	-949
956.103	-896
956.193	-704
956.282	313
956.371	-318
956.461	-311
956.550	447
956.639	-570
956.728	-435
956.817	21
956.906	-24
956.995	451
957.085	-631
957.174	439
957.263	-173
957.352	-374
957.441	201
957.530	-387
957.619	-243
957.708	-300
957.796	-263
957.885	198
957.974	38
958.063	62
958.152	-834
958.241	-159
958.329	-138
958.418	154
958.507	176
958.596	1431
958.684	-572
958.773	1131
958.861	922
958.950	1955
959.039	-238
959.127	236
959.216	122
959.304	-26
959.393	146
959.481	713
959.570	303
959.658	786
959.746	264
959.835	892
959.923	214
960.011	-182
960.100	602
960.188	-92
960.276	-62
960.365	-117
960.453	359
960.541	112
960.629	514
960.717	1180
960.805	2607
960.893	5184
960.981	615
961.069	653
961.158	-441
961.245	141
961.333	-118
961.421	-838
961.509	-415
961.597	577
961.685	-229
961.773	-602
961.861	-1252
961.949	1149
962.036	-1574
962.124	269
962.212	-1526
962.299	-1042
962.387	-821
962.475	-341
962.562	-1647
962.650	92
962.738	-859
962.825	-671
962.913	-1135
963.000	-457
963.088	-443
963.175	-771
963.263	-529
963.350	-1138
963.438	-742
963.525	-580
963.612	673
963.700	538
963.787	4205
963.874	169
963.962	-652
964.049	-138
964.136	-1233
964.223	-847
964.310	-690
964.398	-388
964.485	-769
964.572	16
964.659	480
964.746	135
964.833	-773
964.920	-1111
965.007	-40
965.094	-843
965.181	-588
965.268	-538
965.355	-1067
965.441	-804
965.528	-1141
965.615	-515
965.702	-743
965.789	-1309
965.875	-460
965.962	-362
966.049	-1514
966.136	-292
966.222	-854
966.309	-638
966.395	-1448
966.482	-1029
966.569	-1242
966.655	-275
966.742	-939
966.828	294
966.915	-1497
967.001	-1007
967.087	-1491
967.174	447
967.260	-1248
967.347	-165
967.433	-203
967.519	2111
967.605	-773
967.692	-1275
967.778	-765
967.864	-822
967.950	-1219
968.036	-1051
968.123	-1164
968.209	-1185
968.295	-1522
968.381	788
968.467	-906
968.553	-1766
968.639	-144
968.725	-1275
968.811	-920
968.897	185
968.983	-939
969.069	-1427
969.154	-797
969.240	-383
969.326	-1858
969.412	-316
969.497	-1624
969.583	-1345
969.669	332
969.755	-88
969.840	-1244
969.926	-1001
970.012	-1572
970.097	-687
970.183	-763
970.268	-693
970.354	-681
970.439	-1509
970.525	1712
970.610	-1634
970.696	42
970.781	-336
970.866	-1598
970.952	-552
971.037	-1586
971.122	-743
971.208	-949
971.293	-330
971.378	-1101
971.463	-1206
971.549	-730
971.634	-813
971.719	-543
971.804	-1126
971.889	116
971.974	-1602
972.059	-468
972.144	-580
972.229	-752
972.314	-711
972.399	-1051
972.484	-480
972.569	-1077
972.654	-1279
972.739	1312
972.824	-105
972.908	-832
972.993	-956
973.078	-1101
973.163	-415
973.247	-860
973.332	-2254
973.417	46
973.501	-1873
973.586	-1433
973.671	-685
973.755	-427
973.840	-476
973.924	-418
974.009	-1061
974.093	-1950
974.178	-124
974.262	189
974.346	-177
974.431	-1052
974.515	-1043
974.600	-1110
974.684	-843
974.768	-1723
974.852	-99
974.937	-1848
975.021	-78
975.105	-1894
975.189	-1022
975.273	-1009
975.358	-1728
975.442	-2171
975.526	-548
975.610	-1554
975.694	-1640
975.778	27
975.862	-1385
975.946	-3464
976.030	673
976.114	-1144
976.198	-638
976.281	-1736
976.365	31
976.449	-1623
976.533	-1162
976.617	-1502
976.700	-608
976.784	-1825
976.868	-600
976.951	-639
977.035	-807
977.119	-543
977.202	-799
977.286	-643
977.369	-698
977.453	378
977.536	-750
977.620	-1379
977.703	64
977.787	-1504
977.870	157
977.953	-169
978.037	-2027
978.120	-429
978.203	-686
978.287	-967
978.370	-365
978.453	-1161
978.536	-362
978.620	-409
978.703	75
978.786	-1745
978.869	-1537
978.952	-1973
979.035	673
979.118	-512
979.201	-606
979.284	-877
979.367	-1718
979.450	-739
979.533	-2185
979.616	-1240
979.699	-675
979.782	-491
979.865	-1122
979.948	-1640
980.030	-1734
980.113	-174
980.196	-1607
980.279	-1137
980.361	-1318
980.444	-452
980.526	-1245
980.609	-795
980.692	-1073
980.774	-868
980.857	-1941
980.939	-785
981.022	-830
981.104	-936
981.187	-1501
981.269	-461
981.352	-1329
981.434	-2316
981.516	-1629
981.599	520
981.681	-115
981.763	-463
981.846	-526
981.928	-1608
982.010	-2112
982.092	-2235
982.174	361
982.256	-1101
982.339	-277
982.421	-529
982.503	-188
982.585	-2433
982.667	-573
982.749	-788
982.831	-775
982.913	-1217
982.995	1197
983.077	-1099
983.158	508
983.240	-2953
983.322	-643
983.404	-473
983.486	-1568
983.568	-864
983.649	-1519
983.731	-1193
983.813	-1112
983.894	-993
983.976	-1374
984.058	-1385
984.139	365
984.221	-1742
984.302	-324
984.384	-1348
984.465	-1157
984.547	-152
984.628	-1457
984.710	-1128
984.791	-1202
984.872	-1718
984.954	-1586
985.035	-910
985.116	-1763
985.198	-1659
985.279	-400
985.360	-1259
985.441	-1805
985.522	-1523
985.604	-1191
985.685	-2370
985.766	-12
985.847	-415
985.928	-2135
986.009	-1284
986.090	-1622
986.171	-607
986.252	-1868
986.333	-748
986.414	-792
986.495	-1555
986.576	-1395
986.656	-1911
986.737	-1015
986.818	-1208
986.899	-1664
986.980	-1263
987.060	-253
987.141	-1670
987.222	-491
987.302	-935
987.383	-1057
987.464	-2205
987.544	-868
987.625	-2138
987.705	-698
987.786	-544
987.866	-936
987.947	-1368
988.027	-653
988.108	-2246
988.188	-404
988.268	-1121
988.349	-1782
988.429	-1935
988.509	-735
988.589	-1757
988.670	-2122
988.750	178
988.830	-2060
988.910	-1766
988.990	-1269
989.070	-1428
989.151	-714
989.231	-1336
989.311	-828
989.391	-1091
989.471	-1006
989.551	-1552
989.631	-1421
989.711	-52
989.791	-1822
989.870	-1954
989.950	-463
990.030	-2322
990.110	-949
990.190	-2101
990.269	-827
990.349	-1565
990.429	-598
990.509	-1141
990.588	-2102
990.668	-770
990.747	-1560
990.827	-1668
990.907	-753
990.986	-1537
991.066	-799
991.145	-555
991.225	-1133
991.304	-914
991.383	-1423
991.463	-1592
991.542	-1437
991.622	-1457
991.701	-1578
991.780	-1148
991.859	-950
991.939	-1632
992.018	-1344
992.097	-694
992.176	-1160
992.256	-744
992.335	-1210
992.414	-662
992.493	-1562
992.572	-1302
992.651	-148
992.730	-1781
992.809	-936
992.888	-1852
992.967	-1303
993.046	-1713
993.125	-1747
993.203	-1665
993.282	-1264
993.361	-512
993.440	-925
993.519	-2515
993.597	-1290
993.676	-1680
993.755	-1145
993.834	-1482
993.912	-2311
993.991	-428
994.069	-1713
994.148	-1378
994.226	-997
994.305	-1406
994.384	-1815
994.462	-509
994.540	-1715
994.619	-1940
994.697	-363
994.776	-2003
994.854	-572
994.932	-1646
995.011	-776
995.089	-2023
995.167	-1319
995.245	-1379
995.324	-1943
995.402	-1163
995.480	-2159
995.558	-754
995.636	-1446
995.714	-2051
995.792	-394
995.870	-1815
995.948	-854
996.026	-1739
996.104	-2096
996.182	-1480
996.260	-1976
996.338	-1015
996.416	-1617
996.494	-1476
996.572	-333
996.649	-1617
996.727	-1772
996.805	-1583
996.883	-1926
996.960	-2293
997.038	-1029
997.116	-1286
997.193	-1807
997.271	-1527
997.348	-1816
997.426	-1472
997.504	-1797
997.581	-1429
997.658	-1002
997.736	-2629
997.813	-1548
997.891	-210
997.968	-1992
998.046	-1567
998.123	-1650
998.200	-1098
998.277	-2187
998.355	-1744
998.432	-2077
998.509	-1322
998.586	-778
998.663	-1371
998.741	-1731
998.818	-1856
998.895	-2217
998.972	-752
999.049	-1307
999.126	-1927
999.203	-1047
999.280	-1193
999.357	-1999
999.434	-1376
999.511	-1848
999.587	-566
999.664	-2008
999.741	-1071
999.818	-1011
999.895	-1532
999.971	-1169
1000.048	-1188
1000.125	-414
1000.202	-2261
1000.278	-1377
1000.355	-1756
1000.431	-1498
1000.508	-2156
1000.584	-1315
1000.661	-1705
1000.738	-1816
1000.814	-1820
1000.890	-1176
1000.967	-1974
1001.043	-843
1001.120	-2709
1001.196	-1724
1001.272	-2773
1001.349	-887
1001.425	-1397
1001.501	-2232
1001.577	-2114
1001.654	-1331
1001.730	-1859
1001.806	-1531
1001.882	-1914
1001.958	-1062
1002.034	-1548
1002.110	-1630
1002.186	-2923
1002.262	-1682
1002.338	-2579
1002.414	-2085
1002.490	-1831
1002.566	-2700
1002.642	-2150
1002.718	-1140
1002.794	-1687
1002.870	-1607
1002.945	-1978
1003.021	-403
1003.097	-673
1003.173	-1002
1003.248	-2321
1003.324	-2389
1003.400	-1563
1003.475	-1500
1003.551	-1293
1003.626	-1140
1003.702	-2015
1003.777	-1087
1003.853	-2441
1003.928	-1615
1004.004	-1449
1004.079	-989
1004.155	-2455
1004.230	-2436
1004.305	-825
1004.381	-1880
1004.456	-1965
1004.531	-994
1004.607	-1828
1004.682	-1381
1004.757	-2038
1004.832	-2715
1004.907	-1688
1004.982	-985
1005.057	-1791
1005.133	-2340
1005.208	-1878
1005.283	-2860
1005.358	-1411
1005.433	-1917
1005.508	-1747
1005.583	-2521
1005.657	-2140
1005.732	-845
1005.807	-2292
1005.882	-1278
1005.957	-1582
1006.032	-914
1006.106	-2167
1006.181	-1474
1006.256	-1570
1006.331	-2587
1006.405	-2244
1006.480	-1764
1006.554	-2167
1006.629	-1298
1006.704	-1812
1006.778	-1105
1006.853	-1957
1006.927	-1748
1007.002	-2697
1007.076	-1330
1007.150	-1377
1007.225	-2221
1007.299	-1269
1007.373	-2199
1007.448	-1575
1007.522	-1413
1007.596	-1261
1007.671	-1135
1007.745	-1759
1007.819	-1865
1007.893	-1648
1007.967	-1451
1008.041	-2556
1008.115	-1569
1008.190	-1688
1008.264	-2333
1008.338	-2206
1008.412	-1997
1008.486	-935
1008.560	-1991
1008.633	-2066
1008.707	-1610
1008.781	-1743
1008.855	-1433
1008.929	-1923
1009.003	-1817
1009.076	-1884
1009.150	-2199
1009.224	-2070
1009.298	-1579
1009.371	-2460
1009.445	-1491
1009.519	-2177
1009.592	-1861
1009.666	-1473
1009.739	-1430
1009.813	-2039
1009.886	-142
1009.960	-2933
1010.033	-1720
1010.107	-1750
1010.180	-2496
1010.253	-725
1010.327	-2174
1010.400	-1802
1010.473	-1480
1010.547	-381
1010.620	-1819
1010.693	-1967
1010.766	-1813
1010.840	-1449
1010.913	-836
1010.986	-1631
1011.059	-1646
1011.132	-2566
1011.205	-1870
1011.278	-2116
1011.351	-1698
1011.424	-2038
1011.497	-2120
1011.570	-1921
1011.643	-2010
1011.716	-2566
1011.789	-2462
1011.862	-1433
1011.934	-1559
1012.007	-2744
1012.080	-808
1012.153	-1297
1012.225	-1062
1012.298	-2709
1012.371	-1721
1012.443	-1714
1012.516	-3158
1012.588	-2138
1012.661	-1330
1012.733	-2576
1012.806	-1136
1012.879	-1662
1012.951	-1291
1013.023	-2566
1013.096	-1345
1013.168	-2395
1013.241	-669
1013.313	-2070
1013.385	-2264
1013.458	-2819
1013.530	-1238
1013.602	-2146
1013.674	-1654
1013.746	-2912
1013.819	-2733
1013.891	-1379
1013.963	-2419
1014.035	-1450
1014.107	-1498
1014.179	-1351
1014.251	-1871
1014.323	-2046
1014.395	-2049
1014.467	-2130
1014.539	-1550
1014.611	-2528
1014.683	-1272
1014.754	-1616
1014.826	-2364
1014.898	-1123
1014.970	-2586
1015.042	-2222
1015.113	-1671
1015.185	-1474
1015.257	-2402
1015.328	-2014
1015.400	-1664
1015.471	-2011
1015.543	-2202
1015.615	-1679
1015.686	-1268
1015.757	-2100
1015.829	-1784
1015.901	-2740
1015.972	-1549
1016.043	-2235
1016.115	-1789
1016.186	-1453
1016.257	-1795
1016.328	-2308
1016.400	-2027
1016.471	-2023
1016.542	-1209
1016.613	-1276
1016.685	-2223
1016.756	-2102
1016.827	-1865
1016.898	-2047
1016.969	-1165
1017.040	-2027
1017.111	-2259
1017.182	-2385
1017.253	-1402
1017.324	-2870
1017.395	-2316
1017.466	-1458
1017.537	-1852
1017.608	-2745
1017.678	-1668
1017.749	-1582
1017.820	-2263
1017.891	-2419
1017.961	-2013
1018.032	-2470
1018.103	-1376
1018.173	-2605
1018.244	-2755
1018.315	-1727
1018.385	-1624
1018.456	-2490
1018.526	-2440
1018.597	-1814
1018.667	-2067
1018.738	-1962
1018.808	-2056
1018.878	-2271
1018.949	-2078
1019.019	-2000
1019.089	-1589
1019.160	-1711
1019.230	-1959
1019.300	-1102
1019.371	-2509
1019.441	-1273
1019.511	-1668
1019.581	-1975
1019.651	-1950
1019.721	-1572
1019.791	-1810
1019.861	-1913
1019.931	-1926
1020.001	-2185
1020.071	-1826
1020.141	-1888
1020.211	-1978
1020.281	-2124
1020.351	-2551
1020.421	-2678
1020.491	-1189
1020.560	-2996
1020.630	-1831
1020.700	-1757
1020.770	-2136
1020.839	-1859
1020.909	-811
1020.979	-2352
1021.048	-2071
1021.118	-1346
1021.187	-2160
1021.257	-1728
1021.326	-1220
1021.396	-1683
1021.465	-1889
1021.535	-1795
1021.604	-2046
1021.674	-2358
1021.743	-1696
1021.812	-1464
1021.882	-1084
1021.951	-2218
1022.020	-1776
1022.089	-2261
1022.159	-2474
1022.228	-1516
1022.297	-2477
1022.366	-936
1022.435	-1539
1022.504	-2148
1022.573	-2269
1022.642	-1675
1022.711	-1639
1022.781	-2723
1022.849	-925
1022.918	-2685
1022.987	-1488
1023.056	-2373
1023.125	-2196
1023.194	-2261
1023.263	-1452
1023.331	-1030
1023.400	-2155
1023.469	-1388
1023.538	-1911
1023.606	-2217
1023.675	-2035
1023.744	-2194
1023.812	-2885
1023.881	-1862
1023.949	-1904
1024.018	-1765
1024.086	-2048
1024.155	-2580
1024.223	-1960
1024.292	-2250
1024.360	-1145
1024.429	-2442
1024.497	-2782
1024.565	-2194
1024.634	-2180
1024.702	-2247
1024.770	-1784
1024.838	-2612
1024.907	-1885
1024.975	-1900
1025.043	-2086
1025.111	-1986
1025.179	-1880
1025.247	-1575
1025.315	-2211
1025.383	-2549
1025.451	-1153
1025.519	-2114
1025.587	-1667
1025.655	-1536
1025.723	-2296
1025.791	-1270
1025.859	-1650
1025.927	-1942
1025.995	-1805
1026.062	-1787
1026.130	-1899
1026.198	-1569
1026.266	-1929
1026.333	-2188
1026.401	-1713
1026.469	-1826
1026.536	-2305
1026.604	-1569
1026.671	-2403
1026.739	-1235
1026.806	-2126
1026.874	-2507
1026.941	-1453
1027.009	-2049
1027.076	-1947
1027.144	-1495
1027.211	-2283
1027.278	-2017
1027.345	-1517
1027.413	-1898
1027.480	-1542
1027.547	-1951
1027.614	-1870
1027.682	-1992
1027.749	-2313
1027.816	-1529
1027.883	-2315
1027.950	-1545
1028.017	-2252
1028.084	-1724
1028.151	-2396
1028.218	-2042
1028.285	-1828
1028.352	-1974
1028.419	-2121
1028.486	-1277
1028.553	-1497
1028.619	-2408
1028.686	-2029
1028.753	-2844
1028.820	-2307
1028.886	-1361
1028.953	-1718
1029.020	-2270
1029.086	-1883
1029.153	-2470
1029.220	-1663
1029.286	-1255
1029.353	-1994
1029.419	-1836
1029.486	-2534
1029.552	-2523
1029.619	-1976
1029.685	-2802
1029.751	-2119
1029.818	-1688
1029.884	-2420
1029.951	-403
1030.017	-1532
1030.083	-2039
1030.149	-1937
1030.216	-1569
1030.282	-1958
1030.348	-1426
1030.414	-2033
1030.480	-2321
1030.546	-1215
1030.612	-1908
1030.678	-2010
1030.744	-1620
1030.810	-1041
1030.876	-2729
1030.942	-1416
1031.008	-2507
1031.074	-1895
1031.140	-1860
1031.206	-1211
1031.272	-2908
1031.337	-1349
1031.403	-1462
1031.469	-1025
1031.534	-1643
1031.600	-1805
1031.666	-2485
1031.731	-1884
1031.797	-2359
1031.863	-1869
1031.928	-1749
1031.994	-2250
1032.059	-1747
1032.125	-2576
1032.190	-2345
1032.256	-1690
1032.321	-2663
1032.386	-2109
1032.452	-1186
1032.517	-1623
1032.582	-1496
1032.647	-1331
1032.713	-1667
1032.778	-808
1032.843	-2221
1032.908	-1904
1032.974	-1882
1033.039	-2126
1033.104	-1670
1033.169	-1738
1033.234	-1816
1033.299	-1327
1033.364	-2213
1033.429	-1654
1033.494	-1604
1033.559	-2006
1033.624	-1989
1033.688	-1522
1033.753	-2395
1033.818	-1109
1033.883	-1504
1033.948	-1707
1034.013	-2021
1034.077	-1062
1034.142	-1776
1034.207	-2275
1034.271	-2058
1034.336	-1026
1034.400	-1638
1034.465	-1230
1034.530	-1566
1034.594	-1713
1034.658	-2026
1034.723	-1736
1034.787	-1367
1034.852	-1519
1034.916	-2275
1034.981	-1578
1035.045	-1279
1035.109	-1761
1035.173	-975
1035.238	-1401
1035.302	-1170
1035.366	-2615
1035.430	-1570
1035.495	-1381
1035.559	-2563
1035.623	-1857
1035.687	-3228
1035.751	-1077
1035.815	-755
1035.879	-1807
1035.943	-1926
1036.007	-2880
1036.071	-1432
1036.135	-1295
1036.198	-1934
1036.262	-1268
1036.326	-1647
1036.390	-1510
1036.454	-2598
1036.517	-1865
1036.581	-1635
1036.645	-387
1036.709	-943
1036.772	-2463
1036.836	-1749
1036.900	-1384
1036.963	-2268
1037.026	-1994
1037.090	-1219
1037.154	-1805
1037.217	-2068
1037.280	-1638
1037.344	-2011
1037.407	-2040
1037.471	-2093
1037.534	-2318
1037.597	-2390
1037.661	-2921
1037.724	-1722
1037.787	-1567
1037.850	-2632
1037.913	-1621
1037.977	-785
1038.040	-1906
1038.103	-2462
1038.166	-2021
1038.229	-1794
1038.292	-1796
1038.355	-1789
1038.418	-1492
1038.481	-1429
1038.544	-2098
1038.607	-1722
1038.670	-1698
1038.732	-2352
1038.795	-2009
1038.858	-2205
1038.921	-1930
1038.984	-1170
1039.046	-1397
1039.109	-2530
1039.172	-1382
1039.234	-1643
1039.297	-1556
1039.360	-1688
1039.422	-1833
1039.485	-2519
1039.547	-2361
1039.610	-1486
1039.672	-2143
1039.734	-2020
1039.797	-1373
1039.859	-1895
1039.922	-1158
1039.984	-1732
1040.046	-2022
1040.109	-1338
1040.171	-1886
1040.233	-1591
1040.295	-2165
1040.358	-1607
1040.420	-1715
1040.482	-1404
1040.544	-2233
1040.606	-2128
1040.668	-2035
1040.730	-1816
1040.792	-1787
1040.854	-2045
1040.916	-1466
1040.978	-2019
1041.040	-1097
1041.102	-1605
1041.164	-966
1041.225	-2116
1041.287	-1711
1041.349	-2637
1041.411	-2368
1041.472	-1766
1041.534	-1919
1041.596	-1911
1041.657	-1116
1041.719	-2139
1041.781	-1581
1041.842	-1755
1041.904	-2117
1041.965	-1739
1042.027	-1830
1042.088	-1329
1042.150	-2568
1042.211	-1802
1042.272	-1453
1042.334	-3034
1042.395	-1551
1042.456	-2103
1042.518	-1098
1042.579	-1983
1042.640	-1649
1042.701	-2547
1042.763	-1795
1042.824	-1971
1042.885	-2711
1042.946	-2749
1043.007	-2043
1043.068	-2148
1043.129	-1987
1043.190	-2263
1043.251	-1893
1043.312	-2034
1043.373	-834
1043.434	-2300
1043.495	-2150
1043.556	-1192
1043.616	-977
1043.677	-2308
1043.738	-1804
1043.799	-1572
1043.859	-2517
1043.920	-1852
1043.981	-1501
1044.041	-1913
1044.102	-2203
1044.162	-2016
1044.223	-2393
1044.284	-2238
1044.344	-1893
1044.405	-1897
1044.465	-2137
1044.525	-2160
1044.586	-2256
1044.646	-1881
1044.707	-1532
1044.767	-1747
1044.827	-2441
1044.887	-2348
1044.948	-1148
1045.008	-1494
1045.068	-1849
1045.128	-2163
1045.188	-2090
1045.249	-2086
1045.309	-1830
1045.369	-1642
1045.429	-1320
1045.489	-1639
1045.549	-2143
1045.609	-2285
1045.669	-1650
1045.729	-1660
1045.789	-1146
1045.848	-2135
1045.908	-1394
1045.968	-2020
1046.028	-1099
1046.088	-1761
1046.147	-1407
1046.207	-1360
1046.267	-1322
1046.326	-1685
1046.386	-1168
1046.446	-983
1046.505	-615
1046.565	-1285
1046.624	-1388
1046.684	-1060
1046.743	-541
1046.803	-521
1046.862	-274
1046.922	0
