'Start Wavelength	183.907
'End Wavelength	1046.922
'Gate Delay	5.000
'Gate Width (ms)	1.050
'Laser Output Level	0.000
'X Position	0.000
'Y Position	0.000
'Z Position	0.000
'Grid Point Number	1.000
'Shot Number	100.000
183.907	478.000
183.977	-1245.000
184.047	-27
184.116	399
184.186	329
184.256	-73
184.325	-655
184.395	-1018
184.465	759
184.534	-467
184.604	-327
184.674	-258
184.743	-715
184.813	168
184.883	-123
184.952	-509
185.022	-439
185.092	119
185.161	-912
185.231	224
185.301	-677
185.370	245
185.440	-740
185.509	-135
185.579	-90
185.649	88
185.718	-439
185.788	127
185.857	-709
185.927	-870
185.996	-575
186.066	-509
186.136	-276
186.205	-546
186.275	-301
186.344	-436
186.414	-598
186.483	-985
186.553	176
186.622	-29
186.692	-412
186.761	-144
186.831	-421
186.900	-708
186.970	231
187.039	-253
187.109	644
187.178	-549
187.248	313
187.317	4
187.387	-652
187.456	-282
187.526	-13
187.595	-133
187.664	-581
187.734	26
187.803	-221
187.873	-671
187.942	-323
188.012	55
188.081	-25
188.150	-754
188.220	-934
188.289	-363
188.358	287
188.428	751
188.497	-654
188.567	-85
188.636	-243
188.705	-513
188.775	463
188.844	-1381
188.913	824
188.983	-702
189.052	-202
189.121	-730
189.191	684
189.260	258
189.329	-43
189.399	-367
189.468	-528
189.537	-47
189.606	147
189.676	-110
189.745	198
189.814	837
189.883	-80
189.953	-144
190.022	444
190.091	-1239
190.161	-257
190.230	-254
190.299	-47
190.368	-519
190.437	-50
190.507	-34
190.576	16
190.645	-647
190.714	-465
190.783	-499
190.853	348
190.922	-522
190.991	-571
191.060	-27
191.129	-373
191.198	17
191.268	-360
191.337	-937
191.406	361
191.475	-399
191.544	-384
191.613	-424
191.682	312
191.752	-529
191.821	-539
191.890	-1279
191.959	539
192.028	-154
192.097	-336
192.166	364
192.235	-48
192.304	242
192.373	-496
192.442	-1000
192.511	293
192.580	-854
192.650	132
192.719	-289
192.788	-574
192.857	93
192.926	-1109
192.995	-906
193.064	136
193.133	-410
193.202	-546
193.271	-226
193.340	458
193.409	162
193.478	177
193.547	-360
193.615	-330
193.684	-364
193.753	-211
193.822	23
193.891	-573
193.960	-593
194.029	-408
194.098	7
194.167	-635
194.236	-99
194.305	-355
194.374	-144
194.443	-815
194.512	-985
194.580	330
194.649	-182
194.718	99
194.787	-1305
194.856	-249
194.925	295
194.994	-312
195.062	-827
195.131	575
195.200	-724
195.269	40
195.338	-6
195.407	424
195.475	-973
195.544	-34
195.613	-1267
195.682	229
195.751	-20
195.819	-567
195.888	-426
195.957	651
196.026	-349
196.094	353
196.163	-252
196.232	-115
196.301	-178
196.369	-214
196.438	119
196.507	60
196.576	-171
196.644	-819
196.713	15
196.782	-610
196.850	120
196.919	11
196.988	200
197.056	-893
197.125	-582
197.194	-451
197.262	-321
197.331	27
197.400	-754
197.468	82
197.537	-749
197.606	-514
197.674	-772
197.743	-157
197.812	-124
197.880	253
197.949	-491
198.017	-109
198.086	-500
198.155	-477
198.223	-208
198.292	-458
198.360	-1026
198.429	269
198.497	-519
198.566	96
198.635	-660
198.703	558
198.772	-73
198.840	-192
198.909	-904
198.977	-574
199.046	-9
199.114	-517
199.183	-651
199.251	185
199.320	189
199.388	-254
199.457	-739
199.525	-1038
199.594	-28
199.662	-471
199.731	-552
199.799	-269
199.867	168
199.936	-956
200.004	-428
200.073	-33
200.141	-330
200.210	-500
200.278	-346
200.346	-135
200.415	-501
200.483	-128
200.552	108
200.620	-264
200.688	-868
200.757	-251
200.825	-361
200.893	166
200.962	-119
201.030	-592
201.098	-1019
201.167	-411
201.235	-1203
201.303	-192
201.372	-384
201.440	-203
201.508	-274
201.577	46
201.645	-179
201.713	-49
201.781	-100
201.850	-214
201.918	-446
201.986	-115
202.055	-586
202.123	-748
202.191	-355
202.259	-366
202.327	-566
202.396	-407
202.464	-361
202.532	-434
202.600	102
202.669	-95
202.737	-1074
202.805	-394
202.873	-574
202.941	-303
203.009	-503
203.078	-51
203.146	-783
203.214	-1120
203.282	-699
203.350	-210
203.418	-1374
203.487	-328
203.555	-819
203.623	-883
203.691	43
203.759	-499
203.827	-749
203.895	-509
203.963	-482
204.031	-141
204.099	-254
204.168	-1147
204.236	-279
204.304	377
204.372	-292
204.440	136
204.508	-1106
204.576	-910
204.644	-553
204.712	-832
204.780	-131
204.848	-160
204.916	-779
204.984	-268
205.052	120
205.120	-182
205.188	-516
205.256	-563
205.324	-1001
205.392	-271
205.460	208
205.528	-629
205.596	-38
205.664	-256
205.732	-153
205.799	-802
205.867	366
205.935	-564
206.003	224
206.071	-437
206.139	-676
206.207	-345
206.275	-618
206.343	-564
206.411	-536
206.478	324
206.546	293
206.614	-222
206.682	-61
206.750	-840
206.818	-14
206.885	128
206.953	-1252
207.021	143
207.089	-318
207.157	-349
207.225	-645
207.292	-739
207.360	-653
207.428	64
207.496	-1017
207.563	-554
207.631	-687
207.699	-1006
207.767	-632
207.834	-1005
207.902	-308
207.970	-719
208.038	-374
208.105	-667
208.173	-912
208.241	-206
208.309	-207
208.376	-420
208.444	-739
208.512	-860
208.579	-885
208.647	152
208.715	257
208.782	-1418
208.850	-875
208.918	-394
208.985	-591
209.053	-832
209.120	-876
209.188	-896
209.256	-903
209.323	-1009
209.391	-999
209.459	184
209.526	-902
209.594	-958
209.661	-920
209.729	-533
209.796	7
209.864	-163
209.932	-1528
209.999	218
210.067	-230
210.134	-72
210.202	-334
210.269	114
210.337	568
210.404	-872
210.472	-384
210.539	46
210.607	-1241
210.674	-132
210.742	-48
210.809	-1176
210.877	-356
210.944	318
211.012	-1568
211.079	896
211.146	-331
211.214	714
211.281	-298
211.349	636
211.416	-920
211.484	68
211.551	-1208
211.618	-541
211.686	-779
211.753	441
211.821	493
211.888	125
211.955	-549
212.023	-529
212.090	-758
212.157	-699
212.225	-1747
212.292	-302
212.359	-1037
212.427	-161
212.494	-701
212.561	-865
212.629	-1028
212.696	-503
212.763	-63
212.831	-186
212.898	91
212.965	-1261
213.032	-251
213.100	-940
213.167	-942
213.234	48
213.301	-173
213.369	-1117
213.436	-839
213.503	-1047
213.570	-298
213.638	-1151
213.705	-677
213.772	-885
213.839	-1289
213.906	-369
213.973	-768
214.041	-857
214.108	-552
214.175	-189
214.242	-153
214.309	-53
214.376	-461
214.444	-1179
214.511	-546
214.578	-754
214.645	496
214.712	78
214.779	-1094
214.846	-988
214.913	-984
214.980	-309
215.048	-992
215.115	201
215.182	27
215.249	-302
215.316	-833
215.383	71
215.450	-650
215.517	-699
215.584	-840
215.651	-782
215.718	-659
215.785	74
215.852	-759
215.919	753
215.986	-420
216.053	-660
216.120	-1510
216.187	-387
216.254	-517
216.321	-451
216.388	-1401
216.455	-690
216.522	-835
216.589	12
216.656	-505
216.722	-619
216.789	-1133
216.856	-1265
216.923	-85
216.990	125
217.057	-1190
217.124	-711
217.191	-1195
217.258	-919
217.324	-474
217.391	-907
217.458	-339
217.525	-532
217.592	-610
217.659	-2090
217.725	-250
217.792	-500
217.859	-663
217.926	-610
217.993	-613
218.059	-386
218.126	-694
218.193	-557
218.260	-670
218.327	-1237
218.393	-519
218.460	323
218.527	-650
218.594	-579
218.660	-1131
218.727	-228
218.794	-400
218.860	377
218.927	-1193
218.994	-923
219.061	-788
219.127	-766
219.194	-269
219.261	267
219.327	-456
219.394	-357
219.461	-1148
219.527	-144
219.594	-161
219.661	-497
219.727	-1245
219.794	0
219.860	-1743
219.927	-958
219.994	-264
220.060	543
220.127	1607
220.193	41
220.260	-478
220.326	-607
220.393	-1356
220.460	-1106
220.526	-1304
220.593	-366
220.659	1203
220.726	-434
220.792	-493
220.859	-955
220.925	-710
220.992	-975
221.058	13
221.125	164
221.191	-1014
221.258	-760
221.324	67
221.391	-574
221.457	-1035
221.524	-1343
221.590	-108
221.657	-394
221.723	-770
221.789	-835
221.856	-8
221.922	-601
221.989	-324
222.055	-219
222.121	-1344
222.188	831
222.254	-1156
222.321	-63
222.387	-881
222.453	-443
222.520	-1781
222.586	-1179
222.652	-924
222.719	-820
222.785	448
222.851	-1019
222.918	-394
222.984	-1013
223.050	-439
223.116	-2090
223.183	388
223.249	-1114
223.315	-907
223.382	-240
223.448	-1280
223.514	-482
223.580	-566
223.647	-932
223.713	-658
223.779	-400
223.845	-1189
223.911	-526
223.978	-2009
224.044	-1107
224.110	-1492
224.176	326
224.242	-582
224.309	-2028
224.375	-751
224.441	66
224.507	-1019
224.573	-1631
224.639	-648
224.705	-1134
224.772	-426
224.838	-809
224.904	-457
224.970	-326
225.036	-455
225.102	-683
225.168	-75
225.234	-603
225.300	-938
225.366	-1097
225.432	-622
225.499	-903
225.565	-921
225.631	-1312
225.697	-972
225.763	-547
225.829	-386
225.895	-1123
225.961	-1144
226.027	-669
226.093	-1987
226.159	-48
226.225	-212
226.291	-392
226.357	-622
226.423	-981
226.489	-613
226.554	-415
226.620	-840
226.686	-361
226.752	148
226.818	-1051
226.884	16
226.950	-76
227.016	-955
227.082	-139
227.148	-378
227.214	-571
227.279	-843
227.345	-470
227.411	-528
227.477	-298
227.543	1865
227.609	2373
227.674	480
227.740	26
227.806	481
227.872	-900
227.938	-1126
228.003	-542
228.069	-1398
228.135	-1407
228.201	-654
228.267	-1078
228.332	-388
228.398	-2007
228.464	-1075
228.530	-912
228.595	-743
228.661	-1575
228.727	-393
228.792	-93
228.858	-1340
228.924	-2180
228.990	392
229.055	-840
229.121	-209
229.187	-426
229.252	-1403
229.318	-705
229.384	-363
229.449	-934
229.515	-2015
229.581	-1264
229.646	709
229.712	-1129
229.777	-1228
229.843	-718
229.909	-718
229.974	679
230.040	-895
230.105	-1111
230.171	-1132
230.236	-553
230.302	-1042
230.368	-1148
230.433	-1368
230.499	-993
230.564	-426
230.630	-2031
230.695	-36
230.761	157
230.826	-2576
230.892	202
230.957	-1195
231.023	-570
231.088	-692
231.154	-485
231.219	-283
231.284	-1758
231.350	392
231.415	-1140
231.481	-552
231.546	-932
231.612	-774
231.677	-739
231.742	-1858
231.808	709
231.873	-1244
231.939	-2350
232.004	119
232.069	856
232.135	-1090
232.200	-932
232.265	-630
232.331	-1755
232.396	-1049
232.461	-895
232.527	-1441
232.592	-997
232.657	-1178
232.723	-257
232.788	-1014
232.853	-266
232.918	-977
232.984	-819
233.049	-897
233.114	-636
233.179	-691
233.245	188
233.310	-262
233.375	-1103
233.440	-189
233.506	-1231
233.571	-1103
233.636	-628
233.701	35
233.766	-892
233.832	-932
233.897	-742
233.962	-1857
234.027	253
234.092	-636
234.157	-583
234.222	-1640
234.288	-703
234.353	-641
234.418	-994
234.483	-274
234.548	-432
234.613	-1069
234.678	-834
234.743	-1547
234.808	365
234.873	-1350
234.938	140
235.004	-1093
235.069	-722
235.134	-1267
235.199	-240
235.264	-605
235.329	-1520
235.394	-1070
235.459	214
235.524	-1423
235.589	321
235.654	-1004
235.719	-1760
235.784	-327
235.849	-527
235.913	-1012
235.978	-546
236.043	-96
236.108	-857
236.173	-1606
236.238	247
236.303	-1311
236.368	-1540
236.433	-299
236.498	-775
236.563	-954
236.627	-602
236.692	-208
236.757	-28
236.822	-1325
236.887	-886
236.952	-60
237.017	-2472
237.081	71
237.146	-1752
237.211	-185
237.276	38
237.341	751
237.405	-522
237.470	-1050
237.535	-166
237.600	-77
237.664	-178
237.729	-1319
237.794	-1315
237.859	-171
237.923	-485
237.988	-971
238.053	792
238.118	-540
238.182	-947
238.247	1242
238.312	-2059
238.376	-629
238.441	-2654
238.506	-220
238.570	-1783
238.635	-306
238.700	-330
238.764	-1284
238.829	-226
238.893	-1205
238.958	-184
239.023	-542
239.087	-505
239.152	-684
239.216	-803
239.281	-786
239.346	-399
239.410	-1063
239.475	-316
239.539	-32
239.604	-579
239.668	295
239.733	472
239.797	989
239.862	5551
239.926	3244
239.991	919
240.055	533
240.120	119
240.184	-458
240.249	-1019
240.313	-496
240.378	-521
240.442	705
240.507	539
240.571	-909
240.635	-810
240.700	-898
240.764	148
240.829	-601
240.893	-1227
240.957	-26
241.022	-283
241.086	680
241.151	-1887
241.215	-1417
241.279	361
241.344	-749
241.408	-329
241.472	-1129
241.537	166
241.601	-346
241.665	-1299
241.730	-1798
241.794	642
241.858	-1889
241.922	-1206
241.987	-775
242.051	-796
242.115	-1514
242.179	352
242.244	-518
242.308	-228
242.372	-149
242.436	-19
242.501	-1048
242.565	-1430
242.629	-1317
242.693	192
242.757	-1785
242.822	-213
242.886	-299
242.950	720
243.014	-1532
243.078	-357
243.142	-621
243.206	-1319
243.271	-717
243.335	-715
243.399	-1338
243.463	-538
243.527	41
243.591	-1740
243.655	-1485
243.719	-1285
243.783	-698
243.847	-552
243.911	-771
243.975	-1112
244.040	-2107
244.104	763
244.168	-342
244.232	-821
244.296	-720
244.360	46
244.424	-1736
244.488	-499
244.552	-850
244.615	-1734
244.679	-77
244.743	-1003
244.807	-1416
244.871	-478
244.935	-801
244.999	-1805
245.063	-582
245.127	917
245.191	-995
245.255	-110
245.319	-439
245.383	-1973
245.446	430
245.510	-1121
245.574	-453
245.638	25
245.702	-2364
245.766	787
245.829	1286
245.893	-1650
245.957	-957
246.021	-503
246.085	-1527
246.149	-510
246.212	65
246.276	-92
246.340	-1537
246.404	196
246.467	255
246.531	-2763
246.595	-21
246.659	371
246.722	-1977
246.786	371
246.850	-619
246.913	-417
246.977	-1703
247.041	-442
247.104	-642
247.168	-821
247.232	202
247.295	595
247.359	33
247.423	-802
247.486	-434
247.550	172
247.614	-511
247.677	-402
247.741	-752
247.804	-426
247.868	624
247.932	-429
247.995	1290
248.059	-875
248.122	-1743
248.186	369
248.249	-181
248.313	1451
248.376	1623
248.440	-184
248.503	-1906
248.567	1209
248.630	-1363
248.694	-506
248.757	-91
248.821	1649
248.884	1186
248.948	-220
249.011	1162
249.075	1547
249.138	2163
249.202	-548
249.265	-475
249.328	430
249.392	-1439
249.455	-150
249.519	-813
249.582	-250
249.645	-371
249.709	-973
249.772	-879
249.835	-416
249.899	-388
249.962	-1127
250.025	-1556
250.089	19
250.152	489
250.215	-47
250.279	-1081
250.342	-150
250.405	44
250.468	-1064
250.532	-1070
250.595	1045
250.658	-611
250.721	2940
250.785	-198
250.848	532
250.911	-890
250.974	96
251.038	-656
251.101	783
251.164	-646
251.227	-352
251.290	-1086
251.354	69
251.417	1785
251.480	1582
251.543	367
251.606	4946
251.669	4289
251.732	722
251.795	256
251.859	742
251.922	1431
251.985	1532
252.048	326
252.111	173
252.174	-1018
252.237	-2
252.300	2281
252.363	609
252.426	5433
252.489	-192
252.552	-117
252.615	-965
252.678	-46
252.741	1502
252.804	412
252.867	3831
252.930	1725
252.993	568
253.056	-34
253.119	-546
253.182	-567
253.245	-652
253.308	-206
253.371	-1111
253.434	-785
253.497	95
253.559	405
253.622	-85
253.685	-859
253.748	258
253.811	-1114
253.874	-256
253.937	-1547
254.000	-135
254.062	-223
254.125	-26
254.188	1106
254.251	-962
254.314	-98
254.376	-463
254.439	832
254.502	602
254.565	-618
254.628	1407
254.690	123
254.753	-265
254.816	-254
254.878	-702
254.941	467
255.004	547
255.067	-787
255.129	-352
255.192	-484
255.255	-1132
255.317	-106
255.380	-184
255.443	-516
255.505	516
255.568	-1854
255.631	-866
255.693	11
255.756	-580
255.819	711
255.881	-1315
255.944	-230
256.006	-1454
256.069	-116
256.132	-1300
256.194	20
256.257	-996
256.319	-815
256.382	-820
256.444	314
256.507	-166
256.569	-1046
256.632	-1428
256.694	-1035
256.757	-269
256.819	949
256.882	-807
256.944	-1111
257.007	-555
257.069	-650
257.132	-735
257.194	510
257.257	-853
257.319	-847
257.381	-1244
257.444	986
257.506	1237
257.569	1811
257.631	109
257.693	-252
257.756	-455
257.818	-865
257.880	-666
257.943	15
258.005	-867
258.067	-858
258.130	-18
258.192	-794
258.254	-247
258.317	-1505
258.379	-219
258.441	-198
258.503	717
258.566	-342
258.628	624
258.690	-1771
258.753	-329
258.815	-544
258.877	-979
258.939	-472
259.001	-112
259.064	-218
259.126	-643
259.188	-1225
259.250	-499
259.312	29
259.375	-475
259.437	-263
259.499	-762
259.561	-92
259.623	104
259.685	-556
259.747	-750
259.809	24
259.872	173
259.934	1322
259.996	1049
260.058	-107
260.120	-810
260.182	-389
260.244	-1471
260.306	-686
260.368	127
260.430	-1232
260.492	-248
260.554	356
260.616	-222
260.678	-97
260.740	49
260.802	-681
260.864	6
260.926	-1088
260.988	278
261.050	-831
261.112	-1067
261.174	353
261.236	566
261.298	-443
261.359	204
261.421	303
261.483	-1713
261.545	395
261.607	-1221
261.669	-123
261.731	-453
261.793	-58
261.854	-1613
261.916	-442
261.978	-573
262.040	-346
262.102	-132
262.164	-1200
262.225	214
262.287	-372
262.349	-1002
262.411	-1024
262.472	-80
262.534	-268
262.596	-1018
262.658	107
262.719	-1098
262.781	234
262.843	-383
262.904	150
262.966	-311
263.028	-977
263.090	399
263.151	846
263.213	273
263.275	-614
263.336	104
263.398	-46
263.459	-883
263.521	-790
263.583	137
263.644	-499
263.706	-23
263.767	-499
263.829	-473
263.891	-801
263.952	-465
264.014	-974
264.075	-863
264.137	-689
264.198	-377
264.260	-881
264.321	-192
264.383	-859
264.444	702
264.506	-396
264.567	-549
264.629	-306
264.690	-1405
264.752	-308
264.813	100
264.875	-1205
264.936	-36
264.998	-1019
265.059	-1004
265.120	-169
265.182	-645
265.243	-477
265.305	-697
265.366	-246
265.427	7
265.489	653
265.550	-1742
265.611	-467
265.673	-528
265.734	-971
265.795	-408
265.857	-1175
265.918	-1155
265.979	-867
266.040	298
266.102	42
266.163	309
266.224	-693
266.286	-919
266.347	-1182
266.408	-516
266.469	-1124
266.530	39
266.592	-486
266.653	-317
266.714	-428
266.775	-817
266.836	-191
266.898	-865
266.959	-949
267.020	-458
267.081	900
267.142	308
267.203	-332
267.264	-725
267.326	620
267.387	-106
267.448	-588
267.509	-177
267.570	-112
267.631	-814
267.692	-1812
267.753	-260
267.814	-2110
267.875	-16
267.936	-103
267.997	-604
268.058	-348
268.119	-1078
268.180	-943
268.241	-598
268.302	-555
268.363	-196
268.424	-452
268.485	-830
268.546	-731
268.607	-978
268.668	-1139
268.729	-549
268.790	-754
268.851	-532
268.912	-871
268.972	-193
269.033	-856
269.094	-1681
269.155	-375
269.216	-697
269.277	236
269.338	-421
269.398	-581
269.459	-1068
269.520	-582
269.581	-961
269.642	-416
269.702	-1148
269.763	-549
269.824	-600
269.885	-952
269.945	-431
270.006	-722
270.067	-569
270.128	-679
270.188	-226
270.249	-825
270.310	-636
270.370	-49
270.431	-237
270.492	-1035
270.553	-838
270.613	-1242
270.674	-231
270.734	-149
270.795	-619
270.856	188
270.916	-1185
270.977	-641
271.038	-621
271.098	-113
271.159	-1235
271.219	-1053
271.280	-131
271.340	-371
271.401	-1878
271.462	151
271.522	-255
271.583	-735
271.643	-270
271.704	-594
271.764	-923
271.825	-88
271.885	2506
271.946	2546
272.006	485
272.066	718
272.127	2564
272.187	2044
272.248	1349
272.308	-803
272.369	1858
272.429	531
272.489	-283
272.550	-663
272.610	549
272.671	-535
272.731	-226
272.791	-785
272.852	113
272.912	-394
272.972	444
273.033	122
273.093	63
273.153	137
273.214	-5
273.274	384
273.334	1014
273.394	2141
273.455	873
273.515	884
273.575	2514
273.635	1678
273.696	2463
273.756	3015
273.816	2361
273.876	1412
273.936	891
273.997	1227
274.057	-530
274.117	-71
274.177	-103
274.237	1967
274.297	1492
274.358	1034
274.418	1560
274.478	274
274.538	50
274.598	-412
274.658	1194
274.718	-263
274.778	236
274.838	517
274.898	-350
274.958	720
275.018	1678
275.078	1026
275.138	-100
275.198	-618
275.258	-141
275.318	-671
275.378	-213
275.438	253
275.498	-191
275.558	-292
275.618	1468
275.678	770
275.738	432
275.798	-175
275.858	-717
275.918	-831
275.978	-123
276.038	-214
276.098	-329
276.157	-46
276.217	820
276.277	-525
276.337	-1028
276.397	-65
276.457	-315
276.517	-455
276.576	350
276.636	-244
276.696	-916
276.756	-565
276.815	477
276.875	-40
276.935	-122
276.995	-258
277.055	653
277.114	152
277.174	192
277.234	444
277.293	-331
277.353	14
277.413	351
277.472	448
277.532	263
277.592	1811
277.651	5371
277.711	12268
277.771	3581
277.830	11398
277.890	10756
277.950	7502
278.009	22358
278.069	9174
278.128	9066
278.188	12649
278.248	5686
278.307	13588
278.367	9112
278.426	2087
278.486	679
278.545	258
278.605	1322
278.664	415
278.724	52
278.783	1236
278.843	3564
278.902	1633
278.962	318
279.021	1924
279.081	5617
279.140	3702
279.199	2403
279.259	2738
279.318	4365
279.378	5491
279.437	8581
279.496	22604
279.556	87393
279.615	69879
279.675	20162
279.734	11148
279.793	10456
279.853	13187
279.912	7086
279.971	4175
280.031	4083
280.090	6265
280.149	9290
280.208	13230
280.268	61227
280.327	59743
280.386	15705
280.445	7925
280.505	4626
280.564	4014
280.623	2618
280.682	2063
280.742	2422
280.801	1434
280.860	1229
280.919	997
280.978	1573
281.037	480
281.097	472
281.156	1972
281.215	1563
281.274	1220
281.333	2829
281.392	1250
281.451	968
281.510	250
281.569	1039
281.628	652
281.688	964
281.747	913
281.806	152
281.865	628
281.924	760
281.983	148
282.042	-221
282.101	-291
282.160	545
282.219	526
282.278	1188
282.337	526
282.396	486
282.454	520
282.513	860
282.572	551
282.631	-244
282.690	614
282.749	-317
282.808	458
282.867	126
282.926	431
282.985	451
283.043	181
283.102	831
283.161	403
283.220	956
283.279	2149
283.338	1158
283.396	-6
283.455	1714
283.514	792
283.573	1436
283.631	1294
283.690	1595
283.749	1269
283.808	1363
283.866	904
283.925	773
283.984	1701
284.043	1597
284.101	2283
284.160	1621
284.219	2577
284.277	3246
284.336	2250
284.395	3673
284.453	3745
284.512	3382
284.570	4359
284.629	6070
284.688	7311
284.746	9074
284.805	10565
284.863	14825
284.922	17847
284.981	21166
285.039	28768
285.098	36954
285.156	44336
285.215	43449
285.273	37783
285.332	40626
285.390	40001
285.449	30269
285.507	22683
285.566	18010
285.624	14286
285.683	11219
285.741	9226
285.799	7695
285.858	5725
285.916	4894
285.975	4948
286.033	3610
286.091	3162
286.150	1925
286.208	1980
286.267	2324
286.325	1738
286.383	1326
286.442	1799
286.500	1914
286.558	1196
286.616	933
286.675	1187
286.733	1165
286.791	674
286.850	926
286.908	848
286.966	1153
287.024	663
287.083	932
287.141	411
287.199	1273
287.257	170
287.315	642
287.374	237
287.432	-458
287.490	831
287.548	849
287.606	-158
287.664	461
287.723	-190
287.781	1201
287.839	225
287.897	93
287.955	964
288.013	650
288.071	1582
288.129	2570
288.187	11248
288.245	4992
288.303	1834
288.361	63
288.419	-459
288.477	391
288.535	345
288.593	-74
288.651	-219
288.709	-855
288.767	418
288.825	-209
288.883	119
288.941	333
288.999	-476
289.057	-214
289.115	-425
289.173	-510
289.231	-126
289.289	-356
289.346	-56
289.404	139
289.462	643
289.520	-355
289.578	-99
289.636	668
289.694	-490
289.751	-250
289.809	441
289.867	396
289.925	49
289.983	-181
290.040	141
290.098	235
290.156	-427
290.214	-146
290.271	-186
290.329	108
290.387	-57
290.444	-77
290.502	309
290.560	136
290.617	165
290.675	408
290.733	-394
290.790	-394
290.848	-585
290.906	-40
290.963	-62
291.021	-34
291.078	736
291.136	-223
291.194	104
291.251	1163
291.309	-72
291.366	231
291.424	-709
291.481	418
291.539	458
291.596	1096
291.654	-88
291.711	680
291.769	20
291.826	68
291.884	325
291.941	-606
291.999	-11
292.056	-742
292.114	-630
292.171	-21
292.228	63
292.286	510
292.343	105
292.401	296
292.458	13
292.515	-448
292.573	-34
292.630	536
292.687	393
292.745	-377
292.802	-880
292.859	636
292.917	1983
292.974	1271
293.031	961
293.089	135
293.146	-986
293.203	-821
293.260	-656
293.318	-324
293.375	633
293.432	-363
293.489	40
293.546	13
293.604	761
293.661	1982
293.718	4398
293.775	1522
293.832	1219
293.889	2486
293.947	2252
294.004	322
294.061	705
294.118	550
294.175	1345
294.232	2920
294.289	1748
294.346	751
294.403	240
294.460	-481
294.517	202
294.574	217
294.631	-189
294.688	-324
294.745	567
294.802	1959
294.859	851
294.916	27
294.973	-208
295.030	-200
295.087	-1196
295.144	-59
295.201	507
295.258	-672
295.315	172
295.372	329
295.429	1520
295.486	-152
295.542	-207
295.599	-969
295.656	-665
295.713	660
295.770	864
295.827	590
295.883	-583
295.940	-151
295.997	-125
296.054	-137
296.111	-346
296.167	535
296.224	-506
296.281	-430
296.338	-428
296.394	-888
296.451	-734
296.508	581
296.564	580
296.621	199
296.678	1917
296.734	3569
296.791	1135
296.848	566
296.904	-480
296.961	-202
297.018	2198
297.074	1162
297.131	-442
297.187	486
297.244	792
297.301	1021
297.357	5182
297.414	1485
297.470	784
297.527	-547
297.583	-488
297.640	-191
297.696	-237
297.753	-44
297.809	163
297.866	-560
297.922	-651
297.979	12
298.035	-897
298.092	-530
298.148	708
298.204	268
298.261	-359
298.317	751
298.374	2645
298.430	1577
298.486	477
298.543	-330
298.599	-269
298.656	-1196
298.712	-680
298.768	-74
298.824	-324
298.881	-810
298.937	231
298.993	-287
299.050	-517
299.106	-552
299.162	122
299.218	550
299.275	-92
299.331	50
299.387	677
299.443	3766
299.500	8478
299.556	7180
299.612	1314
299.668	903
299.724	5775
299.780	7676
299.837	2429
299.893	1052
299.949	5183
300.005	7950
300.061	5921
300.117	10375
300.173	4710
300.229	1192
300.285	230
300.341	1112
300.397	230
300.453	454
300.510	621
300.566	189
300.622	1536
300.678	9799
300.734	13877
300.790	6072
300.845	4903
300.901	5450
300.957	9268
301.013	4165
301.069	1433
301.125	1268
301.181	256
301.237	214
301.293	136
301.349	81
301.405	-263
301.461	-70
301.516	-20
301.572	-573
301.628	-517
301.684	-393
301.740	-222
301.796	220
301.851	161
301.907	-99
301.963	-231
302.019	1211
302.074	7567
302.130	7574
302.186	3457
302.242	1259
302.297	694
302.353	159
302.409	616
302.464	1186
302.520	251
302.576	2246
302.631	1694
302.687	125
302.743	-220
302.798	-461
302.854	-716
302.910	-868
302.965	-426
303.021	158
303.076	-399
303.132	-708
303.187	538
303.243	-581
303.299	-311
303.354	-478
303.410	279
303.465	-437
303.521	-459
303.576	83
303.632	-350
303.687	-461
303.743	2313
303.798	1261
303.853	-25
303.909	-569
303.964	-349
304.020	-278
304.075	-468
304.130	-273
304.186	84
304.241	1427
304.297	2
304.352	-351
304.358	-379
304.407	-608
304.449	-135
304.463	23
304.518	-862
304.539	-666
304.573	-352
304.629	-415
304.630	-401
304.684	173
304.720	815
304.739	1124
304.794	2677
304.811	2327
304.850	1492
304.902	388
304.905	314
304.960	-101
304.992	-268
305.015	-391
305.071	-139
305.083	-146
305.126	-185
305.173	48
305.181	103
305.236	-522
305.264	-251
305.292	-42
305.347	-168
305.354	-167
305.402	-108
305.445	-232
305.457	-282
305.512	557
305.535	316
305.567	41
305.622	-322
305.626	-305
305.678	85
305.716	972
305.733	1294
305.788	1620
305.807	1480
305.843	1425
305.897	2614
305.898	2625
305.953	2240
305.988	1540
306.008	1166
306.063	857
306.078	566
306.118	-61
306.168	-222
306.173	-238
306.228	-108
306.259	-232
306.283	-269
306.338	-215
306.349	-160
306.393	-96
306.440	-282
306.448	-292
306.503	-1
306.530	-38
306.558	-30
306.613	288
306.620	297
306.668	523
306.711	1762
306.723	1971
306.778	1361
306.801	989
306.833	627
306.888	153
306.892	165
306.943	288
306.982	-78
306.997	-76
307.052	295
307.072	369
307.107	238
307.162	593
307.163	586
307.217	279
307.253	447
307.272	498
307.327	267
307.343	216
307.381	268
307.434	601
307.436	627
307.491	1132
307.524	1094
307.546	977
307.600	1561
307.614	1531
307.655	1037
307.704	74
307.710	61
307.765	398
307.795	657
307.819	626
307.874	902
307.885	851
307.929	1106
307.975	1786
307.984	1871
308.038	1370
308.065	1593
308.093	2977
308.148	6195
308.156	6884
308.202	10281
308.246	13278
308.257	12987
308.312	6013
308.336	4064
308.366	3492
308.421	2382
308.426	2289
308.475	2029
308.517	2151
308.530	2113
308.585	2221
308.607	2107
308.639	2309
308.694	2466
308.697	2500
308.748	2730
308.787	2693
308.803	2843
308.857	3192
308.877	3334
308.912	3950
308.967	5350
308.967	5364
309.021	9542
309.058	12647
309.076	14235
309.130	20289
309.148	21704
309.185	29302
309.238	41164
309.239	41378
309.293	50954
309.328	53379
309.348	48602
309.402	30809
309.418	25687
309.457	20410
309.508	15046
309.511	15221
309.566	20075
309.598	23504
309.620	30360
309.674	50504
309.688	55763
309.729	53227
309.778	43796
309.783	42595
309.837	26708
309.868	18131
309.892	15564
309.946	10797
309.959	9936
310.001	8792
310.049	7424
310.055	7221
310.109	5459
310.139	4531
310.163	3813
310.218	2374
310.229	2117
310.272	2537
310.319	2778
310.326	2603
310.381	1621
310.409	969
310.435	1039
310.489	1338
310.499	1433
310.543	1777
310.589	1878
310.598	1871
310.652	1879
310.679	1799
310.706	1594
310.760	1496
310.769	1428
310.814	1761
310.859	2186
310.868	2154
310.923	1927
310.948	1807
310.977	1813
311.031	1783
311.038	1787
311.085	1411
311.128	835
311.139	890
311.193	1373
311.218	1554
311.247	1445
311.301	1280
311.308	1242
311.356	1414
311.398	1566
311.410	1481
311.464	1134
311.488	935
311.518	1037
311.572	1239
311.578	1253
311.626	1870
311.668	2463
311.680	2441
311.734	2166
311.758	2067
311.788	1853
311.842	1455
311.847	1406
311.896	1878
311.937	2303
311.950	2078
312.004	1046
312.027	603
312.058	915
312.112	1464
312.117	1515
312.165	2035
312.207	2470
312.297	2197
312.386	1689
312.476	1681
312.566	1368
312.656	1383
312.745	1181
312.835	2064
312.925	525
313.015	2072
313.104	1809
313.194	2170
313.284	1303
313.374	1645
313.463	2046
313.553	2506
313.643	1654
313.732	2463
313.822	2015
313.912	3241
314.001	3141
314.091	2914
314.180	3205
314.270	3599
314.360	2831
314.449	3521
314.539	2765
314.628	3292
314.718	2884
314.808	3232
314.897	3058
314.987	5025
315.076	3823
315.166	4471
315.255	3629
315.345	3852
315.434	2742
315.524	4337
315.613	4205
315.703	6775
315.792	17047
315.881	62337
315.971	17636
316.060	5939
316.150	3904
316.239	3418
316.328	2947
316.418	3752
316.507	3582
316.597	4373
316.686	4291
316.775	4231
316.865	3530
316.954	3833
317.043	3129
317.133	2631
317.222	2316
317.311	2727
317.400	1631
317.490	4052
317.579	4041
317.668	5517
317.757	8062
317.847	29744
317.936	91409
318.025	26312
318.114	24081
318.203	9996
318.293	4274
318.382	5716
318.471	5464
318.560	5096
318.649	4227
318.738	2947
318.828	2603
318.917	2174
319.006	1830
319.095	3175
319.184	3567
319.273	3426
319.362	2404
319.451	2318
319.540	1472
319.629	3036
319.718	3060
319.807	3291
319.896	1992
319.985	3456
320.074	2369
320.163	2653
320.252	1432
320.341	2861
320.430	2354
320.519	3106
320.608	2143
320.697	4109
320.786	3577
320.875	5825
320.964	5099
321.053	6120
321.142	6355
321.230	6468
321.319	7469
321.408	8861
321.497	8040
321.586	7782
321.675	5266
321.764	5839
321.852	4774
321.941	5236
322.030	4996
322.119	5343
322.207	7776
322.296	8568
322.385	9567
322.474	11986
322.562	13592
322.651	9017
322.740	7005
322.829	5450
322.917	4940
323.006	4561
323.095	4020
323.183	4293
323.272	3413
323.361	4318
323.449	3984
323.538	3997
323.626	2593
323.715	3403
323.804	2654
323.892	3244
323.981	2279
324.069	2693
324.158	2242
324.246	3340
324.335	2644
324.424	3182
324.512	1980
324.601	2778
324.689	2029
324.778	2840
324.866	2341
324.954	1742
325.043	1872
325.131	1469
325.220	3318
325.308	2400
325.397	1919
325.485	2078
325.574	1509
325.662	2143
325.750	1475
325.839	3179
325.927	2140
326.015	2407
326.104	1536
326.192	1881
326.280	2251
326.369	1804
326.457	1618
326.545	2732
326.634	2181
326.722	2704
326.810	2863
326.898	2719
326.987	3012
327.075	2014
327.163	2996
327.251	2098
327.340	2502
327.428	3920
327.516	3623
327.604	3468
327.692	2669
327.781	2924
327.869	1813
327.957	1976
328.045	1381
328.133	3279
328.221	1694
328.309	2608
328.397	1887
328.485	3071
328.574	4149
328.662	6706
328.750	3855
328.838	2754
328.926	1980
329.014	2745
329.102	1905
329.190	2762
329.278	1668
329.366	2492
329.454	1417
329.542	2392
329.630	1869
329.718	2165
329.806	1989
329.893	2657
329.981	1285
330.069	2302
330.157	2490
330.245	3853
330.333	2160
330.421	2083
330.509	2111
330.597	3563
330.684	1700
330.772	1915
330.860	1572
330.948	1796
331.036	1187
331.123	1682
331.211	1811
331.299	1815
331.387	2197
331.475	2390
331.562	2191
331.650	2296
331.738	1603
331.825	2014
331.913	2256
332.001	2227
332.089	1231
332.176	2934
332.264	1894
332.352	2705
332.439	2452
332.527	2423
332.614	1463
332.702	2360
332.790	2017
332.877	3510
332.965	7896
333.052	7152
333.140	8493
333.228	21732
333.315	5457
333.403	3707
333.490	3222
333.578	9275
333.665	32973
333.753	12253
333.840	3598
333.928	4122
334.015	3909
334.103	4834
334.190	6139
334.278	8412
334.365	12018
334.452	13475
334.540	7506
334.627	7354
334.715	8948
334.802	12953
334.889	22628
334.977	32041
335.064	20229
335.151	9612
335.239	6233
335.326	5426
335.413	5696
335.501	6134
335.588	5634
335.675	6707
335.762	7517
335.850	11281
335.937	15560
336.024	26416
336.111	44437
336.199	42207
336.286	17438
336.373	9760
336.460	6868
336.547	5500
336.635	4251
336.722	3779
336.809	2828
336.896	3157
336.983	3042
337.070	3984
337.157	3960
337.245	3921
337.332	3704
337.419	3271
337.506	2830
337.593	3143
337.680	3277
337.767	3853
337.854	2585
337.941	2385
338.028	2330
338.115	1829
338.202	3646
338.289	3027
338.376	2523
338.463	2830
338.550	1309
338.637	2623
338.724	1818
338.811	2600
338.898	2039
338.984	2562
339.071	1613
339.158	2281
339.245	2808
339.332	2563
339.419	1945
339.506	3199
339.593	1702
339.679	2137
339.766	1570
339.853	2844
339.940	2143
340.027	2910
340.113	1595
340.200	2055
340.287	1724
340.374	1734
340.460	2386
340.547	1650
340.634	2316
340.720	3961
340.807	2538
340.894	2596
340.980	1809
341.067	2068
341.154	2912
341.240	2448
341.327	2070
341.414	3067
341.500	1969
341.587	3022
341.674	2289
341.760	2954
341.847	1908
341.933	1802
342.020	1275
342.106	2876
342.193	1994
342.279	2819
342.366	1001
342.452	2248
342.539	1782
342.625	2415
342.712	3656
342.798	2496
342.885	1962
342.971	1618
343.058	1694
343.144	2693
343.230	2056
343.317	2359
343.403	1553
343.490	2500
343.576	2098
343.662	2677
343.749	1662
343.835	1921
343.921	2413
344.008	10644
344.094	19348
344.180	4666
344.267	2111
344.353	4978
344.439	4387
344.525	1802
344.612	3008
344.698	2164
344.784	1249
344.870	2648
344.957	1414
345.043	3535
345.129	1524
345.215	3209
345.301	1462
345.387	2640
345.474	1535
345.560	1780
345.646	2162
345.732	2733
345.818	2712
345.904	2156
345.990	1877
346.076	2585
346.162	1657
346.249	2300
346.335	2141
346.421	2363
346.507	3326
346.593	6723
346.679	1605
346.765	4118
346.851	4508
346.937	2476
347.023	2806
347.108	2935
347.194	2579
347.280	2164
347.366	3096
347.452	10342
347.538	13948
347.624	8256
347.710	4438
347.796	3004
347.882	2734
347.967	2609
348.053	1243
348.139	2513
348.225	1582
348.311	2536
348.397	1698
348.482	3568
348.568	2288
348.654	3678
348.740	12533
348.825	11109
348.911	5502
348.997	6793
349.083	8017
349.168	2792
349.254	1287
349.340	2565
349.425	2058
349.511	3082
349.597	2118
349.682	2782
349.768	4560
349.854	3777
349.939	2113
350.025	2269
350.110	1647
350.196	2023
350.282	1355
350.367	2836
350.453	2102
350.538	2626
350.624	1155
350.709	3237
350.795	1618
350.880	2572
350.966	2866
351.051	3066
351.137	1840
351.222	3014
351.308	2008
351.393	3467
351.479	1769
351.564	1330
351.649	2838
351.735	2367
351.820	2115
351.906	2603
351.991	1218
352.076	3386
352.162	3326
352.247	1839
352.332	2355
352.418	1723
352.503	1851
352.588	5069
352.673	3242
352.759	2469
352.844	2563
352.929	1866
353.014	1602
353.100	2730
353.185	2762
353.270	1993
353.355	2637
353.441	2804
353.526	2367
353.611	2506
353.696	1425
353.781	3129
353.866	1519
353.952	3131
354.037	1455
354.122	3401
354.207	2055
354.292	2725
354.377	1988
354.462	2476
354.547	1471
354.632	3138
354.717	2418
354.802	2550
354.887	1983
354.972	2323
355.057	2090
355.142	2295
355.227	2661
355.312	1450
355.397	2706
355.482	3227
355.567	1605
355.652	3688
355.737	2945
355.822	4928
355.907	3484
355.991	3518
356.076	1526
356.161	3168
356.246	2047
356.331	2719
356.416	2162
356.501	10704
356.585	8056
356.670	2457
356.755	3505
356.840	3299
356.924	8242
357.009	21444
357.094	7824
357.179	2556
357.263	2067
357.348	3092
357.433	2735
357.517	2866
357.602	2268
357.687	2267
357.771	2988
357.856	2877
357.941	3298
358.025	7466
358.110	26521
358.195	11515
358.279	2762
358.364	3025
358.448	4087
358.533	8545
358.617	5161
358.702	6357
358.787	3571
358.871	3547
358.956	3113
359.040	2482
359.125	1703
359.209	3006
359.294	3171
359.378	4565
359.462	4114
359.547	3360
359.631	1872
359.716	1089
359.800	1245
359.885	3060
359.969	958
360.053	3209
360.138	2148
360.222	2148
360.306	2154
360.391	2665
360.475	2232
360.559	3396
360.644	3760
360.728	2802
360.812	7072
360.896	12921
360.981	3802
361.065	2963
361.149	3099
361.233	2844
361.318	1616
361.402	2847
361.486	3343
361.570	2923
361.654	2697
361.739	3928
361.823	10225
361.907	16496
361.991	5002
362.075	5952
362.159	6387
362.243	13969
362.327	30932
362.411	50768
362.495	17917
362.580	9460
362.664	7708
362.748	8993
362.832	13480
362.916	28587
363.000	85380
363.084	121258
363.168	51277
363.252	14482
363.336	9525
363.420	7637
363.503	5374
363.587	5915
363.671	4230
363.755	3935
363.839	6912
363.923	5691
364.007	7643
364.091	10097
364.175	14524
364.258	38029
364.342	93046
364.426	174492
364.510	89936
364.594	26430
364.677	13358
364.761	16857
364.845	11647
364.929	5678
365.013	4376
365.096	4090
365.180	2793
365.264	3994
365.347	5064
365.431	3720
365.515	1721
365.598	2095
365.682	3827
365.766	3031
365.849	2682
365.933	3255
366.017	4413
366.100	2954
366.184	2023
366.267	3600
366.351	2721
366.435	2944
366.518	2420
366.602	3319
366.685	2557
366.769	2856
366.852	3169
366.936	3323
367.019	3193
367.103	2080
367.186	3392
367.270	2497
367.353	2553
367.436	5139
367.520	3963
367.603	4366
367.687	2855
367.770	3440
367.853	4370
367.937	6120
368.020	7042
368.104	1943
368.187	3441
368.270	3069
368.353	2920
368.437	2720
368.520	2903
368.603	3572
368.687	3386
368.770	5710
368.853	2599
368.936	3355
369.020	2895
369.103	3038
369.186	2073
369.269	2203
369.352	3366
369.436	3075
369.519	2248
369.602	1899
369.685	4006
369.768	2025
369.851	3076
369.934	2619
370.018	2435
370.101	2295
370.184	3883
370.267	3605
370.350	2882
370.433	4054
370.516	13180
370.599	35847
370.682	13681
370.765	7577
370.848	6613
370.931	7569
371.014	5066
371.097	3422
371.180	4344
371.263	3796
371.346	1733
371.429	4905
371.511	2915
371.594	4051
371.677	4869
371.760	6539
371.843	4786
371.926	14553
372.009	25470
372.091	13810
372.174	7607
372.257	11897
372.340	6695
372.423	7199
372.505	6713
372.588	4621
372.671	5886
372.754	8342
372.836	6361
372.919	5803
373.002	6149
373.085	4834
373.167	6467
373.250	7165
373.332	9055
373.415	16932
373.498	29754
373.580	18530
373.663	53607
373.746	52206
373.828	9315
373.911	6262
373.993	3472
374.076	5151
374.159	5091
374.241	5390
374.324	7242
374.406	7360
374.489	9667
374.571	22071
374.654	9072
374.736	7001
374.819	14035
374.901	21655
374.983	21088
375.066	8096
375.148	4943
375.231	5559
375.313	5729
375.395	4491
375.478	4841
375.560	6098
375.643	5053
375.725	7293
375.807	15744
375.890	13040
375.972	2865
376.054	4662
376.136	3995
376.219	3213
376.301	6625
376.383	11845
376.465	5884
376.548	3948
376.630	4452
376.712	10153
376.794	6007
376.877	3041
376.959	2298
377.041	3385
377.123	2475
377.205	3358
377.287	2022
377.369	3987
377.452	2338
377.534	3844
377.616	2876
377.698	3199
377.780	1926
377.862	2626
377.944	3889
378.026	2872
378.108	3095
378.190	2956
378.272	3589
378.354	3509
378.436	1355
378.518	2251
378.600	2741
378.682	4431
378.764	4347
378.846	4556
378.928	2472
379.010	2884
379.091	2699
379.173	3552
379.255	2378
379.337	2752
379.419	3951
379.501	7323
379.583	3798
379.664	2978
379.746	2994
379.828	6582
379.910	4859
379.991	6627
380.073	2951
380.155	3620
380.237	2333
380.318	3962
380.400	3306
380.482	4776
380.564	4106
380.645	4147
380.727	2967
380.809	4223
380.890	2849
380.972	3224
381.053	2982
381.135	5215
381.217	3549
381.298	7027
381.380	4818
381.461	5949
381.543	11661
381.624	13362
381.706	5839
381.787	6323
381.869	5325
381.951	9579
382.032	23680
382.113	18609
382.195	6072
382.276	9227
382.358	8878
382.439	15211
382.521	19659
382.602	26843
382.684	20990
382.765	36081
382.846	95107
382.928	201166
383.009	115697
383.090	92673
383.172	243455
383.253	296600
383.334	105442
383.416	47316
383.497	36398
383.578	41628
383.659	80803
383.741	215964
383.822	376037
383.903	208752
383.984	64297
384.066	38159
384.147	22967
384.228	16205
384.309	14012
384.390	12605
384.471	10449
384.553	10946
384.634	9186
384.715	9862
384.796	8998
384.877	8944
384.958	11681
385.039	10143
385.120	7665
385.201	7943
385.282	6844
385.363	9206
385.444	10245
385.525	11542
385.606	12745
385.687	11673
385.768	7869
385.849	7388
385.930	16065
386.011	22926
386.092	10827
386.173	7828
386.254	6538
386.335	6434
386.416	5063
386.496	7541
386.577	8056
386.658	6412
386.739	5069
386.820	7269
386.901	5173
386.981	7502
387.062	7937
387.143	8651
387.224	10254
387.304	12050
387.385	10273
387.466	8412
387.547	9735
387.627	9525
387.708	12054
387.789	14583
387.869	13893
387.950	10355
388.031	6654
388.111	4715
388.192	8027
388.273	9599
388.353	7826
388.434	5349
388.514	4962
388.595	12595
388.676	11335
388.756	6395
388.837	5576
388.917	5054
388.998	2094
389.078	5001
389.159	4028
389.239	2874
389.320	6405
389.400	2338
389.480	5408
389.561	6866
389.641	5768
389.722	4645
389.802	3603
389.883	6024
389.963	8376
390.043	5513
390.124	2605
390.204	5032
390.284	5757
390.365	4305
390.445	4120
390.525	4817
390.605	5087
390.686	3981
390.766	5109
390.846	5605
390.927	3670
391.007	4094
391.087	5308
391.167	3934
391.247	4214
391.328	5331
391.408	5202
391.488	5213
391.568	3673
391.648	5580
391.728	6691
391.808	7532
391.888	5949
391.969	7432
392.049	8464
392.129	8462
392.209	8506
392.289	12736
392.369	10062
392.449	10601
392.529	10840
392.609	14588
392.689	15597
392.769	20853
392.849	23825
392.929	30336
393.009	41574
393.089	61535
393.169	114096
393.248	257423
393.328	481798
393.408	470024
393.488	242020
393.568	104497
393.648	55657
393.728	34981
393.807	24276
393.887	20749
393.967	15964
394.047	12848
394.127	10916
394.206	11061
394.286	13888
394.366	37218
394.446	35814
394.525	10451
394.605	7135
394.685	7947
394.764	8773
394.844	14394
394.924	16070
395.003	8267
395.083	5471
395.163	5636
395.242	5015
395.322	6501
395.402	4171
395.481	7183
395.561	7241
395.640	22508
395.720	42011
395.799	19984
395.879	8081
395.958	8197
396.038	14938
396.117	50636
396.197	50795
396.276	18367
396.356	13031
396.435	18543
396.515	24770
396.594	40529
396.673	86111
396.753	231786
396.832	430991
396.912	323834
396.991	117616
397.070	49990
397.150	27533
397.229	24514
397.308	41060
397.388	65867
397.467	29718
397.546	12097
397.625	6611
397.705	9390
397.784	7588
397.863	6015
397.942	6134
398.022	5459
398.101	4133
398.180	5162
398.259	4457
398.338	5212
398.417	3610
398.497	4298
398.576	3832
398.655	3123
398.734	3668
398.813	4033
398.892	3127
398.971	4400
399.050	2612
399.129	2638
399.208	3294
399.287	3737
399.366	1974
399.445	3384
399.524	2367
399.603	1472
399.682	2674
399.761	2443
399.840	3166
399.919	3502
399.998	2416
400.077	1265
400.156	1084
400.235	4525
400.313	1576
400.392	1665
400.471	3074
400.550	4507
400.629	1416
400.708	2656
400.786	1043
400.865	1221
400.944	134
401.023	3367
401.102	1168
401.180	1944
401.259	1506
401.338	1914
401.416	2244
401.495	1194
401.574	2172
401.652	772
401.731	1993
401.810	1265
401.888	1170
401.967	1927
402.046	1531
402.124	2403
402.203	531
402.281	2623
402.360	475
402.438	2142
402.517	346
402.596	1339
402.674	440
402.753	1492
402.831	1389
402.910	2316
402.988	2159
403.066	8696
403.145	5988
403.223	4198
403.302	6606
403.380	6240
403.459	5701
403.537	2755
403.615	2156
403.694	1610
403.772	2054
403.850	2309
403.929	1646
404.007	1454
404.085	2376
404.164	1773
404.242	883
404.320	2806
404.398	4356
404.477	4158
404.555	12472
404.633	9518
404.711	3399
404.789	2715
404.868	1136
404.946	1609
405.024	1706
405.102	1304
405.180	555
405.258	441
405.336	1260
405.415	1029
405.493	1731
405.571	1501
405.649	42
405.727	798
405.805	2595
405.883	3225
405.961	2237
406.039	1750
406.117	-623
406.195	2253
406.273	1092
406.351	8346
406.429	4821
406.507	1507
406.585	400
406.663	2042
406.740	917
406.818	532
406.896	878
406.974	2151
407.052	98
407.130	5316
407.208	5122
407.285	2547
407.363	937
407.441	1065
407.519	536
407.596	2157
407.674	3229
407.752	12949
407.830	8936
407.907	2838
407.985	384
408.063	1205
408.141	816
408.218	1617
408.296	342
408.373	1149
408.451	1936
408.529	2038
408.606	1258
408.684	1582
408.762	2036
408.839	2572
408.917	2199
408.994	2459
409.072	2473
409.149	4449
409.227	7699
409.304	12188
409.382	12526
409.459	14945
409.537	18143
409.614	15203
409.692	11347
409.769	12167
409.846	19992
409.924	23489
410.001	14055
410.079	9673
410.156	7161
410.233	5806
410.311	3559
410.388	4092
410.465	3626
410.543	3504
410.620	3733
410.697	3121
410.775	3021
410.852	2716
410.929	4912
411.006	4639
411.083	3467
411.161	3450
411.238	3093
411.315	2695
411.392	2062
411.469	3170
411.547	2269
411.624	1246
411.701	1370
411.778	2539
411.855	1930
411.932	1281
412.009	1276
412.086	1961
412.163	1762
412.240	1743
412.317	1679
412.394	1383
412.471	1971
412.548	1141
412.625	1201
412.702	1296
412.779	803
412.856	1516
412.933	60
413.010	994
413.087	1328
413.164	1829
413.241	2618
413.318	910
413.395	1248
413.471	1448
413.548	1020
413.625	1925
413.702	579
413.779	1467
413.855	635
413.932	605
414.009	-240
414.086	1753
414.162	1056
414.239	1824
414.316	1136
414.393	4873
414.469	390
414.546	1139
414.623	682
414.699	1525
414.776	400
414.853	535
414.929	1460
415.006	1038
415.082	711
415.159	1476
415.236	482
415.312	1159
415.389	395
415.465	929
415.542	638
415.618	738
415.695	1475
415.771	674
415.848	415
415.924	1284
416.000	751
416.077	1717
416.153	-570
416.230	791
416.306	441
416.383	833
416.459	1319
416.535	-295
416.612	527
416.688	1940
416.764	1038
416.841	474
416.917	650
416.993	1442
417.069	1187
417.146	1097
417.222	-155
417.298	285
417.374	14
417.451	1340
417.527	277
417.603	1081
417.679	225
417.755	1792
417.831	398
417.908	1096
417.984	766
418.060	591
418.136	534
418.212	626
418.288	1102
418.364	1033
418.440	-303
418.516	1491
418.592	770
418.668	488
418.744	127
418.820	1691
418.896	1247
418.972	616
419.048	531
419.124	2181
419.200	-314
419.276	1525
419.352	717
419.428	1289
419.504	435
419.579	1551
419.655	738
419.731	809
419.807	912
419.883	2372
419.959	1525
420.034	1859
420.110	1263
420.186	1979
420.262	2379
420.337	2311
420.413	2360
420.489	2819
420.565	2383
420.640	2475
420.716	3028
420.792	2424
420.867	3268
420.943	2578
421.019	3152
421.094	3309
421.170	4034
421.245	3652
421.321	4341
421.397	4526
421.472	7451
421.548	11608
421.623	10066
421.699	8599
421.774	8973
421.850	9922
421.925	11626
422.001	14558
422.076	17341
422.152	21796
422.227	29058
422.302	41507
422.378	62167
422.453	103779
422.529	168501
422.604	209676
422.679	178076
422.755	203743
422.830	171204
422.905	104308
422.981	67070
423.056	46138
423.131	34129
423.207	25093
423.282	19384
423.357	16648
423.432	13307
423.508	12408
423.583	10423
423.658	9303
423.733	8955
423.808	8160
423.883	7728
423.959	8416
424.034	10603
424.109	9351
424.184	4970
424.259	4907
424.334	3091
424.409	3628
424.484	3538
424.559	2938
424.634	2911
424.709	2360
424.784	3047
424.859	2753
424.934	2004
425.009	3653
425.084	3038
425.159	1738
425.234	2035
425.309	2194
425.384	1553
425.459	1203
425.534	1195
425.609	1425
425.683	1115
425.758	1853
425.833	1678
425.908	1886
425.983	1144
426.058	3458
426.132	1387
426.207	971
426.282	2189
426.357	1250
426.431	1103
426.506	1690
426.581	892
426.655	2112
426.730	513
426.805	-236
426.879	1196
426.954	1114
427.029	1483
427.103	3026
427.178	5485
427.253	3216
427.327	608
427.402	136
427.476	1209
427.551	333
427.625	1069
427.700	1646
427.774	-79
427.849	1819
427.923	-507
427.998	1349
428.072	1380
428.147	6147
428.221	27694
428.296	83877
428.370	41227
428.444	5276
428.519	2078
428.593	1479
428.667	1931
428.742	3170
428.816	10065
428.890	50699
428.965	70932
429.039	16595
429.113	2753
429.188	1761
429.262	633
429.336	1391
429.410	498
429.485	2006
429.559	967
429.633	1082
429.707	2181
429.781	9890
429.855	47909
429.930	63799
430.004	15128
430.078	9070
430.152	32065
430.226	112198
430.300	100611
430.374	20756
430.448	5854
430.522	3320
430.596	3366
430.670	16944
430.744	64750
430.818	65421
430.892	10192
430.966	1990
431.040	1269
431.114	617
431.188	-98
431.262	126
431.336	611
431.410	1289
431.484	-315
431.557	1858
431.631	930
431.705	3897
431.779	21770
431.853	79114
431.927	48015
432.000	6351
432.074	1330
432.148	791
432.222	-584
432.295	324
432.369	-262
432.443	453
432.516	2182
432.590	5512
432.664	1366
432.737	-43
432.811	-332
432.885	-293
432.958	38
433.032	-251
433.106	-757
433.179	-437
433.253	-93
433.326	92
433.400	-652
433.473	2
433.547	-742
433.620	181
433.694	-720
433.767	376
433.841	-449
433.914	-38
433.988	-609
434.061	325
434.134	-718
434.208	232
434.281	-1437
434.355	-233
434.428	-292
434.501	57
434.575	-279
434.648	911
434.721	-112
434.795	-9
434.868	-782
434.941	51
435.014	285
435.088	857
435.161	1616
435.234	3649
435.307	3112
435.381	3650
435.454	4728
435.527	10376
435.600	9761
435.673	7628
435.746	4994
435.819	2835
435.892	1906
435.966	1469
436.039	1324
436.112	1236
436.185	90
436.258	349
436.331	-671
436.404	322
436.477	-401
436.550	325
436.623	-434
436.696	987
436.769	45
436.842	10
436.915	-339
436.987	132
437.060	-257
437.133	-174
437.206	-833
437.279	78
437.352	-516
437.425	800
437.498	-190
437.570	-21
437.643	-473
437.716	-56
437.789	-1185
437.861	83
437.934	65
438.007	-128
438.080	-80
438.152	510
438.225	30
438.298	4024
438.370	10010
438.443	3452
438.516	164
438.588	285
438.661	-201
438.734	3
438.806	-617
438.879	-25
438.951	-324
439.024	537
439.096	-878
439.169	465
439.241	-1123
439.314	-556
439.386	-820
439.459	80
439.531	-641
439.604	-555
439.676	-705
439.749	-5
439.821	-1166
439.893	-254
439.966	-560
440.038	-450
440.110	-1208
440.183	-525
440.255	-329
440.327	999
440.400	82
440.472	4160
440.544	2367
440.617	220
440.689	3
440.761	289
440.833	-262
440.905	1084
440.978	-1025
441.050	337
441.122	603
441.194	-131
441.266	103
441.338	-510
441.411	333
441.483	1197
441.555	1149
441.627	-196
441.699	-70
441.771	-55
441.843	77
441.915	287
441.987	-969
442.059	691
442.131	446
442.203	2002
442.275	2189
442.347	4562
442.419	13784
442.491	64273
442.563	124756
442.635	47051
442.706	8045
442.778	3852
442.850	2500
442.922	1369
442.994	1180
443.066	2464
443.137	2727
443.209	4905
443.281	7251
443.353	18148
443.425	71929
443.496	197247
443.568	194266
443.640	77762
443.711	16195
443.783	6089
443.855	4030
443.926	2714
443.998	1758
444.070	2196
444.141	338
444.213	1571
444.285	1100
444.356	1448
444.428	161
444.499	502
444.571	980
444.642	1672
444.714	288
444.785	1831
444.857	1245
444.928	2509
445.000	2126
445.071	3518
445.143	4476
445.214	7943
445.285	13654
445.357	39383
445.428	133240
445.500	231395
445.571	179397
445.642	114514
445.714	35096
445.785	11175
445.856	4732
445.928	3424
445.999	1956
446.070	1360
446.141	626
446.213	1259
446.284	384
446.355	1049
446.426	461
446.497	473
446.569	-31
446.640	253
446.711	255
446.782	791
446.853	-290
446.924	875
446.995	-801
447.066	413
447.138	-406
447.209	-44
447.280	-995
447.351	-406
447.422	-634
447.493	54
447.564	-495
447.635	-360
447.706	-766
447.777	-241
447.847	-654
447.918	-1223
447.989	-708
448.060	-233
448.131	-972
448.202	-484
448.273	-1408
448.344	-900
448.414	-631
448.485	-388
448.556	-1050
448.627	263
448.698	285
448.768	-1177
448.839	-688
448.910	-1228
448.981	-754
449.051	-93
449.122	-665
449.193	-558
449.263	-714
449.334	-570
449.405	-760
449.475	-733
449.546	-301
449.616	653
449.687	319
449.758	372
449.828	-1199
449.899	-1280
449.969	-853
450.040	-648
450.110	-426
450.181	-500
450.251	-1487
450.322	-719
450.392	-1013
450.463	-101
450.533	-961
450.604	-401
450.674	-1465
450.744	666
450.815	-595
450.885	435
450.955	-728
451.026	425
451.096	-1201
451.166	77
451.237	382
451.307	789
451.377	-412
451.447	-465
451.518	-729
451.588	-709
451.658	-1322
451.728	77
451.799	-1771
451.869	-355
451.939	-683
452.009	-896
452.079	-1324
452.149	-572
452.219	-1050
452.289	-523
452.360	-600
452.430	674
452.500	-478
452.570	2348
452.640	6878
452.710	20163
452.780	19997
452.850	9146
452.920	2451
452.990	1715
453.060	-348
453.129	-427
453.199	-731
453.269	-8
453.339	215
453.409	443
453.479	362
453.549	149
453.619	137
453.688	-583
453.758	-164
453.828	-467
453.898	-1218
453.968	286
454.037	-767
454.087	-869
454.107	-921
454.168	-1229
454.177	-1290
454.247	-854
454.249	-845
454.316	-1010
454.330	-859
454.386	-324
454.411	-519
454.456	-903
454.492	-740
454.525	-609
454.574	-480
454.595	-439
454.655	-866
454.665	-958
454.734	15
454.736	23
454.804	-95
454.817	-177
454.873	-657
454.898	-475
454.943	-79
454.979	-268
455.013	-529
455.060	28
455.082	276
455.141	-404
455.152	-546
455.221	72
455.222	84
455.291	2
455.303	-148
455.360	-1021
455.384	-594
455.430	228
455.465	414
455.499	534
455.546	-166
455.569	-543
455.627	423
455.638	618
455.707	-525
455.708	-508
455.777	58
455.789	43
455.846	-248
455.869	-304
455.916	-306
455.950	-333
455.985	-470
456.031	-710
456.054	-799
456.112	-152
456.124	-58
456.193	922
456.193	912
456.262	-390
456.274	-122
456.332	899
456.355	391
456.401	-550
456.436	101
456.470	588
456.516	6
456.540	-105
456.597	497
456.609	502
456.678	421
456.678	407
456.747	45
456.759	126
456.817	633
456.840	640
456.886	579
456.920	669
456.955	588
457.001	572
457.024	590
457.082	720
457.093	760
457.162	870
457.163	885
457.232	457
457.243	618
457.301	1361
457.324	1065
457.370	666
457.405	1284
457.439	1748
457.485	1378
457.508	1221
457.566	1925
457.577	2246
457.646	3789
457.647	3837
457.715	11253
457.727	12977
457.784	23067
457.808	31362
457.853	41190
457.889	46419
457.922	45453
457.969	28722
457.991	28009
458.050	35341
458.060	36751
458.129	68684
458.130	69466
458.198	65315
458.211	57697
458.267	29445
458.292	19864
458.336	12599
458.372	12212
458.405	18011
458.453	28840
458.474	36350
458.533	66762
458.543	68796
458.611	105069
458.614	105303
458.680	61054
458.694	47331
458.749	19605
458.775	13639
458.818	7763
458.855	5729
458.887	4375
458.936	3370
458.955	3042
459.016	2415
459.024	2403
459.093	3541
459.097	3508
459.162	2141
459.177	2139
459.230	2493
459.257	2469
459.299	2292
459.338	2381
459.368	2342
459.418	2084
459.437	2037
459.499	2262
459.505	2294
459.574	2131
459.579	2157
459.643	1960
459.659	1767
459.711	1632
459.740	1779
459.780	1770
459.820	1893
459.849	2078
459.900	2162
459.917	2161
459.981	1719
459.986	1654
460.054	2297
460.061	2252
460.123	2068
460.141	2228
460.191	2426
460.222	2241
460.260	2111
460.302	2412
460.328	2634
460.382	2480
460.397	2458
460.462	3054
460.465	3138
460.534	4649
460.543	4914
460.602	11734
460.623	14366
460.671	20984
460.703	27407
460.739	24612
460.783	17641
460.808	14663
460.864	4711
460.876	4014
460.944	2923
460.945	2895
461.013	2780
461.024	2613
461.081	2057
461.104	2127
461.150	2183
461.184	1994
461.218	2116
461.264	2350
461.286	2284
461.345	1974
461.355	1971
461.423	2660
461.425	2645
461.491	1610
461.505	1792
461.559	2540
461.585	2199
461.628	2167
461.665	2883
461.696	3145
461.745	2641
461.764	2456
461.825	2666
461.832	2756
461.901	3286
461.905	3345
461.969	2387
461.985	2064
462.037	2971
462.065	3423
462.105	2832
462.145	2439
462.173	2633
462.225	2674
462.241	2551
462.305	2171
462.310	2215
462.378	3203
462.385	3254
462.446	2259
462.465	2084
462.514	2591
462.545	2747
462.582	2487
462.625	2446
462.650	2484
462.705	2345
462.718	2427
462.785	2888
462.786	2887
462.854	2561
462.865	2562
462.922	2662
462.945	2600
462.990	2800
463.025	2916
463.058	2913
463.104	3001
463.126	2912
463.184	2745
463.194	2801
463.262	2736
463.264	2750
463.330	2880
463.344	2875
463.398	3275
463.424	3376
463.466	3059
463.504	2959
463.533	3016
463.583	2849
463.601	2876
463.663	2980
463.669	2933
463.737	2620
463.743	2557
463.805	3220
463.823	3497
463.873	3724
463.903	3729
463.940	3352
463.982	3034
464.008	3132
464.062	3227
464.076	3270
464.142	3672
464.144	3660
464.211	2506
464.221	2421
464.279	2967
464.301	3059
464.347	3028
464.381	3098
464.414	3109
464.461	2857
464.482	2913
464.540	3387
464.550	3418
464.617	3209
464.620	3214
464.685	3962
464.699	3996
464.753	3770
464.779	3802
464.820	3835
464.859	3647
464.888	3267
464.938	2800
464.956	3022
465.018	3720
465.023	3736
465.091	3814
465.098	3810
465.158	3365
465.177	3274
465.226	3445
465.257	3470
465.293	3733
465.336	4022
465.361	4145
465.416	4376
465.428	4276
465.495	3739
465.496	3747
465.563	3619
465.575	3623
465.631	3425
465.654	3299
465.698	3604
465.734	3911
465.765	3741
465.813	3272
465.833	3700
465.893	5209
465.900	5062
465.968	3531
465.972	3413
466.035	3632
466.052	3698
466.102	3806
466.131	3873
466.170	3391
466.210	2867
466.237	3363
466.290	4312
466.304	4243
466.369	3816
466.372	3817
466.439	3626
466.449	3591
466.506	3899
466.528	3988
466.573	3490
466.607	3097
466.641	3692
466.687	4581
466.708	4525
466.766	4239
466.775	4302
466.842	4712
466.845	4720
466.909	4547
466.925	4502
466.977	4827
467.004	4967
467.044	5131
467.083	5286
467.111	5170
467.163	4897
467.178	4845
467.242	4588
467.245	4594
467.312	4503
467.321	4484
467.379	4570
467.400	4584
467.446	4808
467.480	4954
467.559	5178
467.638	4501
467.717	4418
467.796	5826
467.875	5534
467.955	4919
468.034	5727
468.113	6701
468.192	8438
468.271	9665
468.350	14179
468.429	21471
468.508	23077
468.588	14672
468.667	7746
468.746	6414
468.825	5933
468.904	5515
468.983	5366
469.062	4758
469.141	5820
469.220	4488
469.299	4557
469.378	3937
469.456	4995
469.535	4769
469.614	4208
469.693	4286
469.772	5716
469.851	5368
469.930	5302
470.009	5431
470.088	6719
470.166	9986
470.245	17237
470.324	21556
470.403	13678
470.482	8014
470.560	5526
470.639	4980
470.718	6349
470.797	4916
470.875	4846
470.954	4881
471.033	5666
471.111	5060
471.190	4336
471.269	5001
471.347	3952
471.426	4354
471.505	4270
471.583	4799
471.662	4773
471.740	5098
471.819	5560
471.898	4913
471.976	4717
472.055	4126
472.133	4425
472.212	5982
472.290	5515
472.369	4769
472.447	4458
472.526	4719
472.604	4507
472.683	5029
472.761	5851
472.839	5345
472.918	4648
472.996	6024
473.075	4429
473.153	5501
473.231	4866
473.310	5268
473.388	5208
473.466	5819
473.545	5528
473.623	6301
473.701	4904
473.780	6001
473.858	5001
473.936	7212
474.014	4976
474.093	5647
474.171	6249
474.249	6081
474.327	4979
474.405	5578
474.484	5873
474.562	4537
474.640	4746
474.718	4926
474.796	4243
474.874	5282
474.952	4501
475.030	4200
475.108	5034
475.187	6148
475.265	5181
475.343	6392
475.421	6740
475.499	5348
475.577	5853
475.655	5355
475.733	4918
475.811	4941
475.889	4896
475.966	4742
476.044	4493
476.122	5208
476.200	5213
476.278	4703
476.356	4341
476.434	4934
476.512	5581
476.590	5959
476.667	6054
476.745	5078
476.823	5415
476.901	5762
476.979	4260
477.056	5755
477.134	4509
477.212	5680
477.290	4790
477.367	5390
477.445	5137
477.523	5029
477.601	4786
477.678	5287
477.756	4843
477.834	5289
477.911	3616
477.989	4121
478.066	4656
478.144	5428
478.222	5219
478.299	6355
478.377	5777
478.454	4840
478.532	4743
478.609	4261
478.687	5457
478.764	4701
478.842	4340
478.919	4321
478.997	4884
479.074	4682
479.152	5222
479.229	4620
479.307	4587
479.384	4979
479.461	4729
479.539	5182
479.616	5142
479.694	5139
479.771	4122
479.848	4013
479.926	3457
480.003	5718
480.080	5074
480.157	4640
480.235	4223
480.312	4365
480.389	4622
480.467	4611
480.544	4870
480.621	7177
480.698	5976
480.775	5781
480.853	4260
480.930	5051
481.007	5122
481.084	5432
481.161	6022
481.238	5310
481.315	4990
481.392	5191
481.470	5697
481.547	5272
481.624	4491
481.701	5775
481.778	4642
481.855	5736
481.932	5674
482.009	6054
482.086	6439
482.163	7307
482.240	8766
482.317	10228
482.393	8186
482.470	7010
482.547	6252
482.624	5488
482.701	5162
482.778	6279
482.855	5148
482.932	5533
483.009	6083
483.085	7578
483.162	8036
483.239	8199
483.316	7751
483.393	8733
483.469	6937
483.546	6702
483.623	6126
483.699	5395
483.776	4696
483.853	5590
483.930	4847
484.006	4908
484.083	6016
484.160	5743
484.236	5683
484.313	5189
484.389	5381
484.466	7848
484.543	8289
484.619	11230
484.696	14003
484.772	8371
484.849	6410
484.925	6341
485.002	5750
485.078	6448
485.155	4391
485.231	5614
485.308	5090
485.384	5645
485.461	5683
485.537	5511
485.614	5117
485.690	5767
485.766	4529
485.843	5205
485.919	5000
485.995	5696
486.072	4715
486.148	4668
486.224	5487
486.301	4908
486.377	5110
486.453	4249
486.530	6133
486.606	6253
486.682	5964
486.758	6269
486.835	5891
486.911	5403
486.987	8085
487.063	7609
487.139	8808
487.215	9480
487.292	10293
487.368	11465
487.444	12249
487.520	18131
487.596	28170
487.672	73492
487.748	234279
487.824	342603
487.900	99536
487.976	25544
488.052	14491
488.128	11243
488.204	7208
488.280	8910
488.356	6806
488.432	7593
488.508	7051
488.584	5572
488.660	5513
488.736	5377
488.812	4726
488.888	5786
488.964	5891
489.039	5802
489.115	7658
489.191	6495
489.267	6074
489.343	5700
489.418	5301
489.494	5364
489.570	4293
489.646	6692
489.722	5375
489.797	4640
489.873	5161
489.949	5274
490.024	5778
490.100	5530
490.176	5170
490.251	5675
490.327	5287
490.403	6021
490.478	5509
490.554	5658
490.629	5603
490.705	5115
490.781	5335
490.856	4175
490.932	4621
491.007	4837
491.083	4065
491.158	5009
491.234	5344
491.309	5644
491.385	4838
491.460	4438
491.536	5116
491.611	4672
491.686	5147
491.762	5450
491.837	5417
491.913	7354
491.988	8686
492.063	7940
492.139	5683
492.214	4702
492.289	5595
492.365	4611
492.440	5238
492.515	4401
492.590	4841
492.666	5239
492.741	4999
492.816	5379
492.891	4658
492.967	5392
493.042	5262
493.117	4309
493.192	5697
493.267	6297
493.342	6962
493.418	7357
493.493	5122
493.568	6156
493.643	5283
493.718	6018
493.793	5660
493.868	6645
493.943	5328
494.018	5787
494.093	4121
494.168	6065
494.243	4587
494.318	5900
494.393	6061
494.468	5473
494.543	6042
494.618	5272
494.693	5528
494.768	6158
494.842	5206
494.917	6016
494.992	5670
495.067	5859
495.142	5464
495.217	5695
495.292	5505
495.366	5873
495.441	4687
495.516	6529
495.591	6035
495.665	8216
495.740	12381
495.815	8040
495.890	6179
495.964	4154
496.039	9287
496.114	6707
496.188	9027
496.263	8078
496.338	6242
496.412	6091
496.487	5717
496.561	6325
496.636	5577
496.710	6432
496.785	5825
496.860	6342
496.934	5333
497.009	6802
497.083	5927
497.158	6555
497.232	7201
497.307	7808
497.381	8427
497.455	8086
497.530	6798
497.604	6454
497.679	5572
497.753	7173
497.827	6230
497.902	5382
497.976	6772
498.050	7453
498.125	9810
498.199	9360
498.273	8021
498.348	7174
498.422	8381
498.496	9856
498.570	10078
498.645	6686
498.719	3400
498.793	5683
498.867	5810
498.941	5814
499.016	6803
499.090	8046
499.164	6611
499.238	7074
499.312	6873
499.386	8212
499.460	8733
499.534	9253
499.609	11878
499.683	8824
499.757	5045
499.831	4673
499.905	5999
499.979	5871
500.053	4948
500.127	6082
500.201	6415
500.275	7876
500.349	6847
500.422	7258
500.496	8793
500.570	10811
500.644	14393
500.718	14079
500.792	5540
500.866	4932
500.940	4150
501.013	4698
501.087	3452
501.161	4801
501.235	2945
501.309	6738
501.382	5051
501.456	6042
501.530	4800
501.603	3543
501.677	4234
501.751	1986
501.825	5025
501.898	4431
501.972	3540
502.046	3830
502.119	3422
502.193	5345
502.266	4024
502.340	4075
502.413	3608
502.487	3958
502.561	3046
502.634	4621
502.708	3691
502.781	3824
502.855	4796
502.928	3101
503.002	3895
503.075	3342
503.149	4427
503.222	4575
503.295	4247
503.369	4719
503.442	4041
503.516	6530
503.589	7551
503.662	8284
503.736	7422
503.809	10642
503.882	11435
503.956	20110
504.029	44522
504.102	135855
504.175	195346
504.249	65246
504.322	22424
504.395	12077
504.468	9490
504.542	6893
504.615	4870
504.688	6289
504.761	2947
504.834	6221
504.907	4660
504.980	4223
505.053	3589
505.127	1290
505.200	5779
505.273	3830
505.346	3275
505.419	2320
505.492	4286
505.565	2885
505.638	4187
505.711	2667
505.784	2747
505.857	2481
505.930	4632
506.003	2056
506.076	4907
506.149	3508
506.221	1174
506.294	4162
506.367	2291
506.440	4092
506.513	4122
506.586	2771
506.659	1843
506.731	3269
506.804	2123
506.877	2336
506.950	3726
507.022	4276
507.095	2003
507.168	3995
507.241	3854
507.313	3038
507.386	2301
507.459	3123
507.531	3408
507.604	2676
507.677	3533
507.749	2855
507.822	3963
507.894	1968
507.967	3824
508.040	2225
508.112	3479
508.185	3823
508.257	1844
508.330	4066
508.402	2631
508.475	2418
508.547	3806
508.620	3616
508.692	3154
508.765	3044
508.837	2251
508.909	3718
508.982	2159
509.054	3350
509.127	2613
509.199	2766
509.271	1801
509.344	3020
509.416	2416
509.488	2358
509.560	3776
509.633	2829
509.705	2038
509.777	3700
509.849	3784
509.922	2220
509.994	2747
510.066	3697
510.138	1131
510.210	5860
510.283	1973
510.355	3845
510.427	3686
510.499	3837
510.571	3314
510.643	2134
510.715	4150
510.787	1552
510.859	4622
510.931	2946
511.003	3451
511.076	4430
511.148	2669
511.219	1896
511.291	3753
511.363	3835
511.435	2742
511.507	2717
511.579	3696
511.651	4222
511.723	3798
511.795	3320
511.867	2851
511.939	3025
512.010	2575
512.082	3499
512.154	1910
512.226	2629
512.298	3796
512.369	3505
512.441	4017
512.513	3759
512.585	2054
512.656	3771
512.728	3104
512.800	2712
512.871	3618
512.943	3861
513.015	1135
513.086	3159
513.158	3766
513.230	1985
513.301	2798
513.373	3929
513.444	3646
513.516	3430
513.588	3124
513.659	3731
513.731	3148
513.802	2505
513.874	5148
513.945	4178
514.016	2609
514.088	3148
514.159	1586
514.231	3999
514.302	3772
514.374	3593
514.445	900
514.516	5704
514.588	2794
514.659	3408
514.730	2604
514.802	3783
514.873	1488
514.944	6156
515.016	4216
515.087	2299
515.158	3254
515.229	4726
515.301	2961
515.372	4914
515.443	2898
515.514	3227
515.585	2777
515.656	4221
515.728	5247
515.799	3409
515.870	4579
515.941	5242
516.012	3834
516.083	6565
516.154	4790
516.225	8067
516.296	9913
516.367	9296
516.438	11051
516.509	14355
516.580	25870
516.651	96948
516.722	300903
516.793	114307
516.864	21267
516.935	19831
517.006	22301
517.077	31611
517.148	77440
517.219	347012
517.289	455718
517.360	75955
517.431	20403
517.502	11910
517.573	12146
517.643	10637
517.714	9803
517.785	12088
517.856	10881
517.926	16481
517.997	19727
518.068	23717
518.138	34573
518.209	62448
518.280	236213
518.350	640250
518.421	283182
518.492	47525
518.562	28923
518.633	30509
518.703	38876
518.774	92452
518.845	247067
518.915	225800
518.986	57494
519.056	24888
519.127	16636
519.197	12473
519.268	9096
519.338	8473
519.408	6857
519.479	5019
519.549	4666
519.620	6763
519.690	4799
519.760	5052
519.831	4401
519.901	4432
519.971	4739
520.042	3815
520.112	3252
520.182	5458
520.253	4492
520.323	3780
520.393	2685
520.463	5547
520.534	1087
520.604	5632
520.674	4371
520.744	3444
520.814	3487
520.885	3988
520.955	3157
521.025	3974
521.095	2678
521.165	4845
521.235	3223
521.305	3379
521.375	3721
521.445	3670
521.515	3300
521.585	4457
521.655	2343
521.725	4088
521.795	3518
521.865	1345
521.935	5786
522.005	2752
522.075	3908
522.145	4586
522.215	2445
522.285	3464
522.355	3126
522.424	4464
522.494	3174
522.564	5002
522.634	4789
522.704	8049
522.774	2736
522.843	4718
522.913	4335
522.983	2820
523.053	2944
523.122	4205
523.192	4010
523.262	4975
523.331	3070
523.401	4433
523.471	3915
523.540	4881
523.610	2628
523.680	3843
523.749	4284
523.819	4075
523.888	3975
523.958	3442
524.027	4043
524.097	4375
524.166	4114
524.236	2742
524.305	5503
524.375	3228
524.444	2643
524.514	6099
524.583	3917
524.653	3297
524.722	4797
524.791	3420
524.861	5282
524.930	3196
524.999	4019
525.069	5212
525.138	4900
525.207	4335
525.277	5950
525.346	5528
525.415	6435
525.484	7405
525.554	7173
525.623	9523
525.692	11855
525.761	13804
525.830	17305
525.900	23085
525.969	37248
526.038	73475
526.107	160424
526.176	439649
526.245	326991
526.314	94946
526.383	219232
526.452	288240
526.522	406146
526.591	350709
526.660	55853
526.729	32347
526.797	36335
526.867	53051
526.935	169691
527.004	577565
527.073	355796
527.142	46359
527.211	20141
527.280	13496
527.349	10873
527.418	7173
527.487	9341
527.555	5559
527.624	6184
527.693	4668
527.762	5889
527.831	5041
527.899	6108
527.968	4944
528.037	4031
528.106	5746
528.174	6190
528.243	4888
528.312	5051
528.380	4287
528.449	3295
528.518	6814
528.586	2664
528.655	5535
528.723	4102
528.792	4453
528.861	4113
528.929	3215
528.998	5336
529.066	3993
529.135	4804
529.203	4086
529.272	4129
529.340	6054
529.409	6939
529.477	4684
529.545	4485
529.614	6763
529.682	3581
529.751	5216
529.819	8686
529.887	5820
529.956	5344
530.024	6210
530.092	5082
530.161	6153
530.229	5839
530.297	5632
530.365	6775
530.434	6730
530.502	5762
530.570	5867
530.638	4660
530.707	6625
530.775	7117
530.843	6267
530.911	5440
530.979	5934
531.047	5976
531.115	6335
531.183	5738
531.252	5930
531.320	5642
531.388	5044
531.456	7099
531.524	5227
531.592	7459
531.660	9046
531.728	5232
531.796	5855
531.864	6763
531.932	6278
532.000	6333
532.067	6541
532.135	7325
532.203	9036
532.271	7417
532.339	10288
532.407	9320
532.475	7924
532.542	8426
532.610	9606
532.678	7295
532.746	11655
532.814	15916
532.881	9261
532.949	9640
533.017	8378
533.084	7550
533.152	8022
533.220	7550
533.287	6659
533.355	7890
533.423	7767
533.490	7835
533.558	8737
533.625	8002
533.693	7932
533.761	9095
533.828	9762
533.896	6735
533.963	9446
534.031	10203
534.098	11803
534.166	12966
534.233	12560
534.300	13391
534.368	14313
534.435	12798
534.503	13165
534.570	15154
534.637	16439
534.705	17409
534.772	22066
534.840	45403
534.907	195144
534.974	229611
535.041	31256
535.109	15280
535.176	12790
535.243	12977
535.310	12575
535.378	11158
535.445	12014
535.512	12818
535.579	12433
535.646	10793
535.714	11884
535.781	12317
535.848	13204
535.915	13405
535.982	11729
536.049	11958
536.116	13446
536.183	11631
536.250	12241
536.317	11251
536.384	13074
536.451	13378
536.518	12504
536.585	11931
536.652	13408
536.719	13132
536.786	10952
536.853	12367
536.920	12630
536.987	13302
537.053	11848
537.120	16396
537.187	16955
537.254	13593
537.321	14158
537.388	15568
537.454	12389
537.521	13081
537.588	12486
537.654	14487
537.721	14468
537.788	15052
537.855	13424
537.921	13668
537.988	13500
538.055	13376
538.121	11583
538.188	11977
538.254	11376
538.321	12464
538.388	13949
538.454	14833
538.521	15686
538.587	14669
538.654	14368
538.720	13942
538.787	13891
538.853	14542
538.920	13139
538.986	12538
539.053	12803
539.119	13025
539.185	13442
539.252	14235
539.318	14318
539.385	16259
539.451	12985
539.517	14461
539.583	13296
539.650	13546
539.716	16197
539.782	13488
539.849	12697
539.915	14200
539.981	12975
540.047	11839
540.114	13698
540.180	14611
540.246	14299
540.312	15593
540.378	13604
540.444	15382
540.510	15202
540.576	17757
540.643	13537
540.709	12567
540.775	13982
540.841	11956
540.907	13893
540.973	14034
541.039	13364
541.105	14756
541.171	15263
541.237	15095
541.303	15156
541.369	16864
541.435	15786
541.500	13855
541.566	12343
541.632	13361
541.698	12843
541.764	14432
541.830	14338
541.896	13282
541.961	14480
542.027	12652
542.093	14672
542.159	15438
542.224	13314
542.290	15266
542.356	13513
542.421	14055
542.487	14927
542.553	11976
542.618	13814
542.684	13450
542.750	13171
542.815	14294
542.881	13756
542.947	17116
543.012	17014
543.078	13610
543.143	13147
543.209	13866
543.274	12718
543.340	14596
543.405	14703
543.471	14763
543.536	14079
543.602	15075
543.667	13883
543.732	15029
543.798	13644
543.863	15252
543.928	14542
543.994	13788
544.059	14680
544.124	15648
544.190	15042
544.255	16011
544.320	15873
544.386	14058
544.451	16525
544.516	15605
544.581	15652
544.646	17219
544.712	19463
544.777	16700
544.842	17102
544.907	15694
544.972	16880
545.037	16235
545.102	17629
545.168	16603
545.233	18320
545.298	18646
545.363	17992
545.428	18703
545.493	20001
545.558	19881
545.623	19731
545.688	19360
545.753	20574
545.818	20891
545.883	23185
545.947	22217
546.012	24015
546.077	23449
546.142	26799
546.207	26877
546.272	28302
546.337	27802
546.401	30207
546.466	30744
546.531	31438
546.596	35450
546.661	36390
546.725	38430
546.790	41214
546.855	45736
546.919	47016
546.984	54360
547.049	58013
547.113	66178
547.178	73716
547.243	84633
547.307	97746
547.372	107118
547.436	107119
547.501	113019
547.565	122949
547.630	112105
547.695	107026
547.759	108056
547.823	110251
547.888	111593
547.952	115837
548.017	117960
548.081	121733
548.146	117915
548.210	124353
548.274	134175
548.339	131441
548.403	119449
548.468	112636
548.532	111905
548.596	113331
548.660	114621
548.725	126077
548.789	137107
548.853	130157
548.917	126680
548.982	121254
549.046	109929
549.110	98512
549.174	103574
549.238	121661
549.303	132716
549.367	137384
549.431	130578
549.495	120857
549.559	119955
549.623	141566
549.687	154769
549.751	150265
549.815	179201
549.879	179626
549.943	173283
550.007	183883
550.071	179146
550.135	162227
550.199	154017
550.263	153051
550.327	143448
550.391	146200
550.455	164521
550.519	172743
550.582	183191
550.646	205865
550.710	207281
550.774	204091
550.838	206818
550.901	212576
550.965	224172
551.029	230273
551.093	242819
551.156	257847
551.220	275634
551.284	299472
551.347	249753
551.411	217141
551.475	212949
551.538	223669
551.602	207913
551.666	199148
551.729	187576
551.793	184860
551.856	181747
551.920	179616
551.983	179410
552.047	175169
552.110	177949
552.174	178161
552.237	184392
552.301	173082
552.364	166042
552.428	161414
552.491	165520
552.554	167620
552.618	166764
552.681	173690
552.745	167517
552.808	186416
552.871	204234
552.934	184763
552.998	171829
553.061	166576
553.124	159590
553.187	160074
553.251	162982
553.314	164403
553.377	165431
553.440	174529
553.503	180340
553.567	179400
553.630	179062
553.693	178320
553.756	177350
553.819	178345
553.882	171183
553.945	171417
554.008	171017
554.071	173959
554.134	175208
554.197	165225
554.260	163949
554.323	164829
554.386	167930
554.449	173449
554.512	172416
554.575	165332
554.638	162461
554.701	163446
554.764	163248
554.827	155496
554.889	153686
554.952	145388
555.015	140496
555.078	143491
555.141	144379
555.203	141444
555.266	140808
555.329	139872
555.391	133873
555.454	131513
555.517	127792
555.580	122051
555.642	117851
555.705	119004
555.768	113644
555.830	111977
555.893	106388
555.955	103855
556.018	101825
556.080	102321
556.143	103787
556.206	103142
556.268	100409
556.330	98587
556.393	95929
556.455	92636
556.518	90232
556.580	88749
556.643	83692
556.705	83572
556.767	79550
556.830	80732
556.892	78369
556.955	78383
557.017	74551
557.079	75191
557.142	71956
557.204	70351
557.266	69863
557.328	66718
557.391	61321
557.453	59784
557.515	60803
557.577	61656
557.639	61609
557.701	60421
557.764	59298
557.826	60514
557.888	61302
557.950	63329
558.012	65863
558.074	80987
558.136	153866
558.198	317091
558.260	123526
558.322	60646
558.384	60750
558.446	62561
558.508	65972
558.570	70301
558.632	77385
558.694	96871
558.756	155001
558.818	396152
558.880	747260
558.942	329342
559.003	331134
559.065	161007
559.127	70795
559.189	67852
559.251	75254
559.312	102938
559.374	222464
559.436	584198
559.498	293686
559.559	77327
559.621	67350
559.683	75819
559.744	119164
559.806	332232
559.868	447337
559.929	108770
559.991	72719
560.052	118308
560.114	303277
560.176	189238
560.237	181874
560.299	269406
560.360	65213
560.422	32886
560.483	29650
560.545	27429
560.606	26356
560.667	25698
560.729	24089
560.790	23719
560.852	22635
560.913	22698
560.974	22513
561.036	22300
561.097	21776
561.158	21263
561.220	21033
561.281	20303
561.342	18934
561.403	20262
561.465	19704
561.526	20140
561.587	20965
561.648	18430
561.709	18430
561.771	18669
561.832	17903
561.893	17899
561.954	17719
562.015	17447
562.076	17421
562.137	16698
562.198	17302
562.259	17604
562.320	17149
562.381	16524
562.442	16879
562.503	17373
562.564	15534
562.625	15612
562.686	14794
562.747	15438
562.808	14628
562.869	15297
562.930	15030
562.991	14341
563.051	14973
563.112	15541
563.173	14452
563.234	13148
563.294	13831
563.355	13585
563.416	14625
563.477	14050
563.537	13142
563.598	13716
563.659	13218
563.720	12679
563.780	13412
563.841	12139
563.901	13171
563.962	12852
564.023	12936
564.083	13369
564.144	12561
564.204	12932
564.265	12539
564.325	12750
564.386	13451
564.446	12872
564.507	12762
564.567	12224
564.628	12097
564.688	12924
564.749	11690
564.809	13140
564.869	11726
564.930	11452
564.990	12693
565.050	11950
565.111	12639
565.171	11168
565.231	11803
565.292	12919
565.352	12408
565.412	12193
565.472	11296
565.532	11325
565.593	12019
565.653	11184
565.713	11758
565.773	12386
565.833	12325
565.893	13792
565.953	10762
566.013	11217
566.074	11839
566.134	11606
566.194	10465
566.254	11211
566.314	11028
566.374	10367
566.434	10094
566.494	10648
566.554	10868
566.614	11461
566.673	11399
566.733	12065
566.793	12410
566.853	11748
566.913	11403
566.973	11621
567.033	11386
567.092	11614
567.152	11150
567.212	12359
567.272	11813
567.331	11845
567.391	12736
567.451	12563
567.511	12111
567.570	12725
567.630	11241
567.690	11685
567.749	11480
567.809	11363
567.868	11458
567.928	11288
567.988	10770
568.047	12182
568.107	11818
568.166	11592
568.226	12813
568.285	12254
568.345	12317
568.404	12240
568.464	11120
568.523	11692
568.582	12670
568.642	12048
568.701	10908
568.761	11509
568.820	11155
568.879	12120
568.939	11501
568.998	11303
569.057	11336
569.116	11601
569.176	11878
569.235	11129
569.294	11798
569.353	10925
569.413	10891
569.472	10685
569.531	9936
569.590	9903
569.649	9904
569.708	10968
569.767	11109
569.827	10870
569.886	9955
569.945	10559
570.004	10923
570.063	11686
570.122	11652
570.181	11665
570.240	10377
570.299	12491
570.358	11633
570.417	12251
570.475	12168
570.534	13262
570.593	11528
570.652	12014
570.711	11339
570.770	11496
570.829	11862
570.887	10995
570.946	11818
571.005	11495
571.064	11765
571.122	13911
571.181	11622
571.240	11437
571.299	10906
571.357	11200
571.416	11686
571.475	10613
571.533	11312
571.592	11880
571.650	11693
571.709	11867
571.768	14208
571.826	13350
571.885	12718
571.943	11625
572.002	11712
572.060	11845
572.119	11279
572.177	11443
572.236	12125
572.294	11696
572.352	11791
572.411	12530
572.469	10636
572.528	11245
572.586	10516
572.644	11083
572.703	11296
572.761	10202
572.819	10505
572.877	10635
572.936	9937
572.994	10504
573.052	9499
573.110	10188
573.169	10196
573.227	10566
573.285	10255
573.343	10344
573.401	9869
573.459	10094
573.517	10627
573.576	9976
573.634	10791
573.692	10512
573.750	9539
573.808	9809
573.866	9343
573.924	9534
573.982	8982
574.040	10569
574.098	8965
574.155	8968
574.213	8790
574.271	9908
574.329	10121
574.387	9220
574.445	8043
574.503	9172
574.560	8252
574.618	8383
574.676	9050
574.734	9350
574.792	8852
574.849	8118
574.907	7288
574.965	7320
575.022	7110
575.080	6993
575.138	7328
575.195	6914
575.253	6740
575.311	6857
575.368	7152
575.426	6695
575.483	7452
575.541	7754
575.598	7446
575.656	6895
575.713	7206
575.771	8560
575.828	7127
575.886	7705
575.943	7295
576.001	6661
576.058	6306
576.115	6485
576.173	6701
576.230	6699
576.287	7563
576.345	7644
576.402	7809
576.459	7271
576.517	6516
576.574	6416
576.631	6435
576.688	5972
576.746	6738
576.803	5879
576.860	6046
576.917	6586
576.974	6379
577.031	7247
577.089	6517
577.146	5720
577.203	5996
577.260	7349
577.317	6706
577.374	6175
577.431	6337
577.488	6096
577.545	6399
577.602	6200
577.659	6939
577.716	6147
577.773	6917
577.830	5732
577.886	6323
577.943	6455
578.000	6509
578.057	5827
578.114	6185
578.171	6667
578.227	6357
578.284	5806
578.341	5658
578.398	6886
578.454	5978
578.511	6755
578.568	5953
578.625	6176
578.681	5469
578.738	6135
578.794	6229
578.851	6096
578.908	6164
578.964	6895
579.021	7022
579.077	5954
579.134	5865
579.190	6125
579.247	7346
579.303	6061
579.360	5533
579.416	6505
579.473	6255
579.529	5820
579.586	6886
579.642	6736
579.698	6605
579.755	6788
579.811	5700
579.867	6405
579.924	6469
579.980	6167
580.036	6590
580.093	6194
580.149	6690
580.205	6885
580.261	6893
580.317	6847
580.374	6549
580.430	7048
580.486	6527
580.542	6647
580.598	7349
580.619	7198
580.654	6943
580.692	6795
580.710	6731
580.765	7093
580.767	7110
580.823	7826
580.838	7748
580.879	7571
580.911	6763
580.935	6167
580.984	6823
580.991	6925
581.047	7848
581.057	7884
581.103	8085
581.130	7471
581.159	6833
581.203	6913
581.215	6945
581.270	6277
581.276	6340
581.326	6978
581.349	6668
581.382	6233
581.422	6667
581.438	6849
581.494	6984
581.494	6975
581.550	6536
581.567	6612
581.606	6723
581.640	7068
581.661	7304
581.713	7270
581.717	7273
581.773	6599
581.786	6707
581.829	7099
581.859	7279
581.885	7382
581.932	7280
581.940	7292
581.996	6995
582.004	6978
582.052	6765
582.077	6926
582.107	7117
582.150	6832
582.163	6761
582.219	6546
582.223	6515
582.274	6374
582.296	6477
582.330	6490
582.368	6077
582.386	5945
582.441	7322
582.441	7324
582.497	6755
582.514	6656
582.552	6769
582.587	7014
582.608	7071
582.659	6697
582.663	6676
582.719	7436
582.732	7341
582.774	7037
582.805	6776
582.830	6578
582.877	7018
582.885	7082
582.941	7196
582.950	7163
582.996	6891
583.023	6710
583.052	6728
583.095	7530
583.107	7671
583.162	6158
583.168	6294
583.218	7532
583.240	6969
583.273	6145
583.313	6774
583.328	7108
583.384	7147
583.385	7133
583.439	6412
583.458	6493
583.494	6697
583.531	7559
583.549	7961
583.603	6614
583.605	6577
583.660	6529
583.676	6757
583.715	7305
583.748	7202
583.770	7121
583.820	6947
583.825	6928
583.881	6923
583.893	6900
583.936	6807
583.965	6918
583.991	7046
584.038	6745
584.046	6699
584.101	7039
584.110	7031
584.156	6842
584.183	7154
584.211	7481
584.255	7231
584.266	7228
584.321	7745
584.328	7698
584.376	7173
584.400	7348
584.431	7554
584.472	7915
584.486	8037
584.541	7428
584.545	7476
584.596	8103
584.617	8102
584.651	8502
584.689	9164
584.706	9267
584.761	9224
584.762	9225
584.816	9539
584.834	9876
584.871	10506
584.906	10329
584.926	10167
584.978	10299
584.980	10321
585.035	12051
585.051	12215
585.090	12692
585.123	14031
585.145	14916
585.195	16137
585.200	16314
585.254	18604
585.267	19487
585.309	22403
585.340	24147
585.364	25911
585.412	30548
585.419	31335
585.473	39641
585.484	42020
585.528	56011
585.556	69667
585.583	97112
585.628	160879
585.637	184268
585.692	380498
585.700	411208
585.747	504149
585.772	433401
585.801	271279
585.845	96072
585.856	75958
585.910	37514
585.917	33739
585.965	25546
585.989	22317
586.019	19848
586.061	17692
586.074	17280
586.128	16101
586.133	15928
586.183	14843
586.205	15053
586.237	15258
586.277	14889
586.292	14770
586.346	14113
586.349	14119
586.401	14393
586.421	14266
586.455	14183
586.493	14382
586.509	14551
586.564	14086
586.565	14112
586.618	16020
586.637	16457
586.672	18287
586.709	21388
586.727	22620
586.781	24825
586.781	24826
586.835	18198
586.853	16896
586.889	15742
586.925	14579
586.944	14291
586.996	14116
586.998	14119
587.052	14430
587.068	14370
587.106	14831
587.140	15198
587.161	15089
587.212	14936
587.215	14936
587.269	14741
587.284	14700
587.323	15056
587.356	15700
587.377	15985
587.427	15996
587.431	15999
587.485	16450
587.499	16472
587.539	16659
587.571	17015
587.593	17549
587.643	18468
587.648	18522
587.702	18546
587.715	18807
587.755	19355
587.786	19419
587.810	19330
587.858	18741
587.864	18753
587.917	19229
587.930	19311
587.971	19283
588.001	19235
588.025	19473
588.073	19752
588.079	19745
588.133	20162
588.145	20167
588.187	20211
588.217	20120
588.241	20489
588.288	22016
588.295	22123
588.348	22208
588.360	22173
588.402	22664
588.431	23335
588.456	23889
588.503	24706
588.510	24919
588.564	26858
588.575	27320
588.617	29125
588.646	30543
588.671	32078
588.718	34743
588.725	35431
588.778	43064
588.789	45096
588.832	68535
588.861	86974
588.886	128114
588.932	219392
588.939	227839
588.993	282742
589.004	281301
589.047	149047
589.075	73013
589.100	55760
589.147	34980
589.154	34367
589.207	31401
589.218	30810
589.261	30762
589.290	31235
589.314	32722
589.361	36226
589.368	37566
589.421	50013
589.433	53307
589.475	93878
589.504	125946
589.528	167516
589.576	254155
589.582	245828
589.635	122756
589.647	98531
589.689	54745
589.718	29991
589.742	27915
589.790	24473
589.795	24319
589.849	22980
589.861	22689
589.902	22505
589.932	22302
589.955	22187
590.004	22084
590.009	22081
590.062	21893
590.075	21842
590.115	21654
590.146	21527
590.168	21589
590.218	21359
590.222	21375
590.275	21839
590.289	21867
590.328	22889
590.360	23788
590.381	23724
590.431	23485
590.435	23508
590.488	23523
590.503	23496
590.541	23209
590.574	23088
590.594	23553
590.645	24676
590.647	24727
590.700	25450
590.716	25709
590.753	26282
590.787	26735
590.806	27058
590.859	28024
590.859	28045
590.912	27911
590.930	27924
590.965	27588
591.001	27176
591.018	27414
591.071	28027
591.072	28012
591.124	27355
591.143	27106
591.177	27730
591.214	28491
591.230	28635
591.283	28928
591.285	28910
591.336	28698
591.356	28632
591.389	28380
591.427	28008
591.442	28008
591.495	27873
591.498	27842
591.547	28450
591.569	28808
591.600	28881
591.640	28695
591.653	29032
591.706	30401
591.711	30534
591.759	30788
591.782	30838
591.811	31420
591.853	32266
591.864	32317
591.917	32382
591.924	32359
591.969	31995
591.995	31722
592.022	32460
592.066	33751
592.075	33844
592.127	34141
592.137	34164
592.180	34875
592.208	35296
592.233	35313
592.279	35286
592.285	35531
592.338	37362
592.350	37732
592.390	37381
592.421	37076
592.443	37291
592.491	37676
592.495	37810
592.548	39238
592.562	39598
592.600	38840
592.633	38136
592.653	38177
592.704	38007
592.705	38262
592.775	40219
592.846	40347
592.916	40742
592.987	40793
593.058	42565
593.128	41773
593.199	43058
593.270	42271
593.341	43812
593.411	45075
593.482	46419
593.553	48637
593.623	49650
593.694	50260
593.764	50698
593.835	50472
593.906	50616
593.976	52949
594.047	53132
594.117	56109
594.188	56684
594.258	56872
594.329	56197
594.399	58225
594.470	61044
594.540	63161
594.611	65194
594.681	63462
594.751	63435
594.822	65379
594.892	67503
594.963	70558
595.033	72724
595.103	74946
595.174	74775
595.244	76890
595.314	80697
595.384	80637
595.455	83172
595.525	86640
595.595	90658
595.665	89078
595.736	87457
595.806	90887
595.876	90856
595.946	91290
596.016	96158
596.087	99123
596.157	99365
596.227	99399
596.297	105628
596.367	111876
596.437	117571
596.507	117618
596.577	117471
596.647	120700
596.717	127373
596.787	130145
596.857	130225
596.927	130723
596.997	131098
597.067	132772
597.137	134465
597.207	135265
597.277	134999
597.347	130372
597.417	124986
597.487	126160
597.557	129879
597.626	132178
597.696	135207
597.766	132364
597.836	124785
597.906	119138
597.975	117018
598.045	118771
598.115	123991
598.185	134618
598.254	148891
598.324	161889
598.394	164055
598.464	158501
598.533	156297
598.603	144718
598.672	140834
598.742	144778
598.812	144795
598.881	149898
598.951	149143
599.020	151682
599.090	157349
599.159	158459
599.229	152691
599.299	150800
599.368	153639
599.437	152048
599.507	138920
599.576	134093
599.646	129693
599.715	128731
599.785	128242
599.854	123861
599.924	122807
599.993	122625
600.062	127080
600.132	129566
600.201	136905
600.270	160674
600.340	167739
600.409	163649
600.478	162313
600.547	166616
600.617	150069
600.686	118303
600.755	107457
600.824	101934
600.894	98800
600.963	101662
601.032	97866
601.101	94897
601.170	90249
601.239	87872
601.308	86477
601.378	87541
601.447	88814
601.516	88086
601.585	89319
601.654	89828
601.723	90920
601.792	94097
601.861	95371
601.930	99985
601.999	100459
602.068	100878
602.137	102044
602.206	103957
602.275	105027
602.343	104994
602.412	106015
602.481	108558
602.550	109112
602.619	112430
602.688	112637
602.756	114605
602.825	116136
602.894	118067
602.963	121668
603.032	123698
603.100	124906
603.169	123627
603.238	124022
603.307	125601
603.375	128655
603.444	129436
603.513	131678
603.581	132530
603.650	135683
603.719	131959
603.787	136113
603.856	138987
603.924	144070
603.993	148838
604.061	154182
604.130	162426
604.198	165257
604.267	167668
604.335	168782
604.404	172667
604.472	174239
604.541	176807
604.609	178695
604.678	178128
604.746	179524
604.815	184746
604.883	186920
604.951	188081
605.020	191897
605.088	194646
605.156	199413
605.225	200516
605.293	201399
605.361	202077
605.429	204209
605.498	210276
605.566	214537
605.634	225879
605.702	235665
605.771	239233
605.839	240752
605.907	234923
605.975	227681
606.043	220852
606.111	223790
606.180	222438
606.248	219733
606.316	219042
606.384	217978
606.452	217092
606.520	224269
606.588	233005
606.656	234626
606.724	228242
606.792	216069
606.860	194923
606.928	177397
606.996	171786
607.064	168414
607.132	172947
607.200	184215
607.267	188741
607.335	192365
607.403	198631
607.471	192450
607.539	184141
607.607	185903
607.674	164708
607.742	163309
607.810	160427
607.878	163362
607.946	166100
608.013	176785
608.081	177986
608.149	179478
608.216	185926
608.284	191960
608.352	193152
608.419	189705
608.487	185428
608.555	184065
608.622	188133
608.690	201925
608.757	221120
608.825	225470
608.893	217705
608.960	204829
609.028	197891
609.095	197546
609.163	195549
609.230	174150
609.298	161851
609.365	172124
609.432	184662
609.500	201714
609.567	227287
609.635	260584
609.702	272432
609.769	259746
609.837	200149
609.904	174895
609.971	182649
610.039	199653
610.106	247379
610.173	423557
610.241	843314
610.308	485905
610.375	220641
610.442	192023
610.509	181348
610.577	184109
610.644	186463
610.711	191227
610.778	195676
610.845	205729
610.912	218027
610.980	224869
611.047	223794
611.114	220162
611.181	213339
611.248	215145
611.315	224872
611.382	231397
611.449	240994
611.516	243126
611.583	239193
611.650	240706
611.717	244018
611.784	248852
611.851	259793
611.918	273057
611.984	307882
612.051	396512
612.118	666921
612.185	1256017
612.252	866356
612.319	369932
612.386	314443
612.452	289327
612.519	274708
612.586	268939
612.653	274385
612.719	282695
612.786	270135
612.853	252808
612.919	247812
612.986	253448
613.053	236359
613.120	222682
613.186	217267
613.253	218291
613.319	217608
613.386	219949
613.453	222329
613.519	224451
613.586	218419
613.652	224191
613.719	220723
613.785	223085
613.852	226261
613.918	223327
613.985	228037
614.051	236970
614.118	232359
614.184	220907
614.250	223617
614.317	228991
614.383	224538
614.449	228885
614.516	228116
614.582	229816
614.648	223036
614.715	224312
614.781	217265
614.847	219222
614.914	217135
614.980	210441
615.046	213395
615.112	219320
615.179	219139
615.245	224212
615.311	219627
615.377	221858
615.443	225383
615.509	228681
615.575	236147
615.642	233524
615.708	239048
615.774	250622
615.840	261238
615.906	275212
615.972	320394
616.038	438532
616.104	780886
616.170	1372149
616.236	1147708
616.302	496124
616.368	399724
616.434	302662
616.500	279562
616.565	310227
616.631	383125
616.697	314161
616.763	324790
616.829	471639
616.895	779582
616.961	710138
617.026	339492
617.092	251503
617.158	238992
617.224	230823
617.289	215181
617.355	205558
617.421	202205
617.487	204546
617.552	192067
617.618	191022
617.684	189987
617.749	191620
617.815	184609
617.880	181280
617.946	178903
618.012	185785
618.077	187994
618.143	180143
618.208	182118
618.274	195294
618.339	195876
618.405	161200
618.470	162496
618.536	161649
618.601	158109
618.667	148245
618.732	142577
618.798	139914
618.863	140891
618.928	139861
618.994	140548
619.059	140797
619.124	141756
619.190	140155
619.255	138668
619.320	139329
619.386	140062
619.451	137584
619.516	134729
619.581	136774
619.647	139108
619.712	139078
619.777	134404
619.842	134044
619.907	138179
619.972	140119
620.038	137606
620.103	135049
620.168	136985
620.233	139065
620.298	139307
620.363	140364
620.428	144191
620.493	147314
620.558	150146
620.623	150775
620.688	150878
620.753	148771
620.818	152828
620.883	152920
620.948	153295
621.013	150118
621.078	147395
621.143	148091
621.207	152535
621.272	146774
621.337	143366
621.402	142909
621.467	140909
621.532	140806
621.596	141749
621.661	136941
621.726	135857
621.791	139213
621.855	138075
621.920	138425
621.985	140179
622.049	142368
622.114	142229
622.179	144693
622.243	147774
622.308	151588
622.373	157899
622.437	152844
622.502	145314
622.566	143076
622.631	143442
622.695	147403
622.760	145982
622.824	145504
622.889	145870
622.953	144526
623.018	154373
623.082	155998
623.147	153734
623.211	150050
623.276	149417
623.340	144166
623.404	141265
623.469	142305
623.533	143657
623.597	137686
623.662	139073
623.726	128995
623.790	122663
623.854	119716
623.919	120325
623.983	122845
624.047	126189
624.111	125473
624.176	127547
624.240	127972
624.304	131048
624.368	129536
624.432	129258
624.496	130298
624.560	137211
624.625	136451
624.689	135978
624.753	142986
624.817	135988
624.881	133540
624.945	120156
625.009	117099
625.073	121811
625.137	122434
625.201	127366
625.265	128265
625.329	125003
625.393	123576
625.456	126000
625.520	129244
625.584	131063
625.648	133541
625.712	135522
625.776	133161
625.839	126773
625.903	109038
625.967	100798
626.031	109155
626.095	128065
626.158	117541
626.222	93608
626.286	89818
626.349	85029
626.413	79953
626.477	78514
626.540	79498
626.604	78030
626.668	78120
626.731	76020
626.795	76834
626.858	77480
626.922	75633
626.986	75568
627.049	74569
627.113	78165
627.176	75762
627.240	72205
627.303	72306
627.366	71568
627.430	73128
627.493	71508
627.557	70215
627.620	73406
627.684	76045
627.747	76893
627.810	67025
627.874	63149
627.937	58935
628.000	62894
628.064	60974
628.127	53103
628.190	53298
628.253	52043
628.317	49239
628.380	48651
628.443	45495
628.506	45563
628.569	44734
628.632	41125
628.696	42615
628.759	41989
628.822	39755
628.885	39361
628.948	38759
629.011	38029
629.074	37067
629.137	34875
629.200	34345
629.263	35525
629.326	32776
629.389	33294
629.452	33129
629.515	32141
629.578	32162
629.641	32626
629.704	32962
629.767	32642
629.830	30296
629.892	30419
629.955	30819
630.018	32055
630.081	30438
630.144	31962
630.207	28578
630.269	31359
630.332	29748
630.395	27979
630.458	28270
630.520	26013
630.583	28602
630.646	29361
630.708	28281
630.771	28562
630.834	31610
630.896	30706
630.959	30278
631.021	28116
631.084	29349
631.146	29525
631.209	29866
631.272	29626
631.334	30139
631.397	30470
631.459	30407
631.522	32560
631.584	32311
631.646	36438
631.709	37548
631.771	37026
631.834	35801
631.896	34566
631.958	30909
632.021	30716
632.083	29142
632.145	28109
632.208	28291
632.270	28290
632.332	26816
632.395	26593
632.457	28237
632.519	26744
632.581	27722
632.643	25390
632.706	27916
632.768	25279
632.830	27379
632.892	28134
632.954	27175
633.016	29004
633.078	27066
633.141	27524
633.203	27335
633.265	28097
633.327	26741
633.389	26724
633.451	27400
633.513	26889
633.575	28699
633.637	26821
633.698	28357
633.760	31351
633.822	31325
633.884	31659
633.946	32353
634.008	33086
634.070	35236
634.132	37380
634.193	40943
634.255	45453
634.317	45954
634.379	44850
634.441	38984
634.502	35874
634.564	32941
634.626	30002
634.687	29335
634.749	27706
634.811	27583
634.873	26243
634.934	26501
634.996	27960
635.057	27128
635.119	26545
635.181	29588
635.242	28555
635.304	26032
635.365	29346
635.427	28003
635.488	27356
635.550	27047
635.611	27966
635.673	26924
635.734	31658
635.796	32651
635.857	36967
635.918	37509
635.980	44213
636.041	45737
636.102	50430
636.164	49213
636.225	46609
636.286	39217
636.348	36434
636.409	31213
636.470	28707
636.531	28556
636.593	27022
636.654	25787
636.715	26031
636.776	25132
636.838	23885
636.899	23769
636.960	21820
637.021	23036
637.082	22268
637.143	22693
637.204	21734
637.265	21115
637.326	22475
637.387	23836
637.448	21246
637.509	22286
637.570	22929
637.631	23481
637.692	20074
637.753	19564
637.814	21683
637.875	21584
637.936	22044
637.997	20856
638.058	19452
638.119	20754
638.179	21465
638.240	20274
638.301	20815
638.362	19193
638.423	18538
638.483	19985
638.544	18069
638.605	19139
638.666	18841
638.726	19362
638.787	19824
638.848	18719
638.908	18142
638.969	18313
639.030	17375
639.090	16687
639.151	18243
639.211	19202
639.272	18917
639.332	19349
639.393	19883
639.453	20812
639.514	21620
639.574	18970
639.635	17002
639.695	18620
639.756	16647
639.816	16942
639.877	17403
639.937	18629
639.997	16963
640.058	15741
640.118	15822
640.178	18260
640.239	16593
640.299	17133
640.359	17995
640.420	19695
640.480	22031
640.540	25153
640.600	24055
640.661	21346
640.721	19336
640.781	20525
640.841	17152
640.901	18047
640.961	18197
641.021	19250
641.082	18862
641.142	17770
641.202	17552
641.262	14954
641.322	17416
641.382	15028
641.442	16510
641.502	15799
641.562	17085
641.622	16807
641.682	18798
641.742	21554
641.802	19137
641.861	17244
641.921	15639
641.981	15731
642.041	15310
642.101	15298
642.161	14603
642.221	14751
642.280	14873
642.340	14878
642.400	15214
642.460	15691
642.519	15379
642.579	15672
642.639	17137
642.698	14150
642.758	18481
642.818	16087
642.877	15366
642.937	16259
642.997	15548
643.056	15821
643.116	14571
643.175	17998
643.235	16794
643.294	17768
643.354	18451
643.414	20991
643.473	23903
643.532	28905
643.592	37662
643.651	58039
643.711	97092
643.770	183566
643.830	420960
643.889	736116
643.948	213523
644.008	52679
644.067	31706
644.126	24376
644.186	21135
644.245	19978
644.304	16736
644.363	18497
644.423	15577
644.482	17308
644.541	19156
644.600	18105
644.659	23808
644.719	29587
644.778	44740
644.837	76168
644.896	157852
644.955	332808
645.014	107052
645.073	28422
645.132	21510
645.191	19442
645.250	18624
645.309	20621
645.368	22515
645.427	31969
645.486	53651
645.545	90186
645.604	26381
645.663	18424
645.722	17350
645.781	19140
645.840	21254
645.898	25790
645.957	36899
646.016	53711
646.075	93134
646.134	174972
646.192	444932
646.251	566092
646.310	110483
646.369	38424
646.427	31867
646.486	23238
646.545	19111
646.603	18325
646.662	16126
646.721	15909
646.779	14977
646.838	17687
646.896	21109
646.955	28883
647.014	46395
647.072	89643
647.131	239857
647.189	103510
647.248	18808
647.306	14725
647.365	13655
647.423	11149
647.481	13838
647.540	9724
647.598	11438
647.657	11062
647.715	11178
647.773	10421
647.832	11910
647.890	9502
647.948	10171
648.007	9766
648.065	8489
648.123	8419
648.181	10523
648.240	10004
648.298	7841
648.356	8700
648.414	9687
648.472	9359
648.531	9942
648.589	8472
648.647	8214
648.705	8711
648.763	9238
648.821	9717
648.879	10542
648.937	11092
648.995	14685
649.053	18247
649.111	26335
649.169	44946
649.227	79121
649.285	165954
649.343	433102
649.401	194114
649.459	30172
649.516	17687
649.574	13325
649.632	15539
649.690	16960
649.748	21716
649.806	30827
649.863	61921
649.921	174862
649.979	105549
650.037	15917
650.094	8417
650.152	8402
650.210	6970
650.268	7183
650.325	7297
650.383	7260
650.440	5759
650.498	6459
650.556	6621
650.613	6109
650.671	6551
650.728	6969
650.786	7365
650.843	9952
650.901	6385
650.958	6764
651.016	5389
651.073	5477
651.131	5473
651.188	4143
651.246	5384
651.303	3787
651.360	4889
651.418	4898
651.475	5187
651.532	4699
651.590	5691
651.647	3847
651.704	3936
651.762	4295
651.819	5035
651.876	3827
651.933	3576
651.990	5349
652.048	2648
652.105	3126
652.162	4152
652.219	3278
652.276	3679
652.333	4277
652.390	2807
652.448	3471
652.505	3983
652.562	4049
652.619	3394
652.676	3685
652.733	4388
652.790	3079
652.847	2815
652.904	3299
652.961	2991
653.017	3089
653.074	3666
653.131	2918
653.188	2545
653.245	1915
653.302	3289
653.359	3123
653.415	3953
653.472	2099
653.529	3265
653.586	2736
653.642	2807
653.699	4617
653.756	2818
653.813	2969
653.869	4421
653.926	2897
653.983	2499
654.039	3270
654.096	3100
654.152	4626
654.209	1540
654.266	3927
654.322	2351
654.379	3286
654.435	4296
654.492	2334
654.548	2675
654.605	1773
654.661	4152
654.717	3381
654.774	3060
654.830	2958
654.887	2874
654.943	2461
655.000	3030
655.056	2937
655.112	2844
655.168	3042
655.225	2984
655.281	3444
655.337	3743
655.394	2158
655.450	2952
655.506	3078
655.562	2477
655.618	3697
655.675	1687
655.731	3030
655.787	2811
655.843	2906
655.899	2690
655.955	2675
656.011	3799
656.067	3445
656.123	3719
656.179	3858
656.235	4458
656.291	3132
656.347	4733
656.403	3245
656.459	3543
656.515	2167
656.571	2733
656.627	2893
656.683	3572
656.739	3726
656.795	2839
656.850	2724
656.906	3627
656.962	2858
657.018	2850
657.074	4416
657.129	6528
657.185	10615
657.241	27193
657.297	13348
657.352	3462
657.408	2494
657.464	2833
657.519	2330
657.575	1901
657.630	1878
657.686	2089
657.742	2363
657.797	2096
657.853	1525
657.908	2987
657.964	1044
658.019	2546
658.075	2645
658.130	2531
658.186	1078
658.241	1762
658.297	1786
658.352	2154
658.407	1958
658.463	1861
658.518	2553
658.573	1683
658.629	1068
658.684	1269
658.739	3027
658.795	1203
658.850	2732
658.905	1641
658.960	2385
659.016	1782
659.071	2227
659.126	1826
659.181	1697
659.236	2637
659.291	1709
659.346	1283
659.401	2085
659.457	1735
659.512	644
659.567	3098
659.622	1705
659.677	1413
659.732	476
659.787	1669
659.842	1880
659.897	1182
659.952	1601
660.007	1957
660.061	1240
660.116	1122
660.171	705
660.226	2538
660.281	2193
660.336	1007
660.391	2144
660.445	1126
660.500	1476
660.555	1960
660.610	1345
660.664	2216
660.719	1094
660.774	1641
660.828	2103
660.883	1367
660.938	2699
660.992	-198
661.047	1468
661.101	1570
661.156	1667
661.211	1191
661.265	791
661.320	1155
661.374	763
661.429	706
661.483	2088
661.538	888
661.592	273
661.647	1037
661.701	1792
661.755	1622
661.810	1258
661.864	750
661.919	431
661.973	1374
662.027	1800
662.081	1355
662.136	1399
662.190	1781
662.244	1250
662.299	1577
662.353	2396
662.407	1415
662.461	1896
662.515	1762
662.569	1217
662.624	2177
662.678	788
662.732	659
662.786	1274
662.840	1427
662.894	1685
662.948	1733
663.002	700
663.056	1314
663.110	1180
663.164	1076
663.218	1817
663.272	1638
663.326	978
663.380	1701
663.434	1020
663.488	1646
663.542	1516
663.595	1497
663.649	916
663.703	1526
663.757	557
663.811	947
663.864	1113
663.918	1834
663.972	568
664.026	1721
664.079	791
664.133	2121
664.187	1286
664.240	1723
664.294	948
664.348	2486
664.401	2232
664.455	1486
664.508	1157
664.562	1824
664.615	575
664.669	984
664.722	780
664.776	1527
664.829	1383
664.883	1308
664.936	1049
664.990	1381
665.043	2270
665.097	993
665.150	2670
665.203	1236
665.257	1696
665.310	1577
665.363	1176
665.417	1878
665.470	1432
665.523	2312
665.576	1042
665.630	1858
665.683	1348
665.736	1504
665.789	1074
665.842	1321
665.895	1165
665.949	1702
666.002	1948
666.055	2074
666.108	2385
666.161	1574
666.214	2335
666.267	2320
666.320	2194
666.373	1722
666.426	1174
666.479	2171
666.532	2531
666.585	2268
666.638	2372
666.691	1178
666.744	2493
666.796	1310
666.849	1811
666.902	2012
666.955	2201
667.008	1713
667.060	1052
667.113	750
667.166	1860
667.219	1749
667.271	2208
667.324	2258
667.377	2004
667.430	1811
667.482	1713
667.535	1601
667.587	1027
667.640	1469
667.693	1744
667.745	2128
667.798	2390
667.850	1293
667.903	1654
667.955	1562
668.008	1626
668.060	1583
668.113	1648
668.165	1854
668.218	1859
668.270	2289
668.322	1574
668.375	2473
668.427	2071
668.479	2260
668.532	2538
668.584	1449
668.636	1616
668.689	1193
668.741	1459
668.793	928
668.845	2106
668.898	2017
668.950	1614
669.002	833
669.054	1613
669.106	1866
669.158	1640
669.211	1577
669.263	1231
669.315	1776
669.367	1921
669.419	483
669.471	2041
669.523	1310
669.575	1825
669.627	506
669.679	1236
669.731	1920
669.783	1601
669.835	1715
669.886	1763
669.938	2176
669.990	1438
670.042	168
670.094	1151
670.146	1187
670.197	1631
670.249	1510
670.301	1560
670.353	1720
670.404	1896
670.456	2488
670.508	3713
670.560	6056
670.611	8316
670.663	14197
670.715	32965
670.766	52435
670.818	15859
670.869	3959
670.921	2618
670.972	2749
671.024	2538
671.075	2011
671.127	1198
671.178	1649
671.230	3008
671.281	2383
671.333	4240
671.384	4259
671.436	5370
671.487	9123
671.538	13589
671.590	23752
671.641	39170
671.692	73118
671.744	136885
671.795	87768
671.846	27984
671.897	13225
671.949	7615
672.000	5632
672.051	3708
672.102	3900
672.153	2254
672.204	2187
672.256	2412
672.307	2221
672.358	2012
672.409	1453
672.460	710
672.511	949
672.562	1018
672.613	859
672.664	1109
672.715	1688
672.766	542
672.817	467
672.868	520
672.919	1098
672.970	327
673.021	474
673.071	760
673.122	1222
673.173	188
673.224	1053
673.275	825
673.326	605
673.376	123
673.427	-393
673.478	648
673.528	1721
673.579	484
673.630	257
673.680	1118
673.731	1363
673.782	783
673.832	680
673.883	862
673.934	1020
673.984	687
674.035	784
674.085	985
674.136	1200
674.186	831
674.237	1077
674.287	1509
674.338	727
674.388	700
674.438	1109
674.489	1381
674.539	812
674.589	1418
674.640	2080
674.690	1338
674.740	823
674.791	1386
674.841	397
674.891	525
674.942	6
674.992	350
675.042	617
675.092	934
675.142	-144
675.193	10
675.243	673
675.293	360
675.343	-118
675.393	312
675.443	470
675.493	638
675.543	530
675.593	487
675.643	1678
675.693	516
675.743	795
675.793	909
675.843	-165
675.893	555
675.943	-127
675.993	265
676.043	-96
676.093	672
676.142	-146
676.192	829
676.242	-140
676.292	72
676.341	-217
676.391	337
676.441	-582
676.491	230
676.540	100
676.590	745
676.640	22
676.689	-154
676.739	-98
676.789	887
676.838	-180
676.888	-758
676.937	-339
676.987	-493
677.037	-70
677.086	-825
677.136	435
677.185	152
677.235	-603
677.284	522
677.333	328
677.383	-641
677.432	-208
677.482	50
677.531	30
677.580	-1070
677.630	495
677.679	146
677.728	-404
677.778	431
677.827	99
677.876	-6
677.925	-146
677.975	23
678.024	72
678.073	-250
678.122	996
678.171	-597
678.220	266
678.269	1047
678.319	886
678.368	1652
678.417	38
678.466	399
678.515	-1228
678.564	-493
678.613	579
678.662	-313
678.711	-77
678.760	385
678.809	-252
678.857	-23
678.906	-175
678.955	51
679.004	297
679.053	-615
679.102	-782
679.151	77
679.199	-95
679.248	-36
679.297	-128
679.346	-878
679.394	-1095
679.443	-369
679.492	-61
679.540	-398
679.589	-344
679.638	-274
679.686	-736
679.735	704
679.784	190
679.832	1181
679.881	-197
679.929	-341
679.978	572
680.026	180
680.075	264
680.123	-801
680.172	-923
680.220	-105
680.268	-196
680.317	-1047
680.365	-895
680.414	-590
680.462	225
680.510	64
680.559	-429
680.607	114
680.655	-307
680.703	-558
680.752	-330
680.800	-535
680.848	-458
680.896	-818
680.945	465
680.993	-542
681.041	-879
681.089	-578
681.137	277
681.185	-802
681.233	-419
681.258	-485
681.281	-561
681.329	-1121
681.377	-441
681.380	-403
681.425	68
681.473	270
681.502	103
681.521	-45
681.569	315
681.617	-220
681.624	-249
681.665	-522
681.713	296
681.745	839
681.761	1077
681.809	-410
681.857	77
681.867	125
681.904	243
681.952	52
681.989	150
682.000	167
682.048	85
682.096	156
682.111	49
682.143	-248
682.191	-36
682.233	233
682.239	264
682.286	419
682.334	693
682.354	519
682.382	236
682.430	1268
682.476	444
682.477	414
682.525	104
682.572	172
682.598	-165
682.620	-472
682.667	241
682.715	176
682.720	247
682.763	761
682.810	393
682.841	743
682.857	913
682.905	-41
682.952	309
682.963	404
683.000	707
683.047	711
683.085	1367
683.095	1529
683.142	675
683.190	1093
683.206	981
683.237	709
683.284	809
683.328	1198
683.332	1225
683.379	405
683.426	850
683.449	619
683.473	396
683.521	163
683.568	1338
683.571	1344
683.615	1155
683.662	983
683.693	719
683.709	598
683.757	582
683.804	753
683.814	968
683.851	1621
683.898	1247
683.936	857
683.945	764
683.992	1428
684.039	948
684.057	1051
684.086	1178
684.133	1470
684.179	873
684.180	847
684.227	1185
684.274	1604
684.300	1507
684.321	1428
684.368	1017
684.415	1411
684.422	1385
684.462	1105
684.509	1124
684.543	1143
684.556	1187
684.603	1661
684.649	1581
684.665	1583
684.696	1411
684.743	1586
684.786	1670
684.790	1677
684.837	963
684.883	1696
684.908	1786
684.930	1877
684.977	1875
685.023	2075
685.029	2022
685.070	1530
685.117	1167
685.150	1667
685.164	1841
685.210	1748
685.257	2159
685.272	2054
685.303	1891
685.350	2230
685.393	2256
685.396	2239
685.443	1741
685.490	1502
685.514	1609
685.536	1772
685.583	1537
685.629	1475
685.636	1493
685.675	1565
685.722	1389
685.757	1690
685.768	1772
685.815	1291
685.861	2256
685.878	2105
685.908	1898
685.954	2177
686.000	2090
686.000	2084
686.047	1673
686.093	2623
686.121	2215
686.139	1953
686.185	2197
686.232	2772
686.242	2695
686.278	2376
686.324	2298
686.363	2269
686.370	2261
686.416	2128
686.463	2959
686.484	2642
686.509	2317
686.555	2030
686.601	2385
686.606	2433
686.647	2765
686.693	2228
686.727	2077
686.739	2048
686.785	2244
686.831	2621
686.848	2558
686.877	2364
686.923	3271
686.969	2459
686.969	2456
687.015	2558
687.061	2477
687.090	2775
687.107	2865
687.153	2999
687.199	2744
687.211	2672
687.245	2508
687.291	2925
687.332	3174
687.336	3207
687.382	2634
687.428	2813
687.453	2785
687.474	2719
687.520	3431
687.565	2877
687.574	2824
687.611	2783
687.657	3074
687.695	3410
687.702	3465
687.748	3801
687.794	4282
687.816	4125
687.839	3818
687.885	3788
687.931	3415
687.937	3484
687.976	3965
688.022	3030
688.058	3209
688.067	3271
688.113	3020
688.158	3512
688.179	3385
688.204	3248
688.249	3484
688.295	3042
688.300	3082
688.340	3344
688.386	3812
688.421	3605
688.431	3579
688.477	3172
688.522	3827
688.542	3799
688.567	3728
688.613	3462
688.658	3543
688.663	3529
688.703	3419
688.749	3478
688.784	3782
688.794	3882
688.839	3684
688.884	3988
688.905	3738
688.930	3405
688.975	3796
689.020	3608
689.026	3594
689.065	3638
689.110	3058
689.146	3850
689.155	4041
689.201	3802
689.246	3888
689.267	4091
689.291	4251
689.336	3939
689.381	3588
689.388	3640
689.426	4171
689.471	3772
689.509	4249
689.516	4300
689.561	3973
689.606	4111
689.630	3837
689.651	3685
689.696	3519
689.741	3952
689.750	3876
689.785	3812
689.830	4787
689.871	4380
689.875	4305
689.920	4871
689.965	4126
689.992	4248
690.010	4393
690.054	3701
690.099	3561
690.112	3749
690.144	4236
690.189	4168
690.233	4054
690.233	4061
690.278	3642
690.323	3973
690.354	3858
690.367	3804
690.412	4010
690.457	4112
690.474	4148
690.501	4203
690.546	3973
690.590	3648
690.595	3628
690.635	3616
690.680	3564
690.716	3894
690.724	4013
690.769	3815
690.813	4234
690.836	4179
690.857	4136
690.902	4783
690.946	4735
690.957	4807
690.991	5026
691.035	4914
691.077	5178
691.080	5190
691.124	4697
691.168	5148
691.198	4782
691.213	4653
691.257	4623
691.301	4617
691.318	4566
691.346	4533
691.390	4463
691.434	4333
691.439	4304
691.478	4209
691.522	4824
691.559	4817
691.567	4822
691.611	4668
691.655	4744
691.680	4831
691.699	4860
691.743	4180
691.787	4299
691.800	4176
691.831	4223
691.875	4867
691.919	4970
691.921	4971
691.964	5116
692.008	5116
692.041	4972
692.052	4896
692.096	4637
692.139	4732
692.162	4565
692.183	4535
692.227	4439
692.271	4337
692.282	4342
692.315	4554
692.359	5053
692.402	5064
692.403	5073
692.447	4566
692.490	4611
692.523	4646
692.534	4760
692.578	4708
692.622	4979
692.643	5018
692.666	4954
692.709	4745
692.753	4395
692.763	4425
692.797	4708
692.840	5020
692.884	4742
692.884	4753
692.928	4970
692.971	5038
693.004	4979
693.015	4981
693.059	5195
693.102	5321
693.124	5249
693.146	5099
693.189	5027
693.233	4888
693.245	4880
693.276	5105
693.320	5111
693.363	5292
693.365	5282
693.407	5346
693.450	5254
693.485	5326
693.493	5352
693.537	5700
693.580	5202
693.605	5308
693.624	5371
693.667	5319
693.710	5307
693.725	5269
693.753	5830
693.797	6534
693.840	7688
693.845	7757
693.883	7154
693.926	6195
693.966	5939
693.970	5969
694.013	5782
694.056	5406
694.086	5436
694.099	5532
694.142	5419
694.185	5541
694.206	5455
694.229	5357
694.272	5419
694.315	5291
694.326	5324
694.358	5596
694.401	5519
694.444	5844
694.446	5832
694.487	5752
694.530	5552
694.566	5390
694.573	5391
694.616	5619
694.659	5706
694.686	5683
694.702	5756
694.745	5968
694.787	5989
694.806	6205
694.830	6449
694.873	6310
694.916	6422
694.926	6424
694.959	6482
695.002	6361
695.044	6602
695.046	6585
695.087	6673
695.130	6900
695.166	6619
695.172	6570
695.215	6615
695.258	6527
695.286	6422
695.301	6577
695.343	7094
695.386	7453
695.406	7625
695.428	7891
695.471	8451
695.514	8885
695.526	9034
695.556	9766
695.599	10793
695.641	11636
695.646	11708
695.684	10846
695.726	9824
695.766	8772
695.769	8786
695.811	8626
695.854	8641
695.886	8742
695.896	8844
695.938	8754
695.981	8850
696.005	8870
696.023	9141
696.065	9700
696.108	10378
696.125	10665
696.150	10793
696.192	10820
696.235	10795
696.245	10777
696.277	11048
696.319	11377
696.361	11644
696.365	11647
696.404	11574
696.446	11326
696.485	11129
696.488	11158
696.530	10999
696.572	10877
696.604	10902
696.614	10928
696.656	10869
696.698	10766
696.724	10622
696.740	10628
696.783	10695
696.825	10695
696.844	10673
696.867	10813
696.909	11011
696.951	11163
696.964	11205
696.992	11218
697.034	11105
697.076	11001
697.083	10958
697.118	11569
697.160	12359
697.202	13082
697.203	13068
697.244	12831
697.286	12496
697.323	12087
697.327	12120
697.369	12223
697.411	12255
697.442	12258
697.453	12296
697.494	12371
697.536	12379
697.562	12363
697.578	12398
697.620	12453
697.661	12434
697.682	12417
697.703	12633
697.744	12968
697.786	13369
697.801	13439
697.828	13306
697.869	13018
697.911	12760
697.921	12701
697.952	12950
697.994	13060
698.035	13187
698.040	13176
698.077	13429
698.118	13570
698.160	13827
698.160	13792
698.201	14072
698.243	14406
698.279	14654
698.284	14738
698.325	15121
698.367	15526
698.399	15800
698.408	15846
698.449	15858
698.491	15859
698.518	15821
698.532	15781
698.573	15516
698.614	15275
698.638	15089
698.656	15326
698.697	15766
698.738	16235
698.757	16410
698.779	16339
698.820	16112
698.862	15889
698.877	15767
698.903	15838
698.944	15872
698.985	15911
698.996	15881
699.026	15850
699.067	15748
699.116	15586
699.235	15737
699.354	14851
699.474	13956
699.593	15288
699.713	13951
699.832	14759
699.951	15485
700.070	14853
700.190	13759
700.309	14426
700.428	12692
700.547	13489
700.667	13300
700.786	13088
700.905	12158
701.024	13417
701.143	11360
701.262	13984
701.381	13578
701.500	14173
701.619	13287
701.738	13061
701.857	13275
701.976	12506
702.095	12104
702.214	12666
702.333	12694
702.452	13690
702.571	12447
702.690	14159
702.809	12568
702.928	13042
703.047	11749
703.165	12231
703.284	12244
703.403	11219
703.522	11859
703.640	11722
703.759	11712
703.878	10757
703.997	11293
704.115	10686
704.234	11019
704.353	11676
704.471	11008
704.590	9854
704.708	10817
704.827	11158
704.946	9790
705.064	10509
705.183	10627
705.301	10668
705.420	9710
705.538	9832
705.656	9730
705.775	8904
705.893	9898
706.012	10003
706.130	9364
706.249	9717
706.367	9349
706.485	9069
706.604	8481
706.722	9301
706.840	9556
706.958	10710
707.077	8322
707.195	9844
707.313	8869
707.431	8943
707.549	8382
707.668	7527
707.786	9673
707.904	9271
708.022	9023
708.140	8038
708.258	8202
708.376	9139
708.494	7894
708.612	9300
708.730	8476
708.848	8392
708.966	7396
709.084	9086
709.202	8320
709.320	7457
709.438	7783
709.556	8010
709.674	7419
709.791	7365
709.909	6509
710.027	6728
710.145	7068
710.263	7057
710.380	7476
710.498	7322
710.616	6928
710.733	7142
710.851	7239
710.969	7017
711.086	6670
711.204	7729
711.322	6883
711.439	6989
711.557	5632
711.674	6819
711.792	6508
711.909	6308
712.027	5649
712.144	6483
712.262	6306
712.379	6089
712.497	6485
712.614	6300
712.732	6555
712.849	6151
712.966	5696
713.084	7231
713.201	5073
713.318	6637
713.436	7609
713.553	6720
713.670	7508
713.787	6863
713.905	6778
714.022	7366
714.139	8311
714.256	10737
714.373	16513
714.490	34753
714.608	104924
714.725	428852
714.842	328044
714.959	29447
715.076	12674
715.193	9775
715.310	8446
715.427	6513
715.544	6284
715.661	6239
715.778	6086
715.895	6764
716.011	5540
716.128	6502
716.245	6247
716.362	5813
716.479	4386
716.596	4871
716.713	6234
716.829	5666
716.946	5303
717.063	4491
717.180	4333
717.296	4106
717.413	4835
717.530	4524
717.646	4698
717.763	5616
717.880	4165
717.996	4514
718.113	4235
718.229	4540
718.346	4467
718.462	4433
718.579	4695
718.695	5115
718.812	4643
718.928	4788
719.045	3944
719.161	4103
719.277	4681
719.394	5725
719.510	5360
719.626	5962
719.743	7959
719.859	14702
719.975	35732
720.092	159448
720.208	286648
720.324	26996
720.440	7985
720.557	6255
720.673	6535
720.789	3584
720.905	3569
721.021	4201
721.137	4755
721.253	4131
721.369	4712
721.486	3876
721.602	3641
721.718	4179
721.834	3921
721.950	3764
722.066	3085
722.181	3124
722.297	3740
722.413	4231
722.529	3992
722.645	3766
722.761	3774
722.877	4687
722.993	4315
723.108	6258
723.224	4591
723.340	3736
723.456	3532
723.571	3035
723.687	3073
723.803	3433
723.918	3297
724.034	3650
724.150	2516
724.265	3868
724.381	3823
724.497	3910
724.612	2818
724.728	2898
724.843	2812
724.959	3579
725.074	2682
725.190	3993
725.305	3789
725.421	3014
725.536	3153
725.651	4361
725.767	3088
725.882	3618
725.997	4024
726.113	2731
726.228	3331
726.343	2862
726.459	3032
726.574	3000
726.689	2903
726.804	3160
726.920	2613
727.035	2885
727.150	3172
727.265	2802
727.380	2648
727.495	3750
727.610	2168
727.725	3208
727.841	2768
727.956	2721
728.071	3372
728.186	2119
728.301	2974
728.416	3784
728.531	2841
728.645	2134
728.760	2349
728.875	2463
728.990	2853
729.105	2754
729.220	2273
729.335	2649
729.449	3195
729.564	2853
729.679	2426
729.794	3196
729.908	2317
730.023	3681
730.138	3162
730.253	3563
730.367	2334
730.482	2804
730.596	2884
730.711	4086
730.826	5637
730.940	5043
731.055	3162
731.169	4015
731.284	5019
731.398	3907
731.513	4971
731.627	5384
731.742	7088
731.856	8939
731.970	8483
732.085	10597
732.199	16839
732.313	31302
732.428	92858
732.542	277904
732.656	128228
732.771	23037
732.885	12917
732.999	12167
733.113	12349
733.227	11453
733.342	11779
733.456	10712
733.570	10758
733.684	9505
733.798	9212
733.912	9630
734.026	9350
734.140	9104
734.254	9269
734.368	9083
734.482	9219
734.596	9270
734.710	8534
734.824	8152
734.938	8381
735.052	8602
735.166	8510
735.280	8132
735.393	8723
735.507	8682
735.621	7546
735.735	7947
735.849	7574
735.962	7846
736.076	8599
736.190	7805
736.303	7554
736.417	7537
736.531	7883
736.644	8077
736.758	7569
736.872	7230
736.985	7853
737.099	7608
737.212	6465
737.326	6744
737.439	7951
737.553	6269
737.666	6404
737.780	6092
737.893	6515
738.007	6927
738.120	6950
738.233	6041
738.347	6648
738.460	6277
738.573	7440
738.687	6172
738.800	6120
738.913	7083
739.026	6444
739.140	5810
739.253	6402
739.366	5986
739.479	6090
739.592	6216
739.705	4623
739.818	7454
739.932	5791
740.045	6823
740.158	5672
740.271	6264
740.384	4660
740.497	5364
740.610	6146
740.723	5397
740.836	5357
740.949	5600
741.062	6655
741.174	5793
741.287	5035
741.400	6054
741.513	4930
741.626	6191
741.739	5133
741.851	5817
741.964	5282
742.077	5133
742.189	4489
742.302	6063
742.415	5057
742.527	5113
742.640	5420
742.753	3978
742.865	4619
742.978	4661
743.090	4956
743.203	5926
743.316	4665
743.428	3909
743.541	4344
743.653	4679
743.766	5103
743.878	5010
743.990	3633
744.103	6495
744.215	6303
744.327	5096
744.440	6153
744.552	5043
744.664	3210
744.777	5292
744.889	4760
745.001	5067
745.113	4507
745.226	4048
745.338	3576
745.450	4686
745.562	3976
745.674	3792
745.786	4732
745.898	4338
746.010	4086
746.122	4335
746.234	3346
746.347	4677
746.459	4512
746.570	3953
746.682	5529
746.794	6506
746.906	3062
747.018	4415
747.130	4144
747.242	3926
747.354	3607
747.466	4072
747.577	2951
747.689	4421
747.801	4417
747.913	3260
748.024	3378
748.136	3349
748.248	3172
748.359	3279
748.471	3570
748.583	3456
748.694	3486
748.806	4470
748.918	3197
749.029	2874
749.141	4188
749.252	4739
749.364	3207
749.475	3253
749.587	2244
749.698	3053
749.809	3502
749.921	3781
750.032	3239
750.144	2025
750.255	3057
750.366	3154
750.478	3835
750.589	2807
750.700	2522
750.811	3280
750.923	3015
751.034	3167
751.145	3477
751.256	2793
751.367	2643
751.479	2509
751.590	2398
751.701	2611
751.812	1407
751.923	2980
752.034	3215
752.145	3713
752.256	3079
752.367	2142
752.478	2788
752.589	3114
752.700	2906
752.811	2876
752.922	2448
753.032	3041
753.143	3240
753.254	2536
753.365	3852
753.476	3248
753.586	2975
753.697	2717
753.808	2608
753.919	3109
754.029	2583
754.140	2625
754.251	2974
754.361	2991
754.472	3076
754.582	2699
754.693	2583
754.804	2800
754.914	2677
755.025	1674
755.135	2504
755.246	2557
755.356	2374
755.466	2506
755.577	2526
755.687	3431
755.798	1733
755.908	2865
756.018	2311
756.129	2506
756.239	2814
756.349	2917
756.460	2972
756.570	3162
756.680	2589
756.790	2527
756.900	2937
757.011	2600
757.121	1960
757.231	2517
757.341	2326
757.451	2012
757.561	2240
757.671	2285
757.781	2282
757.891	2627
758.001	1835
758.111	2958
758.221	3301
758.331	2580
758.441	2130
758.551	2448
758.661	3297
758.771	2909
758.880	2940
758.990	2781
759.100	1386
759.210	3314
759.320	3241
759.429	2552
759.539	2911
759.649	2359
759.758	4010
759.868	4419
759.978	2981
760.087	3484
760.197	4806
760.307	4106
760.416	3202
760.526	3635
760.635	3296
760.745	4752
760.854	4284
760.964	5102
761.073	4707
761.182	4638
761.292	2798
761.401	3471
761.511	2309
761.620	2503
761.729	2654
761.839	2341
761.948	2077
762.057	1903
762.166	2306
762.276	1693
762.385	3286
762.494	1869
762.603	787
762.712	2040
762.822	1810
762.931	1642
763.040	1428
763.149	2287
763.258	1479
763.367	2323
763.476	1859
763.585	1623
763.694	1034
763.803	2541
763.912	1673
764.021	1434
764.130	1525
764.238	1531
764.347	2022
764.456	2424
764.565	1825
764.674	1883
764.783	1689
764.891	938
765.000	2710
765.109	2919
765.217	1473
765.326	3032
765.435	2536
765.543	2472
765.652	2871
765.761	3502
765.869	5080
765.978	7547
766.086	13589
766.195	27703
766.303	80392
766.412	219725
766.520	145442
766.629	33065
766.737	11808
766.846	7668
766.954	4626
767.062	5372
767.171	2773
767.279	3122
767.387	2059
767.496	2773
767.604	2317
767.712	2205
767.820	1667
767.928	1650
768.037	903
768.145	1605
768.253	2174
768.361	2115
768.469	2361
768.577	1582
768.685	2305
768.793	2427
768.901	1649
769.009	2756
769.117	1563
769.225	3081
769.333	4007
769.441	6727
769.549	11545
769.657	29191
769.765	100319
769.873	168269
769.981	43825
770.088	10395
770.196	5782
770.304	4058
770.412	4184
770.519	3581
770.627	3016
770.735	3151
770.842	3316
770.950	3451
771.058	2362
771.165	3639
771.273	4059
771.380	4674
771.488	6642
771.595	7247
771.703	5319
771.810	5547
771.918	5114
772.025	7567
772.133	7502
772.240	7057
772.348	8252
772.455	8385
772.562	6809
772.670	6482
772.777	7117
772.884	7368
772.991	5816
773.099	8140
773.206	6143
773.313	6792
773.420	6895
773.528	6364
773.635	5722
773.742	6235
773.849	6209
773.956	7049
774.063	6013
774.170	6840
774.277	6711
774.384	5397
774.491	5513
774.598	6036
774.705	5447
774.812	5748
774.919	6152
775.026	5277
775.133	5666
775.239	5918
775.346	5540
775.453	5848
775.560	4575
775.667	6195
775.773	3841
775.880	6004
775.987	5080
776.093	6067
776.200	5481
776.307	3896
776.413	6060
776.520	6670
776.627	5160
776.733	5265
776.840	4035
776.946	8156
777.053	7164
777.159	9888
777.266	5828
777.372	9219
777.478	7916
777.585	5245
777.691	4429
777.798	5637
777.904	4635
778.010	4826
778.117	4869
778.223	5056
778.329	4843
778.435	3965
778.542	5047
778.648	4343
778.754	3221
778.860	4492
778.966	4534
779.072	3460
779.178	4021
779.284	3623
779.391	4633
779.497	3466
779.603	5008
779.708	2488
779.815	4156
779.920	5344
780.026	4408
780.132	4472
780.238	3186
780.344	3638
780.450	5210
780.556	3564
780.661	3161
780.767	4505
780.873	1563
780.979	3721
781.085	3770
781.190	3216
781.296	3031
781.402	3612
781.507	3745
781.613	2018
781.719	3837
781.824	3568
781.930	3677
782.035	3856
782.141	3272
782.246	2559
782.352	2734
782.457	4297
782.563	2812
782.668	3587
782.773	2018
782.879	2835
782.984	3693
783.090	3642
783.195	3089
783.300	3317
783.405	2461
783.511	1676
783.616	2660
783.721	3165
783.826	2997
783.932	2230
784.037	2975
784.142	3256
784.247	1941
784.352	3440
784.457	2604
784.562	2969
784.667	2558
784.772	1550
784.877	1537
784.982	3384
785.087	2653
785.192	2678
785.297	1438
785.402	3221
785.507	2794
785.611	2469
785.716	1979
785.821	2612
785.926	2049
786.031	2721
786.135	2517
786.240	3291
786.345	498
786.450	1966
786.554	2215
786.659	1696
786.763	1844
786.868	3035
786.973	3610
787.077	1683
787.182	1638
787.286	2875
787.391	3067
787.495	1376
787.600	1048
787.704	1757
787.809	2236
787.913	1648
788.017	2190
788.122	2467
788.226	1494
788.330	943
788.435	2621
788.539	2363
788.643	1255
788.747	1180
788.852	2002
788.956	1619
789.060	2390
789.164	2219
789.268	950
789.372	2110
789.476	949
789.580	1174
789.684	1478
789.788	2551
789.892	961
789.996	2095
790.100	1600
790.204	2241
790.308	1985
790.412	1192
790.516	1282
790.620	2056
790.724	2976
790.828	1460
790.931	404
791.035	2196
791.139	1091
791.242	1193
791.346	2534
791.450	2366
791.554	749
791.657	617
791.761	2178
791.864	2673
791.968	1970
792.072	1831
792.175	885
792.279	1516
792.382	1133
792.486	1329
792.589	650
792.693	1525
792.796	1243
792.899	2180
793.003	1780
793.106	-177
793.209	1214
793.313	2809
793.416	-279
793.519	2132
793.623	1964
793.726	1328
793.829	886
793.932	1244
794.035	-488
794.138	2275
794.242	1955
794.345	654
794.448	896
794.551	385
794.654	3146
794.757	3077
794.860	20
794.963	619
795.066	62
795.169	2433
795.272	805
795.375	1867
795.477	476
795.580	1452
795.683	-222
795.786	969
795.889	331
795.991	1982
796.094	2112
796.197	-357
796.300	1498
796.402	1060
796.505	233
796.608	241
796.710	2167
796.813	1031
796.915	996
797.018	1042
797.120	1311
797.223	230
797.326	1961
797.428	132
797.530	-298
797.633	1022
797.735	1839
797.838	196
797.940	2261
798.042	208
798.145	151
798.247	1675
798.349	-457
798.452	1749
798.554	828
798.656	-115
798.758	2476
798.860	1020
798.962	1199
799.065	283
799.167	-69
799.269	1916
799.371	1846
799.473	2507
799.575	391
799.677	910
799.779	2318
799.881	24
799.983	1429
800.085	1243
800.187	475
800.289	-236
800.390	545
800.492	1239
800.594	1429
800.696	33
800.798	263
800.899	913
801.001	811
801.103	1101
801.205	766
801.306	512
801.408	49
801.509	1256
801.611	511
801.713	1021
801.814	497
801.916	669
802.017	453
802.119	-64
802.220	453
802.322	-940
802.423	1421
802.525	186
802.626	868
802.727	1319
802.829	1275
802.930	-1785
803.031	1838
803.133	693
803.234	38
803.335	741
803.436	179
803.538	520
803.639	-1404
803.740	1193
803.841	1019
803.942	857
804.043	1357
804.144	-11
804.245	558
804.346	-60
804.447	-666
804.548	826
804.649	961
804.750	828
804.851	-240
804.952	-457
805.053	-69
805.154	422
805.255	1353
805.355	1139
805.456	-735
805.557	72
805.658	-82
805.758	1345
805.859	433
805.960	229
806.061	79
806.161	34
806.262	284
806.362	-519
806.463	591
806.564	1238
806.664	281
806.765	147
806.865	957
806.966	173
807.066	-404
807.166	1531
807.267	757
807.367	-113
807.468	1578
807.568	-811
807.668	709
807.769	574
807.869	159
807.969	449
808.069	709
808.170	680
808.270	-490
808.370	966
808.470	391
808.570	-961
808.670	-95
808.770	335
808.870	-244
808.970	121
809.070	-331
809.170	-131
809.271	1723
809.370	647
809.470	544
809.570	-198
809.670	-345
809.770	659
809.870	1008
809.970	323
810.070	266
810.169	839
810.269	-1447
810.369	1158
810.469	595
810.568	402
810.668	-941
810.768	-124
810.867	665
810.967	153
811.066	-165
811.166	265
811.265	1054
811.365	-4
811.464	-414
811.564	161
811.663	587
811.763	-520
811.862	156
811.962	1116
812.061	98
812.160	-723
812.260	215
812.359	110
812.458	184
812.557	433
812.657	422
812.756	394
812.855	397
812.954	228
813.053	191
813.153	281
813.252	1
813.351	1001
813.450	793
813.549	254
813.648	169
813.747	-226
813.846	593
813.945	61
814.044	381
814.143	52
814.242	816
814.341	-366
814.439	845
814.538	1277
814.637	469
814.736	855
814.835	1648
814.933	237
815.032	1062
815.131	2089
815.229	4863
815.328	6095
815.427	4787
815.525	3457
815.624	3870
815.722	3014
815.821	4750
815.919	3796
816.018	2987
816.116	4667
816.215	3739
816.313	4510
816.412	5869
816.510	5386
816.609	5893
816.707	7362
816.805	4707
816.904	4703
817.002	5285
817.100	6071
817.198	6537
817.296	5042
817.395	4124
817.493	6108
817.591	4118
817.689	4845
817.787	5061
817.885	4160
817.983	4703
818.081	4937
818.179	5805
818.277	8306
818.375	6509
818.473	4468
818.571	4848
818.669	5240
818.767	5479
818.865	4802
818.963	3245
819.061	4451
819.158	4173
819.256	6449
819.354	6524
819.452	11436
819.549	5461
819.647	5678
819.745	3502
819.842	4220
819.940	3817
820.038	3417
820.135	3192
820.233	5317
820.330	2755
820.428	3334
820.525	4940
820.623	4296
820.720	2660
820.818	4022
820.915	4169
821.012	2855
821.110	2819
821.207	4609
821.304	3557
821.402	4981
821.499	4753
821.596	3830
821.693	3190
821.791	4091
821.888	3436
821.985	4314
822.082	1963
822.179	3886
822.276	3364
822.373	2413
822.470	3250
822.567	3697
822.664	2397
822.761	3496
822.858	3134
822.955	2855
823.052	2801
823.149	3046
823.246	2751
823.343	2621
823.440	2648
823.536	2581
823.633	3000
823.730	2878
823.827	3445
823.923	2715
824.020	3568
824.117	3603
824.213	2702
824.310	3323
824.407	2652
824.503	2915
824.600	2252
824.696	1698
824.793	3766
824.889	2901
824.986	2781
825.082	1283
825.179	2509
825.275	3499
825.371	3076
825.468	2187
825.564	518
825.660	3617
825.757	3773
825.853	2927
825.949	1516
826.045	1492
826.142	3176
826.238	2623
826.334	2281
826.430	1312
826.526	1919
826.622	1220
826.718	2937
826.814	3189
826.910	3007
827.006	1294
827.102	1597
827.198	3394
827.294	2756
827.390	2593
827.486	1763
827.582	289
827.678	943
827.774	3804
827.869	540
827.965	2672
828.061	1207
828.157	3152
828.252	2295
828.348	1762
828.444	1845
828.539	751
828.635	902
828.731	2302
828.826	815
828.922	1983
829.017	2319
829.113	3112
829.208	1246
829.304	1702
829.399	3214
829.495	1691
829.590	2411
829.685	518
829.781	2392
829.876	2058
829.971	163
830.066	396
830.162	1157
830.257	1815
830.352	1855
830.447	1732
830.543	1681
830.638	871
830.733	2714
830.828	1564
830.923	2196
831.018	1550
831.113	2381
831.208	376
831.303	903
831.398	312
831.493	2398
831.588	2842
831.683	877
831.778	1387
831.873	723
831.967	2294
832.062	645
832.157	297
832.252	2045
832.346	833
832.441	2181
832.536	1838
832.631	762
832.725	1413
832.820	1034
832.914	1500
833.009	469
833.104	977
833.198	1349
833.293	1021
833.387	1461
833.482	2198
833.576	920
833.670	1942
833.765	1475
833.859	1468
833.954	1921
834.048	1272
834.142	822
834.237	411
834.331	867
834.425	1461
834.519	550
834.613	1010
834.708	773
834.802	1201
834.896	504
834.990	157
835.084	876
835.178	504
835.272	1105
835.366	1543
835.460	1910
835.554	-58
835.648	1047
835.742	-334
835.836	949
835.930	645
836.024	1213
836.117	1316
836.211	266
836.305	503
836.399	699
836.493	576
836.586	2081
836.680	228
836.774	-202
836.867	1818
836.961	-116
837.055	-285
837.148	-59
837.242	411
837.335	664
837.429	558
837.522	-70
837.616	-216
837.709	748
837.803	865
837.896	1263
837.989	-121
838.083	907
838.176	-16
838.269	-513
838.363	149
838.456	205
838.549	1133
838.642	-292
838.735	320
838.829	1016
838.922	288
839.015	194
839.108	486
839.201	891
839.294	1050
839.387	1257
839.480	-472
839.573	133
839.666	773
839.759	192
839.852	328
839.945	963
840.038	-20
840.131	-462
840.223	382
840.316	732
840.409	1073
840.502	-47
840.594	927
840.687	-231
840.780	-392
840.873	-97
840.965	-51
841.058	340
841.150	859
841.243	-607
841.336	-413
841.428	351
841.521	384
841.613	201
841.706	1065
841.798	544
841.890	298
841.983	-1174
842.075	1155
842.167	748
842.260	418
842.352	598
842.444	476
842.537	-431
842.629	536
842.721	-590
842.813	888
842.905	-230
842.997	1243
843.090	206
843.182	-17
843.274	-800
843.366	1262
843.458	444
843.550	1152
843.642	164
843.734	873
843.826	-310
843.918	34
844.009	517
844.101	-1138
844.193	-202
844.285	1057
844.377	449
844.469	1155
844.560	97
844.652	249
844.744	-322
844.835	778
844.927	4
845.019	834
845.110	-796
845.202	1166
845.293	-939
845.385	-229
845.476	617
845.568	905
845.659	-216
845.751	522
845.842	54
845.934	425
846.025	-578
846.116	537
846.208	302
846.299	-781
846.390	351
846.482	666
846.573	562
846.664	3
846.755	-711
846.846	428
846.937	-865
847.029	393
847.120	-496
847.211	409
847.302	851
847.393	-546
847.484	-295
847.575	-971
847.666	-701
847.757	332
847.847	455
847.938	1056
848.029	1088
848.120	-790
848.211	-723
848.302	-440
848.392	-502
848.483	-291
848.574	-197
848.664	-299
848.755	271
848.846	133
848.936	-722
849.027	-21
849.118	-122
849.208	229
849.299	1064
849.389	3517
849.480	6862
849.570	14161
849.661	28463
849.751	42600
849.841	12168
849.932	1442
850.022	-230
850.112	480
850.203	-21
850.293	305
850.383	118
850.474	-695
850.564	-553
850.654	-254
850.744	420
850.834	101
850.924	203
851.014	127
851.104	-239
851.194	-360
851.284	-57
851.374	60
851.464	-755
851.554	68
851.644	-524
851.734	817
851.824	725
851.914	-538
852.004	150
852.094	-605
852.183	-253
852.273	140
852.363	-344
852.452	231
852.542	-274
852.632	-701
852.721	-295
852.811	187
852.901	477
852.990	1044
853.080	854
853.169	796
853.259	538
853.348	548
853.438	887
853.527	1888
853.617	3200
853.706	8101
853.795	14565
853.885	32259
853.974	56873
854.063	107627
854.152	132921
854.242	49113
854.331	11045
854.420	4991
854.509	3546
854.598	2962
854.687	2214
854.777	1642
854.866	934
854.955	1088
855.044	-67
855.133	634
855.222	126
855.311	-493
855.400	971
855.488	525
855.577	180
855.666	-409
855.755	625
855.844	-114
855.933	-622
856.021	29
856.110	-622
856.199	-851
856.288	-448
856.376	-543
856.465	-949
856.554	-218
856.642	-865
856.731	-201
856.819	46
856.908	-871
856.996	-531
857.085	-493
857.173	-604
857.262	-1481
857.350	-879
857.438	-1070
857.527	-185
857.615	-721
857.703	-102
857.792	-1111
857.880	-1435
857.968	133
858.056	-904
858.145	-642
858.233	-137
858.321	-526
858.409	-152
858.497	-235
858.585	-1160
858.673	-387
858.761	-1032
858.849	169
858.937	-348
859.025	278
859.113	-897
859.201	15
859.289	144
859.377	-225
859.465	-490
859.552	147
859.640	-1322
859.728	361
859.816	-710
859.903	54
859.991	-877
860.079	-586
860.166	-412
860.254	-283
860.342	-508
860.429	-509
860.517	-338
860.604	164
860.692	-523
860.779	-372
860.867	-125
860.954	-243
861.042	-372
861.129	68
861.216	392
861.304	-919
861.391	-345
861.478	34
861.565	719
861.653	202
861.740	-861
861.827	-1057
861.914	-652
862.001	419
862.089	-26
862.176	-191
862.263	-588
862.350	-326
862.437	-771
862.524	-705
862.611	266
862.698	-167
862.785	-371
862.871	-399
862.958	-316
863.045	-14
863.132	-219
863.219	-296
863.306	-1215
863.392	19
863.479	-1304
863.566	530
863.652	445
863.739	-383
863.826	152
863.912	769
863.999	-115
864.086	-640
864.172	-361
864.259	597
864.345	134
864.432	146
864.518	-182
864.604	321
864.691	206
864.777	1944
864.863	1637
864.950	2410
865.036	3262
865.122	6699
865.209	7123
865.295	6537
865.381	5752
865.467	5778
865.553	6418
865.639	7960
865.726	12216
865.812	20045
865.898	34374
865.984	49617
866.070	89296
866.156	81187
866.242	24690
866.328	7960
866.414	6631
866.499	6350
866.585	5588
866.671	5099
866.757	4468
866.843	5269
866.928	4598
867.014	4477
867.100	4267
867.186	4824
867.271	3801
867.357	4444
867.442	3453
867.528	4369
867.614	3138
867.699	4446
867.785	4830
867.870	5056
867.956	4499
868.041	4674
868.127	4057
868.212	4621
868.297	4070
868.383	4067
868.468	3958
868.553	4301
868.639	3392
868.724	3494
868.809	3693
868.894	3264
868.979	3488
869.065	4643
869.150	2994
869.235	3794
869.320	3895
869.405	2115
869.490	2906
869.575	3946
869.660	1941
869.745	3753
869.830	2651
869.915	2901
870.000	3467
870.085	3525
870.169	4012
870.254	4491
870.339	2135
870.424	2866
870.509	3115
870.593	3425
870.678	3204
870.763	3891
870.847	3226
870.932	3599
871.016	3438
871.101	2661
871.186	2918
871.270	4296
871.355	1712
871.439	3308
871.523	2686
871.608	2214
871.692	2531
871.777	4545
871.861	4084
871.945	2669
872.030	3003
872.114	3437
872.198	2330
872.282	2551
872.367	1908
872.451	2867
872.535	2476
872.619	2229
872.703	2453
872.787	3336
872.871	2039
872.955	1914
873.039	723
873.123	2801
873.207	2659
873.291	1683
873.375	1088
873.459	3257
873.543	1913
873.627	1782
873.711	1388
873.794	2299
873.878	2064
873.962	1592
874.045	2335
874.129	1123
874.137	1199
874.213	1952
874.245	1707
874.296	1310
874.352	920
874.380	725
874.460	2139
874.464	2198
874.547	1883
874.568	2040
874.631	2474
874.676	2346
874.714	2239
874.784	2931
874.798	3069
874.881	2204
874.892	2064
874.965	1171
874.999	1609
875.048	2142
875.107	2680
875.131	2898
875.215	1225
875.215	1225
875.298	1855
875.323	2024
875.381	2476
875.430	2951
875.465	3232
875.538	1545
875.548	1310
875.631	1072
875.646	1032
875.714	897
875.753	1116
875.798	1476
875.861	2129
875.881	2249
875.964	1107
875.968	1121
876.047	1562
876.076	1651
876.130	1870
876.183	2460
876.213	2742
876.291	2435
876.296	2408
876.379	1280
876.398	1416
876.462	1957
876.506	1392
876.545	836
876.613	1467
876.628	1661
876.711	1947
876.721	2015
876.794	2372
876.828	2162
876.877	1708
876.935	1603
876.960	1648
877.043	1369
877.043	1372
877.125	2422
877.150	2584
877.208	2568
877.258	2009
877.291	1754
877.365	1766
877.374	1754
877.456	1344
877.472	1152
877.539	744
877.579	1298
877.622	1688
877.687	1711
877.704	1753
877.787	2342
877.794	2360
877.869	2289
877.901	2016
877.952	1583
878.008	1375
878.034	1330
878.115	1533
878.117	1541
878.199	1670
878.222	1957
878.282	2810
878.329	2730
878.364	2574
878.437	2569
878.447	2508
878.529	773
878.544	831
878.611	1711
878.651	1915
878.694	2095
878.758	1869
878.776	1814
878.858	1699
878.865	1756
878.941	1908
878.972	1750
879.023	1737
879.078	1673
879.105	1792
879.185	1979
879.187	1979
879.269	2313
879.292	2356
879.351	2344
879.399	1962
879.433	1561
879.506	1597
879.516	1701
879.598	1623
879.613	1629
879.680	1293
879.720	1583
879.762	2085
879.827	2314
879.844	2278
879.926	1889
879.933	1922
880.007	2316
880.040	2005
880.089	1730
880.147	2695
880.171	3214
880.253	4482
880.254	4485
880.335	5165
880.360	5554
880.417	7342
880.467	9893
880.499	11452
880.574	12085
880.580	11836
880.662	5121
880.680	4163
880.744	2200
880.787	1718
880.825	1751
880.893	2155
880.907	2210
880.989	1748
881.000	1834
881.070	2758
881.106	2746
881.152	2429
881.213	2190
881.233	2100
881.315	1927
881.319	1908
881.396	2217
881.426	2379
881.478	2569
881.532	2969
881.559	3109
881.639	2517
881.641	2501
881.722	2577
881.745	2324
881.803	2428
881.852	2727
881.885	2393
881.958	1741
881.966	1768
882.047	2445
882.064	2396
882.129	1722
882.171	1321
882.210	1135
882.277	1135
882.291	1275
882.372	2580
882.383	2637
882.454	2894
882.489	3259
882.535	3223
882.596	2944
882.616	2968
882.697	3101
882.702	3072
882.778	2285
882.808	2080
882.859	1849
882.914	1511
882.940	1437
883.020	1545
883.021	1556
883.102	2516
883.127	2732
883.183	3486
883.233	3557
883.264	2900
883.339	2030
883.345	2013
883.426	1447
883.445	1460
883.507	1745
883.551	1614
883.587	2010
883.657	3019
883.668	3083
883.749	3196
883.763	3211
883.830	2427
883.869	1865
883.910	1619
883.975	1780
883.991	1985
884.072	2479
884.081	2540
884.152	3264
884.187	3523
884.233	3679
884.292	3624
884.314	3136
884.394	1664
884.398	1585
884.475	1737
884.504	1698
884.555	1693
884.610	1869
884.636	2042
884.716	2980
884.716	2996
884.797	3943
884.821	4180
884.877	3691
884.927	3206
884.958	2805
885.033	1961
885.038	1965
885.118	2113
885.139	2034
885.199	1532
885.244	1313
885.279	1668
885.350	2684
885.359	2914
885.439	4484
885.456	4713
885.520	3102
885.561	2205
885.600	2112
885.667	2048
885.680	2149
885.760	2821
885.773	2836
885.840	1994
885.878	1768
885.920	2069
885.984	2388
886.000	2587
886.080	3460
886.089	3532
886.160	3508
886.195	3489
886.240	3040
886.300	2454
886.320	2499
886.400	2710
886.406	2711
886.480	1812
886.511	1479
886.560	1892
886.616	2206
886.640	2275
886.720	2624
886.722	2622
886.800	2386
886.827	2315
886.879	2560
886.932	2719
886.959	2967
887.038	3886
887.039	3897
887.119	3533
887.143	3503
887.198	3398
887.248	3174
887.278	3086
887.354	2857
887.358	2869
887.437	2700
887.459	2751
887.517	2883
887.564	2834
887.596	2497
887.669	1861
887.676	1881
887.755	1782
887.774	1808
887.835	1712
887.880	1673
887.914	2291
887.985	3397
887.994	3458
888.073	3969
888.090	4026
888.153	4639
888.195	5100
888.232	4111
888.300	2266
888.311	2337
888.391	2649
888.405	2732
888.470	2348
888.510	2013
888.549	1961
888.615	1964
888.628	2204
888.708	3546
888.720	3739
888.787	3489
888.825	3352
888.866	2615
888.930	1409
888.945	1638
889.024	2849
889.035	3007
889.103	3263
889.140	3348
889.182	3012
889.245	2531
889.261	2483
889.340	2227
889.349	2189
889.419	2469
889.454	2607
889.498	2599
889.559	2591
889.577	2876
889.656	4083
889.664	4194
889.735	3584
889.768	3275
889.814	2747
889.873	2029
889.978	2573
890.083	3130
890.187	3044
890.292	3275
890.397	2939
890.501	2554
890.606	1628
890.710	2985
890.815	4336
890.919	3988
891.024	3381
891.128	2441
891.233	2485
891.337	3916
891.442	3821
891.546	3219
891.650	2126
891.755	2277
891.859	4124
891.963	3881
892.068	3602
892.172	2360
892.276	2032
892.380	3035
892.484	4355
892.589	4595
892.693	2885
892.797	2129
892.901	2369
893.005	1375
893.109	3822
893.213	4331
893.317	2670
893.421	1636
893.525	1755
893.629	2528
893.733	3758
893.837	2763
893.941	2644
894.045	1819
894.148	1395
894.252	2942
894.356	3679
894.460	4075
894.564	2041
894.667	2914
894.771	1623
894.875	740
894.978	2706
895.082	3343
895.186	3514
895.289	2641
895.393	1765
895.496	3813
895.600	2393
895.703	1621
895.807	1794
895.910	2781
896.014	2452
896.117	2145
896.221	3066
896.324	3036
896.427	1602
896.531	1309
896.634	1474
896.737	1889
896.840	2349
896.944	3876
897.047	2758
897.150	3076
897.253	1258
897.356	1787
897.460	1328
897.563	2442
897.666	2556
897.769	3326
897.872	1568
897.975	2439
898.078	1809
898.181	1961
898.284	1687
898.387	3136
898.490	3335
898.593	2733
898.695	1431
898.798	1744
898.901	1510
899.004	2758
899.107	1934
899.209	2309
899.312	3431
899.415	1920
899.518	1336
899.620	664
899.723	1706
899.826	2461
899.928	2157
900.031	2397
900.133	2898
900.236	2094
900.338	775
900.441	1668
900.543	2328
900.646	2524
900.748	1772
900.851	2763
900.953	1731
901.055	1466
901.158	1217
901.260	1678
901.362	840
901.465	1076
901.567	2701
901.669	4117
901.771	1161
901.873	2248
901.976	1646
902.078	2148
902.180	1505
902.282	1202
902.384	1985
902.486	3156
902.588	2868
902.690	2007
902.792	1970
902.894	1376
902.996	2554
903.098	1992
903.200	1691
903.302	2317
903.404	1694
903.505	1592
903.607	1742
903.709	3726
903.811	3139
903.913	1088
904.014	1101
904.116	314
904.218	1495
904.319	2224
904.421	3025
904.523	2675
904.624	447
904.726	1812
904.827	1312
904.929	2057
905.030	1760
905.132	2819
905.233	2179
905.335	1481
905.436	1247
905.537	1488
905.639	674
905.740	1640
905.841	1865
905.943	2077
906.044	1667
906.145	2021
906.247	775
906.348	1692
906.449	1821
906.550	2744
906.651	917
906.752	1871
906.854	1335
906.955	1166
907.056	1681
907.157	2849
907.258	2458
907.359	1364
907.460	820
907.561	980
907.662	1184
907.762	1198
907.863	2147
907.964	2568
908.065	1885
908.166	1678
908.267	785
908.367	2131
908.468	1140
908.569	1614
908.670	2428
908.770	1830
908.871	1501
908.971	2067
909.072	755
909.173	696
909.273	614
909.374	2191
909.474	1468
909.575	1578
909.675	1067
909.776	2225
909.876	1916
909.977	2015
910.077	1727
910.177	2533
910.278	1501
910.378	2076
910.478	539
910.579	2029
910.679	1932
910.779	1898
910.879	2127
910.980	1863
911.080	1345
911.180	1466
911.280	525
911.380	628
911.480	1341
911.580	691
911.680	1636
911.780	2343
911.880	1556
911.980	1214
912.080	772
912.180	2003
912.280	1540
912.380	1644
912.480	892
912.580	1344
912.679	778
912.779	1815
912.879	1870
912.979	1868
913.078	1416
913.178	1550
913.278	731
913.377	1490
913.477	1104
913.577	1048
913.676	1789
913.776	2717
913.875	1970
913.975	1557
914.074	1929
914.174	1665
914.273	703
914.373	1988
914.472	1396
914.572	989
914.671	1239
914.770	555
914.870	802
914.969	298
915.068	1918
915.167	2487
915.267	1529
915.366	1361
915.465	1793
915.564	1339
915.663	1132
915.763	2378
915.862	2069
915.961	2282
916.060	1004
916.159	1081
916.258	396
916.357	768
916.456	1306
916.555	732
916.654	1143
916.752	1671
916.851	2353
916.950	1982
917.049	613
917.148	1164
917.247	1935
917.345	1492
917.444	887
917.543	2718
917.642	938
917.740	1697
917.839	2615
917.937	2780
918.036	2672
918.135	1423
918.233	1290
918.332	1487
918.430	1484
918.529	2073
918.627	1783
918.726	2847
918.824	1349
918.923	1158
919.021	2147
919.119	1160
919.218	204
919.316	1574
919.414	1725
919.512	2070
919.611	3349
919.709	2522
919.807	2546
919.905	3607
920.003	3131
920.102	2871
920.200	2421
920.298	2681
920.396	2144
920.494	3330
920.592	2547
920.690	3044
920.788	2032
920.886	2626
920.984	2744
921.082	4484
921.180	3952
921.277	3176
921.375	3746
921.473	5448
921.571	5639
921.669	5097
921.766	4441
921.864	6134
921.962	6176
922.060	4259
922.157	5371
922.255	5186
922.352	4094
922.450	6435
922.548	5465
922.645	7658
922.743	8684
922.840	14625
922.938	16620
923.035	14928
923.133	14188
923.230	16239
923.327	18906
923.425	17265
923.522	16400
923.619	16229
923.717	14109
923.814	13222
923.911	13681
924.008	15272
924.106	13513
924.203	13581
924.300	13585
924.397	13811
924.494	14229
924.591	14125
924.688	12901
924.786	13775
924.883	13209
924.979	13175
925.077	14154
925.173	13165
925.270	13623
925.367	14344
925.464	14482
925.561	13246
925.658	14205
925.755	12216
925.852	14364
925.948	12671
926.045	12586
926.142	13728
926.239	14663
926.335	11405
926.432	13495
926.529	14263
926.625	14894
926.722	11661
926.818	12290
926.915	13291
927.011	12040
927.108	11743
927.204	12243
927.301	11753
927.397	11950
927.494	14477
927.590	9755
927.687	10572
927.783	13993
927.879	12763
927.976	10704
928.072	9767
928.168	11754
928.264	12623
928.361	11110
928.457	13960
928.553	10109
928.649	10735
928.745	11875
928.841	9451
928.937	11231
929.033	11936
929.129	10129
929.225	12582
929.321	11510
929.417	9752
929.513	11943
929.609	9137
929.705	9720
929.801	11733
929.897	9116
929.993	9575
930.089	11362
930.184	9369
930.280	11359
930.376	13044
930.471	9555
930.567	8541
930.663	10374
930.758	8960
930.854	9567
930.950	10137
931.045	8480
931.141	9692
931.236	12052
931.332	9724
931.427	7074
931.523	11588
931.618	9997
931.714	7384
931.809	8440
931.905	11215
932.000	7345
932.095	6656
932.191	11323
932.286	11850
932.381	9206
932.476	7077
932.572	9548
932.667	7899
932.762	8224
932.857	9880
932.952	10704
933.047	8670
933.142	6558
933.237	8926
933.332	9991
933.427	10319
933.522	7904
933.617	8159
933.712	7935
933.807	11229
933.902	10918
933.997	10237
934.092	6653
934.187	7813
934.282	8346
934.376	9690
934.471	9580
934.566	8397
934.661	6904
934.755	9292
934.850	9403
934.945	8177
935.039	6909
935.134	6447
935.228	7750
935.323	12321
935.417	6229
935.512	4874
935.606	6320
935.701	8681
935.795	9512
935.890	7972
935.984	7187
936.079	6341
936.173	7648
936.267	6888
936.362	6069
936.456	7596
936.550	10207
936.644	7640
936.738	5880
936.833	6439
936.927	5420
937.021	6758
937.115	7627
937.209	7447
937.303	7087
937.397	5741
937.491	6768
937.585	8541
937.679	6947
937.773	7219
937.867	4918
937.961	6115
938.055	8854
938.149	8640
938.243	4928
938.337	4558
938.430	5832
938.524	10031
938.618	7195
938.712	6436
938.805	6492
938.899	7781
938.993	9132
939.086	5929
939.180	5106
939.274	6786
939.367	7927
939.461	8471
939.554	5589
939.648	5897
939.741	4550
939.835	7226
939.928	8943
940.022	7675
940.115	5911
940.208	7375
940.302	8135
940.395	8743
940.488	5506
940.582	5438
940.675	4453
940.768	5503
940.861	6967
940.954	7733
941.048	4006
941.141	4126
941.234	4801
941.327	5691
941.420	6408
941.513	6594
941.606	5515
941.699	5525
941.792	6085
941.885	6362
941.978	5944
942.071	6118
942.164	4093
942.257	4107
942.349	4974
942.442	5961
942.535	3233
942.628	5730
942.721	5250
942.813	5572
942.906	5437
942.999	5327
943.091	3689
943.184	4742
943.277	5538
943.369	4782
943.462	3464
943.554	5242
943.647	4950
943.739	6346
943.832	6591
943.924	2842
944.017	3369
944.109	4434
944.201	4637
944.294	5158
944.386	4940
944.478	5041
944.571	3790
944.663	4347
944.755	4427
944.847	5030
944.940	5051
945.032	2934
945.124	3723
945.216	5538
945.308	4755
945.400	4854
945.492	3738
945.584	6379
945.676	6766
945.768	5545
945.860	5571
945.952	5889
946.044	5167
946.136	4410
946.228	4391
946.320	4428
946.412	5374
946.503	6105
946.595	6236
946.687	4240
946.779	3188
946.870	3191
946.962	3386
947.054	4302
947.145	5003
947.237	4144
947.329	3229
947.420	4860
947.512	4090
947.603	2759
947.695	3328
947.786	3490
947.878	3260
947.969	4660
948.061	4644
948.152	4008
948.243	2754
948.335	3040
948.426	3270
948.517	4375
948.609	4412
948.700	4429
948.791	3835
948.882	3050
948.973	2870
949.065	4049
949.156	3690
949.247	2531
949.338	4029
949.429	2324
949.520	2208
949.611	3325
949.702	4650
949.793	3357
949.884	4229
949.975	3153
950.066	2012
950.157	2235
950.247	3048
950.338	3273
950.429	2822
950.520	4396
950.611	2670
950.701	3388
950.792	4644
950.883	4601
950.973	4173
951.064	3857
951.155	3700
951.245	3628
951.336	3862
951.427	4459
951.517	5613
951.608	4925
951.698	2982
951.788	2704
951.879	1964
951.969	2776
952.060	3151
952.150	3749
952.240	4567
952.331	3808
952.421	3695
952.511	2209
952.602	2009
952.692	2701
952.782	2564
952.872	3058
952.962	3997
953.052	3170
953.143	2575
953.233	3474
953.323	3003
953.413	3252
953.503	3639
953.593	3576
953.683	2705
953.773	1422
953.863	2561
953.953	2061
954.042	2931
954.132	2982
954.222	3833
954.312	2568
954.402	1944
954.492	2895
954.581	2805
954.671	3305
954.761	2347
954.850	3670
954.940	1688
955.030	1863
955.119	1221
955.209	1858
955.298	2359
955.388	3806
955.477	4877
955.567	1550
955.656	2675
955.746	2962
955.835	1605
955.925	2129
956.014	2989
956.103	3948
956.193	4256
956.282	3566
956.371	3120
956.461	2585
956.550	3233
956.639	2636
956.728	2556
956.817	2954
956.906	2523
956.995	3363
957.085	2233
957.174	3109
957.263	2456
957.352	3222
957.441	2611
957.530	3168
957.619	1853
957.708	2700
957.796	1505
957.885	2271
957.974	2911
958.063	3466
958.152	1131
958.241	1720
958.329	1580
958.418	2426
958.507	2077
958.596	3723
958.684	1669
958.773	2842
958.861	1507
958.950	1896
959.039	2405
959.127	1733
959.216	2955
959.304	2060
959.393	2744
959.481	2419
959.570	1101
959.658	1686
959.746	539
959.835	2443
959.923	2461
960.011	1070
960.100	2546
960.188	3366
960.276	2136
960.365	1552
960.453	1053
960.541	938
960.629	1429
960.717	1256
960.805	144
960.893	2018
960.981	2093
961.069	3711
961.158	3689
961.245	4190
961.333	3233
961.421	1621
961.509	2087
961.597	2507
961.685	1476
961.773	1847
961.861	2505
961.949	3666
962.036	939
962.124	2708
962.212	1000
962.299	2149
962.387	1385
962.475	1289
962.562	869
962.650	2678
962.738	1136
962.825	1532
962.913	2193
963.000	1894
963.088	1961
963.175	1528
963.263	1110
963.350	1567
963.438	1307
963.525	1567
963.612	2389
963.700	1195
963.787	2002
963.874	1559
963.962	1112
964.049	1126
964.136	1728
964.223	1243
964.310	1447
964.398	1294
964.485	1566
964.572	2544
964.659	1745
964.746	1398
964.833	943
964.920	689
965.007	1581
965.094	1886
965.181	1012
965.268	2833
965.355	1285
965.441	2008
965.528	564
965.615	2661
965.702	1437
965.789	1855
965.875	1403
965.962	2055
966.049	1615
966.136	3116
966.222	2273
966.309	2107
966.395	1509
966.482	2694
966.569	1715
966.655	2711
966.742	1433
966.828	1675
966.915	1305
967.001	2392
967.087	671
967.174	1337
967.260	2181
967.347	2047
967.433	1201
967.519	1791
967.605	1327
967.692	1952
967.778	1606
967.864	1677
967.950	1622
968.036	2012
968.123	2256
968.209	1789
968.295	601
968.381	2460
968.467	1234
968.553	183
968.639	1819
968.725	273
968.811	1868
968.897	2476
968.983	1136
969.069	899
969.154	1939
969.240	1369
969.326	968
969.412	1355
969.497	452
969.583	848
969.669	2751
969.755	1911
969.840	1612
969.926	4021
970.012	3663
970.097	4560
970.183	3207
970.268	3339
970.354	1345
970.439	627
970.525	1651
970.610	682
970.696	2523
970.781	976
970.866	173
970.952	1918
971.037	975
971.122	2276
971.208	2173
971.293	1977
971.378	829
971.463	1453
971.549	1602
971.634	1060
971.719	1656
971.804	1451
971.889	1834
971.974	687
972.059	1514
972.144	2009
972.229	981
972.314	1109
972.399	2046
972.484	1284
972.569	1348
972.654	1034
972.739	2191
972.824	1570
972.908	921
972.993	1102
973.078	777
973.163	1921
973.247	933
973.332	945
973.417	2761
973.501	752
973.586	1177
973.671	1224
973.755	938
973.840	834
973.924	2473
974.009	3100
974.093	2810
974.178	3694
974.262	2305
974.346	2332
974.431	2147
974.515	1537
974.600	1567
974.684	2091
974.768	1027
974.852	2874
974.937	999
975.021	1839
975.105	1019
975.189	1593
975.273	2074
975.358	1172
975.442	592
975.526	1712
975.610	1082
975.694	536
975.778	1747
975.862	1743
975.946	-770
976.030	2638
976.114	1075
976.198	1577
976.281	1513
976.365	2773
976.449	877
976.533	1301
976.617	240
976.700	1002
976.784	1458
976.868	539
976.951	1977
977.035	837
977.119	1323
977.202	1206
977.286	2033
977.369	3019
977.453	4174
977.536	3565
977.620	2505
977.703	2866
977.787	506
977.870	3044
977.953	2874
978.037	838
978.120	1803
978.203	1313
978.287	2004
978.370	1483
978.453	1545
978.536	1300
978.620	2143
978.703	2034
978.786	1257
978.869	1416
978.952	758
979.035	2906
979.118	2606
979.201	1001
979.284	1568
979.367	1303
979.450	2486
979.533	715
979.616	965
979.699	1390
979.782	1362
979.865	1343
979.948	1417
980.030	1472
980.113	1264
980.196	1239
980.279	2100
980.361	1919
980.444	1556
980.526	2520
980.609	3639
980.692	4662
980.774	3750
980.857	2668
980.939	3286
981.022	1710
981.104	2074
981.187	2758
981.269	2059
981.352	2258
981.434	1208
981.516	1691
981.599	2531
981.681	1893
981.763	1867
981.846	2269
981.928	2401
982.010	1415
982.092	712
982.174	2294
982.256	1681
982.339	1751
982.421	1578
982.503	2919
982.585	1416
982.667	1098
982.749	1726
982.831	2643
982.913	702
982.995	2887
983.077	1461
983.158	3331
983.240	1510
983.322	3311
983.404	4727
983.486	4118
983.568	3816
983.649	3867
983.731	2460
983.813	2417
983.894	2953
983.976	2158
984.058	2058
984.139	3378
984.221	1708
984.302	3539
984.384	2487
984.465	1869
984.547	3351
984.628	2194
984.710	2944
984.791	2870
984.872	1776
984.954	2060
985.035	3675
985.116	2381
985.198	2010
985.279	4143
985.360	2589
985.441	2503
985.522	3728
985.604	3076
985.685	424
985.766	3829
985.847	3371
985.928	2504
986.009	2400
986.090	3074
986.171	4055
986.252	2606
986.333	2714
986.414	2886
986.495	2417
986.576	2700
986.656	3416
986.737	4185
986.818	3041
986.899	3040
986.980	2922
987.060	3187
987.141	2392
987.222	3950
987.302	3953
987.383	5746
987.464	3899
987.544	4720
987.625	2643
987.705	4909
987.786	4965
987.866	4966
987.947	4497
988.027	4113
988.108	2944
988.188	4826
988.268	2703
988.349	3905
988.429	3444
988.509	4063
988.589	3469
988.670	2203
988.750	4557
988.830	2925
988.910	3874
988.990	4119
989.070	2840
989.151	3297
989.231	3003
989.311	3662
989.391	2345
989.471	3535
989.551	3083
989.631	2844
989.711	3506
989.791	3019
989.870	2328
989.950	4238
990.030	2656
990.110	3414
990.190	2158
990.269	1959
990.349	2828
990.429	2972
990.509	3442
990.588	2277
990.668	2631
990.747	2875
990.827	1767
990.907	2366
990.986	3308
991.066	2751
991.145	1364
991.225	3281
991.304	2147
991.383	2904
991.463	2867
991.542	3603
991.622	1340
991.701	1947
991.780	2339
991.859	2175
991.939	1840
992.018	2312
992.097	2960
992.176	1921
992.256	911
992.335	1630
992.414	1889
992.493	1852
992.572	1080
992.651	2724
992.730	1115
992.809	1499
992.888	750
992.967	1986
993.046	2152
993.125	1531
993.203	1802
993.282	2167
993.361	2272
993.440	2211
993.519	624
993.597	1472
993.676	1049
993.755	3140
993.834	1341
993.912	470
993.991	2635
994.069	393
994.148	1194
994.226	968
994.305	1112
994.384	986
994.462	2057
994.540	1110
994.619	84
994.697	1536
994.776	1355
994.854	2046
994.932	876
995.011	1098
995.089	71
995.167	986
995.245	1941
995.324	713
995.402	1892
995.480	1853
995.558	1179
995.636	286
995.714	455
995.792	2803
995.870	360
995.948	1058
996.026	1037
996.104	-27
996.182	1805
996.260	47
996.338	2
996.416	226
996.494	1047
996.572	1519
996.649	164
996.727	548
996.805	1519
996.883	603
996.960	-141
997.038	1159
997.116	1436
997.193	-107
997.271	-260
997.348	-43
997.426	930
997.504	491
997.581	1890
997.658	912
997.736	-1234
997.813	-16
997.891	1117
997.968	477
998.046	295
998.123	546
998.200	1388
998.277	340
998.355	404
998.432	-882
998.509	-136
998.586	1640
998.663	901
998.741	33
998.818	-9
998.895	289
998.972	449
999.049	1144
999.126	-237
999.203	486
999.280	45
999.357	-193
999.434	249
999.511	425
999.587	189
999.664	-774
999.741	503
999.818	1098
999.895	-177
999.971	-476
1000.048	260
1000.125	861
1000.202	-598
1000.278	-397
1000.355	787
1000.431	512
1000.508	-401
1000.584	-41
1000.661	664
1000.738	-682
1000.814	-632
1000.890	320
1000.967	-929
1001.043	1161
1001.120	-613
1001.196	1033
1001.272	-1054
1001.349	88
1001.425	674
1001.501	404
1001.577	-95
1001.654	952
1001.730	-282
1001.806	27
1001.882	-748
1001.958	358
1002.034	50
1002.110	-1147
1002.186	-1056
1002.262	-461
1002.338	-1356
1002.414	642
1002.490	625
1002.566	-753
1002.642	-913
1002.718	394
1002.794	-833
1002.870	-435
1002.945	-459
1003.021	-718
1003.097	-683
1003.173	509
1003.248	-245
1003.324	-207
1003.400	-126
1003.475	-953
1003.551	-458
1003.626	-565
1003.702	-519
1003.777	-626
1003.853	-566
1003.928	-490
1004.004	-1061
1004.079	-475
1004.155	-368
1004.230	-660
1004.305	703
1004.381	-734
1004.456	-1168
1004.531	-433
1004.607	-343
1004.682	-36
1004.757	-1376
1004.832	-669
1004.907	-1029
1004.982	323
1005.057	-831
1005.133	-867
1005.208	-871
1005.283	-732
1005.358	14
1005.433	-1241
1005.508	-169
1005.583	-862
1005.657	-957
1005.732	254
1005.807	-1264
1005.882	-760
1005.957	-898
1006.032	591
1006.106	-1032
1006.181	147
1006.256	-493
1006.331	-635
1006.405	-1403
1006.480	-349
1006.554	-1087
1006.629	-72
1006.704	-1138
1006.778	53
1006.853	-994
1006.927	-336
1007.002	-1241
1007.076	-645
1007.150	-1075
1007.225	-1113
1007.299	340
1007.373	-1468
1007.448	-1328
1007.522	-324
1007.596	-1418
1007.671	-218
1007.745	-488
1007.819	-1246
1007.893	-654
1007.967	-786
1008.041	-1386
1008.115	-75
1008.190	-1158
1008.264	-1080
1008.338	-2081
1008.412	-945
1008.486	-1318
1008.560	-503
1008.633	-1648
1008.707	-462
1008.781	-155
1008.855	-321
1008.929	-709
1009.003	-2210
1009.076	-849
1009.150	-1319
1009.224	-1142
1009.298	-683
1009.371	-1198
1009.445	-441
1009.519	-822
1009.592	-1969
1009.666	-1274
1009.739	-516
1009.813	-1752
1009.886	19
1009.960	-2472
1010.033	-170
1010.107	-462
1010.180	-1603
1010.253	-545
1010.327	-1453
1010.400	-1186
1010.473	-1606
1010.547	-881
1010.620	-1088
1010.693	-1274
1010.766	-881
1010.840	-1212
1010.913	-597
1010.986	-1835
1011.059	-1748
1011.132	-1721
1011.205	-866
1011.278	-1461
1011.351	-897
1011.424	-1031
1011.497	-1038
1011.570	-1032
1011.643	-687
1011.716	-1389
1011.789	-900
1011.862	-691
1011.934	-224
1012.007	-2009
1012.080	-1142
1012.153	-1342
1012.225	-301
1012.298	-1194
1012.371	-1989
1012.443	-1044
1012.516	-2044
1012.588	-1090
1012.661	-833
1012.733	-2146
1012.806	-566
1012.879	-1825
1012.951	-87
1013.023	-1481
1013.096	-942
1013.168	-1823
1013.241	-817
1013.313	-811
1013.385	-1087
1013.458	-1372
1013.530	-990
1013.602	-1539
1013.674	-426
1013.746	-1562
1013.819	-1307
1013.891	-1262
1013.963	-878
1014.035	-1441
1014.107	-897
1014.179	-463
1014.251	-1422
1014.323	-1114
1014.395	-945
1014.467	-1362
1014.539	-544
1014.611	-1707
1014.683	-912
1014.754	-864
1014.826	-2049
1014.898	-1253
1014.970	-1879
1015.042	-839
1015.113	-668
1015.185	-1482
1015.257	-1779
1015.328	-708
1015.400	-1395
1015.471	-1292
1015.543	-2169
1015.615	-1460
1015.686	42
1015.757	-911
1015.829	-1110
1015.901	-1585
1015.972	-1425
1016.043	-2058
1016.115	-1313
1016.186	-1242
1016.257	-1727
1016.328	-1650
1016.400	-913
1016.471	-2285
1016.542	-1934
1016.613	-1530
1016.685	-1304
1016.756	-965
1016.827	-1011
1016.898	-1430
1016.969	-1150
1017.040	-1769
1017.111	-1004
1017.182	-1521
1017.253	-951
1017.324	-1660
1017.395	-1317
1017.466	-1077
1017.537	-1195
1017.608	-1694
1017.678	-1135
1017.749	-1821
1017.820	-550
1017.891	-1877
1017.961	-1732
1018.032	-2262
1018.103	-1051
1018.173	-2831
1018.244	-1562
1018.315	-1235
1018.385	-606
1018.456	-2112
1018.526	-1842
1018.597	-1398
1018.667	-1451
1018.738	-1765
1018.808	-1651
1018.878	-2172
1018.949	-1573
1019.019	-1910
1019.089	-1226
1019.160	-1459
1019.230	-1425
1019.300	-1512
1019.371	-1981
1019.441	-658
1019.511	-1342
1019.581	-2084
1019.651	-1497
1019.721	-2039
1019.791	-1805
1019.861	-1830
1019.931	-1178
1020.001	-1170
1020.071	-1770
1020.141	-1132
1020.211	-1378
1020.281	-2279
1020.351	-1666
1020.421	-1891
1020.491	-2205
1020.560	-1751
1020.630	-1327
1020.700	-1592
1020.770	-1598
1020.839	-2022
1020.909	-1087
1020.979	-2265
1021.048	-1159
1021.118	-1543
1021.187	-1758
1021.257	-1787
1021.326	-1368
1021.396	-1833
1021.465	-1090
1021.535	-1883
1021.604	-2495
1021.674	-1242
1021.743	-1145
1021.812	-2435
1021.882	-539
1021.951	-1609
1022.020	-759
1022.089	-1631
1022.159	-2231
1022.228	-1405
1022.297	-2380
1022.366	-2677
1022.435	-1556
1022.504	-2213
1022.573	-840
1022.642	-1600
1022.711	-1754
1022.781	-2138
1022.849	-1842
1022.918	-2063
1022.987	-1598
1023.056	-2347
1023.125	-1401
1023.194	-2442
1023.263	-1811
1023.331	-1710
1023.400	-2136
1023.469	-1770
1023.538	-1427
1023.606	-2168
1023.675	-983
1023.744	-2210
1023.812	-1748
1023.881	-1508
1023.949	-1608
1024.018	-1901
1024.086	-1706
1024.155	-1620
1024.223	-1610
1024.292	-1398
1024.360	-995
1024.429	-2143
1024.497	-1407
1024.565	-1791
1024.634	-949
1024.702	-2026
1024.770	-2091
1024.838	-2263
1024.907	-783
1024.975	-2539
1025.043	-2042
1025.111	-1876
1025.179	-1746
1025.247	-1673
1025.315	-1539
1025.383	-1423
1025.451	-1895
1025.519	-2487
1025.587	-2031
1025.655	-2104
1025.723	-1776
1025.791	-1866
1025.859	-1600
1025.927	-1479
1025.995	-1574
1026.062	-2244
1026.130	-1529
1026.198	-2529
1026.266	-1469
1026.333	-1368
1026.401	-1346
1026.469	-1936
1026.536	-1820
1026.604	-2223
1026.671	-2198
1026.739	-1645
1026.806	-1766
1026.874	-2319
1026.941	-1287
1027.009	-1830
1027.076	-2353
1027.144	-1123
1027.211	-2068
1027.278	-2453
1027.345	-1871
1027.413	-2103
1027.480	-1467
1027.547	-2064
1027.614	-1273
1027.682	-1849
1027.749	-1716
1027.816	-2807
1027.883	-1620
1027.950	-1947
1028.017	-2199
1028.084	-1621
1028.151	-1919
1028.218	-1991
1028.285	-1436
1028.352	-2947
1028.419	-1299
1028.486	-1712
1028.553	-2159
1028.619	-2304
1028.686	-1239
1028.753	-2220
1028.820	-2077
1028.886	-1717
1028.953	-1611
1029.020	-2405
1029.086	-2591
1029.153	-2652
1029.220	-2263
1029.286	-2360
1029.353	-2022
1029.419	-2873
1029.486	-2083
1029.552	-2539
1029.619	-2005
1029.685	-3064
1029.751	-932
1029.818	-1346
1029.884	-1843
1029.951	-1338
1030.017	-2703
1030.083	-1945
1030.149	-1640
1030.216	-2779
1030.282	-1794
1030.348	-2262
1030.414	-1780
1030.480	-2640
1030.546	-1727
1030.612	-2033
1030.678	-2465
1030.744	-2313
1030.810	-1323
1030.876	-2528
1030.942	-2396
1031.008	-1921
1031.074	-2023
1031.140	-1921
1031.206	-2130
1031.272	-2685
1031.337	-1852
1031.403	-1166
1031.469	-2568
1031.534	-1866
1031.600	-1793
1031.666	-2066
1031.731	-2336
1031.797	-2426
1031.863	-1368
1031.928	-2010
1031.994	-1930
1032.059	-1469
1032.125	-1978
1032.190	-2314
1032.256	-1571
1032.321	-2489
1032.386	-2042
1032.452	-2426
1032.517	-1608
1032.582	-2161
1032.647	-1918
1032.713	-2190
1032.778	-1598
1032.843	-2474
1032.908	-2510
1032.974	-2140
1033.039	-2162
1033.104	-1290
1033.169	-2379
1033.234	-2049
1033.299	-1671
1033.364	-1694
1033.429	-1665
1033.494	-1803
1033.559	-1777
1033.624	-2372
1033.688	-1877
1033.753	-3025
1033.818	-2313
1033.883	-1829
1033.948	-1328
1034.013	-1561
1034.077	-1051
1034.142	-318
1034.207	-122
1034.271	-206
1034.336	991
1034.400	-78
1034.465	-1085
1034.530	-1556
1034.594	-1772
1034.658	-2467
1034.723	-1820
1034.787	-2027
1034.852	-2697
1034.916	-1752
1034.981	-2150
1035.045	-2327
1035.109	-901
1035.173	-2350
1035.238	-2130
1035.302	-2280
1035.366	-2118
1035.430	-2150
1035.495	-1905
1035.559	-2008
1035.623	-1406
1035.687	-2445
1035.751	-2002
1035.815	-2034
1035.879	-1562
1035.943	-1759
1036.007	-1593
1036.071	-1606
1036.135	-1489
1036.198	-1739
1036.262	-2481
1036.326	-2030
1036.390	-1860
1036.454	-1550
1036.517	-1082
1036.581	-2356
1036.645	-1510
1036.709	-1449
1036.772	-2449
1036.836	-1958
1036.900	-1678
1036.963	-2040
1037.026	-2311
1037.090	-2164
1037.154	-1517
1037.217	-2080
1037.280	-2488
1037.344	-1803
1037.407	-2268
1037.471	-2170
1037.534	-2359
1037.597	-2170
1037.661	-1780
1037.724	-2419
1037.787	-1724
1037.850	-2383
1037.913	-1753
1037.977	-1442
1038.040	-1749
1038.103	-2259
1038.166	-2040
1038.229	-1958
1038.292	-2642
1038.355	-2121
1038.418	-2238
1038.481	-1742
1038.544	-2336
1038.607	-2181
1038.670	-2273
1038.732	-2694
1038.795	-1783
1038.858	-2366
1038.921	-2129
1038.984	-1622
1039.046	-2621
1039.109	-2184
1039.172	-1899
1039.234	-2519
1039.297	-2255
1039.360	-2028
1039.422	-2543
1039.485	-2202
1039.547	-3075
1039.610	-1125
1039.672	-2330
1039.734	-2181
1039.797	-2461
1039.859	-1936
1039.922	-1776
1039.984	-2481
1040.046	-2056
1040.109	-1990
1040.171	-2527
1040.233	-2099
1040.295	-2138
1040.358	-1999
1040.420	-2008
1040.482	-2417
1040.544	-1618
1040.606	-2094
1040.668	-1642
1040.730	-2637
1040.792	-2411
1040.854	-2351
1040.916	-1946
1040.978	-2114
1041.040	-1375
1041.102	-2140
1041.164	-2231
1041.225	-2370
1041.287	-2390
1041.349	-2342
1041.411	-1633
1041.472	-2290
1041.534	-1669
1041.596	-2393
1041.657	-2665
1041.719	-2022
1041.781	-2280
1041.842	-2577
1041.904	-1774
1041.965	-2316
1042.027	-1804
1042.088	-1775
1042.150	-2064
1042.211	-1885
1042.272	-944
1042.334	-2241
1042.395	-1677
1042.456	-2224
1042.518	-2054
1042.579	-1777
1042.640	-2551
1042.701	-2401
1042.763	-1940
1042.824	-2384
1042.885	-1964
1042.946	-1836
1043.007	-1954
1043.068	-2407
1043.129	-2320
1043.190	-2814
1043.251	-2373
1043.312	-2378
1043.373	-1458
1043.434	-2117
1043.495	-1643
1043.556	-2131
1043.616	-2402
1043.677	-2257
1043.738	-2037
1043.799	-2134
1043.859	-2674
1043.920	-1926
1043.981	-1632
1044.041	-1931
1044.102	-1258
1044.162	-2169
1044.223	-2338
1044.284	-2040
1044.344	-1881
1044.405	-2345
1044.465	-1207
1044.525	-1894
1044.586	-1301
1044.646	-2386
1044.707	-2515
1044.767	-2654
1044.827	-1800
1044.887	-1773
1044.948	-1224
1045.008	-3042
1045.068	-1019
1045.128	-1806
1045.188	-1580
1045.249	-1493
1045.309	-1887
1045.369	-1833
1045.429	-1871
1045.489	-2315
1045.549	-2214
1045.609	-1932
1045.669	-1807
1045.729	-2755
1045.789	-1840
1045.848	-1455
1045.908	-1363
1045.968	-2227
1046.028	-1340
1046.088	-1377
1046.147	-1549
1046.207	-1462
1046.267	-2221
1046.326	-1268
1046.386	-1443
1046.446	-1652
1046.505	-1705
1046.565	-954
1046.624	-1216
1046.684	-967
1046.743	-739
1046.803	-932
1046.862	-48
1046.922	0
