'Start Wavelength	183.907
'End Wavelength	1046.922
'Gate Delay	5.000
'Gate Width (ms)	1.050
'Laser Output Level	0.000
'X Position	0.000
'Y Position	0.000
'Z Position	0.000
'Grid Point Number	1.000
'Shot Number	100.000
183.907	-151.000
183.977	-124.000
184.047	267
184.116	-285
184.186	661
184.256	57
184.325	128
184.395	-630
184.465	1124
184.534	-212
184.604	-418
184.674	523
184.743	88
184.813	591
184.883	619
184.952	-23
185.022	271
185.092	298
185.161	431
185.231	332
185.301	-448
185.370	588
185.440	-149
185.509	-93
185.579	315
185.649	-758
185.718	679
185.788	514
185.857	517
185.927	-375
185.996	51
186.066	-74
186.136	-560
186.205	221
186.275	600
186.344	109
186.414	-116
186.483	-169
186.553	1670
186.622	495
186.692	284
186.761	845
186.831	1182
186.900	-619
186.970	857
187.039	315
187.109	625
187.178	963
187.248	564
187.317	191
187.387	631
187.456	918
187.526	53
187.595	395
187.664	359
187.734	604
187.803	164
187.873	-49
187.942	753
188.012	281
188.081	-157
188.150	673
188.220	229
188.289	599
188.358	699
188.428	509
188.497	272
188.567	931
188.636	282
188.705	860
188.775	327
188.844	76
188.913	676
188.983	-126
189.052	-170
189.121	-28
189.191	789
189.260	69
189.329	215
189.399	-230
189.468	25
189.537	185
189.606	352
189.676	414
189.745	70
189.814	368
189.883	-16
189.953	422
190.022	609
190.091	-204
190.161	-219
190.230	122
190.299	480
190.368	-424
190.437	-338
190.507	-51
190.576	684
190.645	-470
190.714	825
190.783	-191
190.853	929
190.922	509
190.991	240
191.060	32
191.129	354
191.198	711
191.268	-145
191.337	-42
191.406	862
191.475	130
191.544	841
191.613	680
191.682	323
191.752	349
191.821	72
191.890	191
191.959	72
192.028	-127
192.097	644
192.166	250
192.235	-2
192.304	1115
192.373	355
192.442	-320
192.511	261
192.580	327
192.650	251
192.719	167
192.788	167
192.857	284
192.926	275
192.995	163
193.064	1197
193.133	-268
193.202	-631
193.271	264
193.340	172
193.409	162
193.478	743
193.547	39
193.615	47
193.684	-240
193.753	269
193.822	1203
193.891	65
193.960	922
194.029	104
194.098	582
194.167	-179
194.236	924
194.305	1176
194.374	891
194.443	76
194.512	712
194.580	-131
194.649	69
194.718	854
194.787	493
194.856	-364
194.925	1193
194.994	421
195.062	-233
195.131	37
195.200	111
195.269	-282
195.338	486
195.407	1439
195.475	-175
195.544	1209
195.613	173
195.682	739
195.751	234
195.819	-124
195.888	466
195.957	752
196.026	-292
196.094	928
196.163	471
196.232	142
196.301	858
196.369	789
196.438	305
196.507	-212
196.576	-77
196.644	668
196.713	128
196.782	-159
196.850	563
196.919	56
196.988	145
197.056	99
197.125	524
197.194	450
197.262	653
197.331	-41
197.400	185
197.468	176
197.537	124
197.606	648
197.674	-123
197.743	-354
197.812	-106
197.880	498
197.949	245
198.017	410
198.086	452
198.155	-513
198.223	868
198.292	326
198.360	-55
198.429	-124
198.497	252
198.566	-184
198.635	448
198.703	435
198.772	-6
198.840	-179
198.909	-147
198.977	1187
199.046	495
199.114	-43
199.183	-299
199.251	952
199.320	-290
199.388	311
199.457	-425
199.525	380
199.594	350
199.662	394
199.731	422
199.799	338
199.867	-350
199.936	-416
200.004	8
200.073	103
200.141	-84
200.210	647
200.278	318
200.346	587
200.415	242
200.483	-249
200.552	380
200.620	208
200.688	202
200.757	123
200.825	-3
200.893	-524
200.962	375
201.030	16
201.098	-383
201.167	911
201.235	124
201.303	340
201.372	580
201.440	80
201.508	234
201.577	177
201.645	408
201.713	455
201.781	-147
201.850	711
201.918	949
201.986	3
202.055	709
202.123	154
202.191	293
202.259	93
202.327	-39
202.396	212
202.464	282
202.532	1059
202.600	1181
202.669	1292
202.737	-62
202.805	431
202.873	491
202.941	-98
203.009	540
203.078	495
203.146	346
203.214	561
203.282	-980
203.350	957
203.418	184
203.487	1044
203.555	-706
203.623	495
203.691	746
203.759	90
203.827	515
203.895	169
203.963	-275
204.031	-6
204.099	57
204.168	402
204.236	-233
204.304	-158
204.372	441
204.440	722
204.508	97
204.576	142
204.644	462
204.712	111
204.780	-399
204.848	481
204.916	173
204.984	230
205.052	491
205.120	-243
205.188	68
205.256	-538
205.324	-598
205.392	-589
205.460	605
205.528	-967
205.596	146
205.664	259
205.732	-355
205.799	405
205.867	125
205.935	-571
206.003	277
206.071	373
206.139	-894
206.207	88
206.275	-53
206.343	-843
206.411	408
206.478	311
206.546	106
206.614	706
206.682	336
206.750	-15
206.818	179
206.885	543
206.953	-745
207.021	1129
207.089	541
207.157	-30
207.225	240
207.292	-93
207.360	-912
207.428	568
207.496	-78
207.563	342
207.631	545
207.699	339
207.767	-246
207.834	455
207.902	-354
207.970	348
208.038	161
208.105	-334
208.173	223
208.241	141
208.309	441
208.376	209
208.444	644
208.512	144
208.579	-460
208.647	1059
208.715	1151
208.782	-14
208.850	582
208.918	148
208.985	-727
209.053	212
209.120	-443
209.188	225
209.256	350
209.323	-846
209.391	-561
209.459	942
209.526	-62
209.594	-142
209.661	155
209.729	654
209.796	299
209.864	938
209.932	-411
209.999	1565
210.067	-83
210.134	533
210.202	-313
210.269	1500
210.337	1951
210.404	121
210.472	353
210.539	644
210.607	-511
210.674	72
210.742	758
210.809	97
210.877	-172
210.944	594
211.012	-678
211.079	1605
211.146	309
211.214	480
211.281	697
211.349	1579
211.416	735
211.484	1298
211.551	-5
211.618	450
211.686	416
211.753	-77
211.821	500
211.888	580
211.955	285
212.023	833
212.090	320
212.157	-107
212.225	388
212.292	580
212.359	-22
212.427	480
212.494	-131
212.561	87
212.629	351
212.696	-154
212.763	834
212.831	-90
212.898	11
212.965	17
213.032	-166
213.100	163
213.167	-138
213.234	548
213.301	480
213.369	402
213.436	-434
213.503	315
213.570	660
213.638	818
213.705	-263
213.772	110
213.839	141
213.906	772
213.973	35
214.041	-793
214.108	341
214.175	59
214.242	-457
214.309	131
214.376	-313
214.444	-83
214.511	88
214.578	-196
214.645	929
214.712	708
214.779	-143
214.846	100
214.913	1272
214.980	1019
215.048	634
215.115	1572
215.182	1168
215.249	942
215.316	63
215.383	579
215.450	259
215.517	170
215.584	441
215.651	528
215.718	-510
215.785	790
215.852	-400
215.919	322
215.986	27
216.053	263
216.120	-422
216.187	-220
216.254	431
216.321	81
216.388	432
216.455	150
216.522	-286
216.589	-50
216.656	73
216.722	-50
216.789	-151
216.856	13
216.923	-291
216.990	425
217.057	98
217.124	691
217.191	-314
217.258	1063
217.324	296
217.391	1032
217.458	-205
217.525	475
217.592	588
217.659	-993
217.725	1174
217.792	171
217.859	996
217.926	149
217.993	683
218.059	760
218.126	-259
218.193	-396
218.260	-477
218.327	18
218.393	-547
218.460	-672
218.527	79
218.594	246
218.660	-187
218.727	589
218.794	-389
218.860	830
218.927	-78
218.994	505
219.061	-560
219.127	790
219.194	1
219.261	149
219.327	-1121
219.394	627
219.461	-922
219.527	566
219.594	426
219.661	425
219.727	239
219.794	681
219.860	795
219.927	1503
219.994	2063
220.060	1743
220.127	3471
220.193	3262
220.260	1317
220.326	741
220.393	855
220.460	-22
220.526	-478
220.593	-228
220.659	1878
220.726	41
220.792	139
220.859	-338
220.925	119
220.992	-343
221.058	-99
221.125	119
221.191	-609
221.258	-519
221.324	1078
221.391	320
221.457	-366
221.524	-112
221.590	-32
221.657	329
221.723	-1170
221.789	524
221.856	385
221.922	-73
221.989	-139
222.055	-249
222.121	-452
222.188	1387
222.254	581
222.321	814
222.387	-646
222.453	30
222.520	-203
222.586	-260
222.652	700
222.719	-114
222.785	663
222.851	569
222.918	95
222.984	772
223.050	-146
223.116	-705
223.183	670
223.249	-234
223.315	-674
223.382	529
223.448	-183
223.514	-1100
223.580	717
223.647	-292
223.713	-674
223.779	512
223.845	-67
223.911	417
223.978	-1075
224.044	-10
224.110	-684
224.176	247
224.242	337
224.309	-289
224.375	1017
224.441	421
224.507	-111
224.573	-1544
224.639	604
224.705	-704
224.772	233
224.838	-547
224.904	971
224.970	-494
225.036	-330
225.102	-977
225.168	974
225.234	39
225.300	-41
225.366	299
225.432	675
225.499	921
225.565	-389
225.631	-402
225.697	-77
225.763	233
225.829	-506
225.895	-686
225.961	80
226.027	159
226.093	-431
226.159	923
226.225	381
226.291	663
226.357	-511
226.423	675
226.489	613
226.554	2
226.620	58
226.686	-17
226.752	-170
226.818	-377
226.884	-124
226.950	568
227.016	382
227.082	495
227.148	438
227.214	420
227.279	652
227.345	873
227.411	2669
227.477	4033
227.543	5171
227.609	5587
227.674	6502
227.740	3434
227.806	2202
227.872	778
227.938	1164
228.003	1841
228.069	-575
228.135	530
228.201	838
228.267	397
228.332	-213
228.398	-466
228.464	243
228.530	-569
228.595	262
228.661	-364
228.727	-675
228.792	1027
228.858	-903
228.924	-1735
228.990	1104
229.055	-856
229.121	421
229.187	-335
229.252	-889
229.318	-250
229.384	466
229.449	229
229.515	-1725
229.581	-932
229.646	1323
229.712	-56
229.777	-343
229.843	-190
229.909	-188
229.974	-260
230.040	740
230.105	83
230.171	-536
230.236	335
230.302	-469
230.368	-500
230.433	-1229
230.499	267
230.564	624
230.630	-969
230.695	263
230.761	1377
230.826	-1545
230.892	936
230.957	-1031
231.023	-190
231.088	138
231.154	-323
231.219	763
231.284	-851
231.350	-62
231.415	-655
231.481	424
231.546	13
231.612	194
231.677	-169
231.742	-1170
231.808	996
231.873	-294
231.939	-2158
232.004	834
232.069	586
232.135	-504
232.200	27
232.265	282
232.331	-433
232.396	-402
232.461	-479
232.527	-966
232.592	-224
232.657	279
232.723	-209
232.788	19
232.853	598
232.918	415
232.984	-303
233.049	335
233.114	-383
233.179	237
233.245	1862
233.310	-589
233.375	-1330
233.440	708
233.506	-610
233.571	-236
233.636	-63
233.701	308
233.766	-423
233.832	155
233.897	93
233.962	-1651
234.027	902
234.092	340
234.157	545
234.222	-313
234.288	781
234.353	-176
234.418	20
234.483	295
234.548	72
234.613	-176
234.678	-161
234.743	-1094
234.808	1053
234.873	-1256
234.938	1005
235.004	-246
235.069	-133
235.134	-104
235.199	97
235.264	-130
235.329	-877
235.394	200
235.459	1179
235.524	-1171
235.589	740
235.654	-221
235.719	-1207
235.784	541
235.849	267
235.913	264
235.978	414
236.043	-272
236.108	-30
236.173	-666
236.238	945
236.303	191
236.368	-621
236.433	623
236.498	-759
236.563	-533
236.627	-329
236.692	615
236.757	545
236.822	283
236.887	-269
236.952	946
237.017	-1628
237.081	696
237.146	-644
237.211	407
237.276	-276
237.341	-301
237.405	-1287
237.470	-493
237.535	142
237.600	530
237.664	501
237.729	-745
237.794	-1705
237.859	-434
237.923	466
237.988	-100
238.053	308
238.118	2
238.182	-764
238.247	1214
238.312	-644
238.376	539
238.441	-1707
238.506	-39
238.570	-1276
238.635	677
238.700	240
238.764	-621
238.829	876
238.893	-675
238.958	1017
239.023	373
239.087	516
239.152	1169
239.216	681
239.281	661
239.346	1245
239.410	903
239.475	632
239.539	1134
239.604	1126
239.668	2638
239.733	3292
239.797	8459
239.862	10973
239.926	10525
239.991	7523
240.055	3966
240.120	2405
240.184	1905
240.249	735
240.313	933
240.378	872
240.442	733
240.507	383
240.571	-598
240.635	-482
240.700	641
240.764	-296
240.829	802
240.893	-1217
240.957	309
241.022	139
241.086	876
241.151	-852
241.215	-331
241.279	1189
241.344	-1007
241.408	638
241.472	-1025
241.537	1280
241.601	-52
241.665	-357
241.730	-456
241.794	1137
241.858	-808
241.922	528
241.987	158
242.051	-703
242.115	-974
242.179	674
242.244	-582
242.308	1242
242.372	-85
242.436	-663
242.501	361
242.565	-153
242.629	-1484
242.693	-31
242.757	-647
242.822	395
242.886	472
242.950	611
243.014	-780
243.078	-18
243.142	-800
243.206	-219
243.271	-441
243.335	-722
243.399	125
243.463	-539
243.527	14
243.591	-944
243.655	493
243.719	-308
243.783	769
243.847	-145
243.911	251
243.975	-802
244.040	-1413
244.104	1340
244.168	-518
244.232	-895
244.296	-243
244.360	100
244.424	-1111
244.488	-306
244.552	485
244.615	-1679
244.679	611
244.743	-860
244.807	-1334
244.871	330
244.935	716
244.999	-1377
245.063	-244
245.127	522
245.191	183
245.255	-88
245.319	-135
245.383	-1423
245.446	800
245.510	-261
245.574	648
245.638	-68
245.702	-1171
245.766	-102
245.829	864
245.893	-859
245.957	-833
246.021	716
246.085	131
246.149	-143
246.212	1349
246.276	125
246.340	-1362
246.404	67
246.467	1020
246.531	-1348
246.595	770
246.659	1404
246.722	-1165
246.786	350
246.850	-98
246.913	-302
246.977	-1211
247.041	404
247.104	-176
247.168	266
247.232	-950
247.295	948
247.359	389
247.423	-230
247.486	-56
247.550	604
247.614	-505
247.677	496
247.741	485
247.804	66
247.868	1495
247.932	78
247.995	1189
248.059	790
248.122	-1565
248.186	1150
248.249	-262
248.313	767
248.376	1391
248.440	346
248.503	-1036
248.567	1511
248.630	-1022
248.694	146
248.757	513
248.821	1406
248.884	2090
248.948	-883
249.011	507
249.075	932
249.138	871
249.202	-93
249.265	-473
249.328	1045
249.392	-1299
249.455	1463
249.519	-97
249.582	241
249.645	290
249.709	214
249.772	-3
249.835	134
249.899	-281
249.962	478
250.025	260
250.089	530
250.152	1284
250.215	-94
250.279	-998
250.342	-218
250.405	497
250.468	-1236
250.532	166
250.595	282
250.658	-527
250.721	850
250.785	-1070
250.848	828
250.911	-740
250.974	622
251.038	-853
251.101	1201
251.164	260
251.227	514
251.290	-1083
251.354	947
251.417	-896
251.480	-585
251.543	-614
251.606	140
251.669	242
251.732	370
251.795	-41
251.859	290
251.922	-700
251.985	331
252.048	33
252.111	114
252.174	-608
252.237	451
252.300	1558
252.363	-162
252.426	17
252.489	-511
252.552	90
252.615	-461
252.678	330
252.741	513
252.804	-430
252.867	90
252.930	-299
252.993	-526
253.056	1017
253.119	722
253.182	-189
253.245	-190
253.308	590
253.371	-122
253.434	-469
253.497	1126
253.559	1387
253.622	220
253.685	56
253.748	-314
253.811	188
253.874	65
253.937	552
254.000	414
254.062	33
254.125	571
254.188	955
254.251	-438
254.314	366
254.376	-170
254.439	-83
254.502	153
254.565	-57
254.628	753
254.690	182
254.753	125
254.816	-489
254.878	924
254.941	1099
255.004	291
255.067	-378
255.129	353
255.192	492
255.255	-603
255.317	422
255.380	-20
255.443	348
255.505	1089
255.568	-471
255.631	531
255.693	627
255.756	551
255.819	1695
255.881	1759
255.944	1633
256.006	262
256.069	-675
256.132	336
256.194	-32
256.257	386
256.319	130
256.382	996
256.444	3664
256.507	2324
256.569	1313
256.632	417
256.694	-313
256.757	1500
256.819	811
256.882	-857
256.944	-323
257.007	1663
257.069	-598
257.132	-326
257.194	1078
257.257	278
257.319	100
257.381	-439
257.444	364
257.506	-861
257.569	306
257.631	769
257.693	220
257.756	-224
257.818	-188
257.880	192
257.943	1129
258.005	-57
258.067	-435
258.130	423
258.192	24
258.254	60
258.317	-721
258.379	1144
258.441	219
258.503	1203
258.566	217
258.628	1792
258.690	-536
258.753	1231
258.815	314
258.877	-517
258.939	369
259.001	1677
259.064	641
259.126	-46
259.188	-41
259.250	854
259.312	345
259.375	983
259.437	483
259.499	166
259.561	309
259.623	1251
259.685	-42
259.747	706
259.809	617
259.872	722
259.934	885
259.996	903
260.058	1435
260.120	-462
260.182	692
260.244	823
260.306	-478
260.368	411
260.430	340
260.492	917
260.554	926
260.616	-9
260.678	785
260.740	958
260.802	127
260.864	1621
260.926	-1134
260.988	984
261.050	240
261.112	237
261.174	1710
261.236	866
261.298	781
261.359	1034
261.421	1421
261.483	-29
261.545	1077
261.607	-568
261.669	896
261.731	1495
261.793	1193
261.854	-761
261.916	1193
261.978	329
262.040	604
262.102	1180
262.164	358
262.225	1198
262.287	324
262.349	537
262.411	441
262.472	1695
262.534	18
262.596	-70
262.658	568
262.719	472
262.781	1025
262.843	248
262.904	477
262.966	703
263.028	433
263.090	1034
263.151	869
263.213	481
263.275	-540
263.336	628
263.398	997
263.459	59
263.521	693
263.583	2266
263.644	1058
263.706	399
263.767	265
263.829	571
263.891	431
263.952	147
264.014	-45
264.075	620
264.137	247
264.198	1074
264.260	717
264.321	540
264.383	-23
264.444	553
264.506	326
264.567	694
264.629	590
264.690	-697
264.752	636
264.813	687
264.875	671
264.936	1319
264.998	121
265.059	1280
265.120	781
265.182	811
265.243	518
265.305	1652
265.366	1308
265.427	1395
265.489	2184
265.550	219
265.611	503
265.673	819
265.734	715
265.795	464
265.857	796
265.918	445
265.979	1717
266.040	-53
266.102	-238
266.163	1093
266.224	1022
266.286	847
266.347	214
266.408	1251
266.469	1292
266.530	568
266.592	866
266.653	1179
266.714	829
266.775	1533
266.836	940
266.898	197
266.959	756
267.020	1455
267.081	1488
267.142	1477
267.203	665
267.264	-80
267.326	1035
267.387	1259
267.448	-603
267.509	1574
267.570	979
267.631	427
267.692	513
267.753	1163
267.814	43
267.875	268
267.936	1099
267.997	615
268.058	71
268.119	767
268.180	419
268.241	392
268.302	515
268.363	299
268.424	381
268.485	565
268.546	704
268.607	1076
268.668	528
268.729	538
268.790	563
268.851	1179
268.912	638
268.972	1316
269.033	1229
269.094	508
269.155	1850
269.216	1627
269.277	634
269.338	1110
269.398	219
269.459	582
269.520	1630
269.581	141
269.642	448
269.702	458
269.763	679
269.824	444
269.885	723
269.945	815
270.006	539
270.067	-172
270.128	1101
270.188	843
270.249	956
270.310	511
270.370	900
270.431	890
270.492	698
270.553	1112
270.613	816
270.674	918
270.734	840
270.795	1174
270.856	1434
270.916	642
270.977	972
271.038	1260
271.098	744
271.159	1066
271.219	411
271.280	364
271.340	793
271.401	773
271.462	668
271.522	128
271.583	1166
271.643	766
271.704	937
271.764	1100
271.825	571
271.885	1862
271.946	2786
272.006	1392
272.066	1158
272.127	3060
272.187	7340
272.248	6042
272.308	1738
272.369	1678
272.429	1814
272.489	248
272.550	1255
272.610	1412
272.671	1619
272.731	864
272.791	698
272.852	943
272.912	901
272.972	1706
273.033	449
273.093	718
273.153	1477
273.214	1387
273.274	908
273.334	971
273.394	1392
273.455	1106
273.515	1590
273.575	1328
273.635	1488
273.696	1360
273.756	1170
273.816	1458
273.876	2001
273.936	1098
273.997	1295
274.057	407
274.117	858
274.177	1376
274.237	979
274.297	1930
274.358	1130
274.418	1379
274.478	1383
274.538	1040
274.598	764
274.658	1610
274.718	1029
274.778	1546
274.838	1169
274.898	1052
274.958	1486
275.018	2342
275.078	2200
275.138	1634
275.198	2015
275.258	1094
275.318	1541
275.378	1876
275.438	1092
275.498	807
275.558	1770
275.618	2218
275.678	1716
275.738	1994
275.798	1609
275.858	2032
275.918	1519
275.978	1547
276.038	2109
276.098	1822
276.157	2009
276.217	1983
276.277	2612
276.337	1635
276.397	882
276.457	1768
276.517	1791
276.576	1972
276.636	2069
276.696	1561
276.756	1354
276.815	1690
276.875	2428
276.935	900
276.995	1975
277.055	2106
277.114	3161
277.174	1998
277.234	1921
277.293	528
277.353	1647
277.413	979
277.472	1198
277.532	1342
277.592	1730
277.651	3784
277.711	6721
277.771	3016
277.830	7378
277.890	6590
277.950	4877
278.009	14322
278.069	7220
278.128	5193
278.188	7949
278.248	4452
278.307	8095
278.367	6526
278.426	2811
278.486	2165
278.545	2069
278.605	2587
278.664	1823
278.724	1180
278.783	2960
278.843	3077
278.902	1549
278.962	1266
279.021	1351
279.081	2532
279.140	2518
279.199	1921
279.259	2347
279.318	3162
279.378	3234
279.437	4944
279.496	12123
279.556	49428
279.615	39972
279.675	10559
279.734	6231
279.793	5388
279.853	8471
279.912	4788
279.971	2630
280.031	2659
280.090	4189
280.149	6466
280.208	6819
280.268	28392
280.327	32304
280.386	7959
280.445	4334
280.505	3092
280.564	2531
280.623	2190
280.682	1991
280.742	2197
280.801	2133
280.860	2068
280.919	1476
280.978	2372
281.037	2053
281.097	1698
281.156	2354
281.215	1983
281.274	1890
281.333	2364
281.392	1675
281.451	2118
281.510	1884
281.569	2031
281.628	1374
281.688	1686
281.747	2290
281.806	2304
281.865	1638
281.924	896
281.983	2191
282.042	1748
282.101	1717
282.160	1133
282.219	1487
282.278	1229
282.337	1271
282.396	1578
282.454	2430
282.513	2206
282.572	1720
282.631	2004
282.690	1652
282.749	1644
282.808	1274
282.867	1760
282.926	1044
282.985	2240
283.043	2381
283.102	1406
283.161	1814
283.220	2208
283.279	1955
283.338	1334
283.396	1575
283.455	1698
283.514	1569
283.573	2042
283.631	1466
283.690	1947
283.749	1387
283.808	1649
283.866	1786
283.925	1996
283.984	1714
284.043	2454
284.101	1932
284.160	1310
284.219	2114
284.277	2752
284.336	2389
284.395	2490
284.453	2350
284.512	2605
284.570	2587
284.629	2856
284.688	3347
284.746	2783
284.805	2225
284.863	4249
284.922	4536
284.981	5868
285.039	8473
285.098	13839
285.156	29541
285.215	55787
285.273	57381
285.332	37436
285.390	19876
285.449	11984
285.507	8968
285.566	6416
285.624	5399
285.683	4828
285.741	4490
285.799	3228
285.858	3067
285.916	2868
285.975	2662
286.033	2478
286.091	3149
286.150	2160
286.208	2027
286.267	1811
286.325	2844
286.383	2615
286.442	1507
286.500	2050
286.558	2184
286.616	2943
286.675	2651
286.733	2113
286.791	2180
286.850	1962
286.908	2453
286.966	1934
287.024	1524
287.083	2385
287.141	1319
287.199	2370
287.257	2446
287.315	2555
287.374	2653
287.432	1680
287.490	1563
287.548	1906
287.606	1360
287.664	1916
287.723	2020
287.781	2528
287.839	2399
287.897	1424
287.955	1465
288.013	2035
288.071	1897
288.129	1929
288.187	2572
288.245	2992
288.303	2008
288.361	1488
288.419	1197
288.477	2434
288.535	2467
288.593	2404
288.651	1755
288.709	1878
288.767	2378
288.825	2545
288.883	2270
288.941	2035
288.999	1782
289.057	2358
289.115	2673
289.173	1874
289.231	1811
289.289	1972
289.346	1485
289.404	2000
289.462	2911
289.520	1943
289.578	2165
289.636	3334
289.694	1933
289.751	2196
289.809	2313
289.867	2557
289.925	3199
289.983	1717
290.040	2574
290.098	2464
290.156	1666
290.214	2653
290.271	1933
290.329	3242
290.387	1692
290.444	2944
290.502	2487
290.560	2165
290.617	2291
290.675	1877
290.733	3059
290.790	2424
290.848	2705
290.906	2435
290.963	1642
291.021	1909
291.078	2213
291.136	1972
291.194	2093
291.251	2360
291.309	2155
291.366	2751
291.424	2179
291.481	2015
291.539	2417
291.596	2072
291.654	2233
291.711	2191
291.769	2277
291.826	2437
291.884	2531
291.941	1542
291.999	2166
292.056	2023
292.114	2550
292.171	1686
292.228	3198
292.286	3254
292.343	2370
292.401	2280
292.458	3404
292.515	2337
292.573	2511
292.630	2594
292.687	2329
292.745	2138
292.802	2210
292.859	2627
292.917	2480
292.974	2634
293.031	2669
293.089	2106
293.146	2952
293.203	2955
293.260	2455
293.318	2036
293.375	1668
293.432	2036
293.489	2403
293.546	2704
293.604	2086
293.661	3092
293.718	2942
293.775	3421
293.832	2283
293.889	3066
293.947	2964
294.004	2245
294.061	2584
294.118	2410
294.175	3406
294.232	3158
294.289	2164
294.346	2236
294.403	3154
294.460	2628
294.517	2459
294.574	2268
294.631	2067
294.688	2423
294.745	3037
294.802	3096
294.859	2498
294.916	2247
294.973	2348
295.030	1721
295.087	1615
295.144	2246
295.201	2329
295.258	2208
295.315	2452
295.372	2286
295.429	1883
295.486	2022
295.542	1812
295.599	1798
295.656	1916
295.713	2568
295.770	2669
295.827	2452
295.883	2167
295.940	2474
295.997	1837
296.054	1499
296.111	2555
296.167	3336
296.224	1674
296.281	1603
296.338	1554
296.394	1822
296.451	1882
296.508	1621
296.564	1920
296.621	2025
296.678	2903
296.734	3888
296.791	2532
296.848	2237
296.904	2458
296.961	2712
297.018	2097
297.074	2160
297.131	2427
297.187	2779
297.244	2425
297.301	2446
297.357	3749
297.414	2425
297.470	2151
297.527	2470
297.583	2198
297.640	2512
297.696	2957
297.753	2699
297.809	2244
297.866	2013
297.922	1812
297.979	2242
298.035	1807
298.092	2682
298.148	2254
298.204	2706
298.261	2788
298.317	2884
298.374	2803
298.430	2284
298.486	2323
298.543	2087
298.599	2012
298.656	2608
298.712	2139
298.768	1767
298.824	1627
298.881	2119
298.937	2367
298.993	2799
299.050	2518
299.106	2628
299.162	3041
299.218	2502
299.275	2778
299.331	3956
299.387	3242
299.443	6599
299.500	17442
299.556	19264
299.612	8261
299.668	7002
299.724	15693
299.780	24730
299.837	11300
299.893	7757
299.949	13292
300.005	21531
300.061	16401
300.117	24860
300.173	12290
300.229	6644
300.285	4379
300.341	4469
300.397	3144
300.453	3830
300.510	4358
300.566	5101
300.622	8962
300.678	24559
300.734	34770
300.790	17740
300.845	10838
300.901	13896
300.957	24619
301.013	12391
301.069	6336
301.125	4986
301.181	4120
301.237	3831
301.293	2744
301.349	3668
301.405	2763
301.461	2647
301.516	2463
301.572	3389
301.628	2120
301.684	2577
301.740	2397
301.796	2509
301.851	2312
301.907	3005
301.963	2579
302.019	2828
302.074	5573
302.130	5410
302.186	3817
302.242	2781
302.297	1818
302.353	2003
302.409	2321
302.464	2043
302.520	2864
302.576	2586
302.631	3502
302.687	2875
302.743	2005
302.798	2408
302.854	1957
302.910	2612
302.965	1994
303.021	2657
303.076	2045
303.132	2394
303.187	2236
303.243	1378
303.299	2042
303.354	2049
303.410	2907
303.465	1716
303.521	2180
303.576	1858
303.632	1652
303.687	2443
303.743	2529
303.798	2993
303.853	2531
303.909	2313
303.964	2217
304.020	2374
304.075	2538
304.130	1493
304.186	2388
304.241	3504
304.297	1599
304.352	2614
304.358	2645
304.407	2896
304.449	3257
304.463	3384
304.518	2698
304.539	2454
304.573	2043
304.629	1825
304.630	1839
304.684	2511
304.720	2595
304.739	2634
304.794	2721
304.811	2712
304.850	2686
304.902	2371
304.905	2349
304.960	1771
304.992	1849
305.015	1921
305.071	1622
305.083	1769
305.126	2237
305.173	1563
305.181	1470
305.236	1878
305.264	2124
305.292	2265
305.347	2263
305.354	2234
305.402	2216
305.445	2430
305.457	2472
305.512	2521
305.535	2304
305.567	2042
305.622	1794
305.626	1831
305.678	2333
305.716	1714
305.733	1452
305.788	2198
305.807	2120
305.843	2053
305.897	2636
305.898	2643
305.953	2596
305.988	2025
306.008	1676
306.063	1836
306.078	1787
306.118	1699
306.168	1996
306.173	2024
306.228	1497
306.259	1462
306.283	1421
306.338	1137
306.349	1223
306.393	1648
306.440	1838
306.448	1841
306.503	1933
306.530	1488
306.558	1199
306.613	2018
306.620	2029
306.668	1831
306.711	1467
306.723	1375
306.778	1694
306.801	1794
306.833	1968
306.888	1617
306.892	1631
306.943	1867
306.982	1825
306.997	1720
307.052	1030
307.072	1014
307.107	1259
307.162	1728
307.163	1728
307.217	1607
307.253	1729
307.272	1738
307.327	1902
307.343	1660
307.381	1194
307.434	1212
307.436	1220
307.491	1017
307.524	1419
307.546	1526
307.600	1125
307.614	1136
307.655	1525
307.704	1669
307.710	1668
307.765	1923
307.795	1736
307.819	1471
307.874	1323
307.885	1286
307.929	1400
307.975	2111
307.984	2198
308.038	1872
308.065	1570
308.093	1452
308.148	1394
308.156	1499
308.202	1866
308.246	1625
308.257	1529
308.312	1394
308.336	1352
308.366	1420
308.421	1329
308.426	1307
308.475	1269
308.517	1432
308.530	1376
308.585	1142
308.607	896
308.639	836
308.694	784
308.697	833
308.748	1640
308.787	1547
308.803	1413
308.857	1516
308.877	1268
308.912	1031
308.967	1750
308.967	1753
309.021	2005
309.058	2344
309.076	2423
309.130	2315
309.148	2339
309.185	3056
309.238	4167
309.239	4170
309.293	4380
309.328	4327
309.348	4069
309.402	2970
309.418	2702
309.457	2763
309.508	2611
309.511	2613
309.566	3119
309.598	3406
309.620	3721
309.674	4856
309.688	5198
309.729	5212
309.778	4535
309.783	4471
309.837	3862
309.868	3359
309.892	3210
309.946	2846
309.959	2836
310.001	2561
310.049	2428
310.055	2426
310.109	2059
310.139	2080
310.163	1948
310.218	1711
310.229	1551
310.272	1645
310.319	2165
310.326	2145
310.381	1979
310.409	1744
310.435	1793
310.489	1993
310.499	2056
310.543	1879
310.589	1608
310.598	1635
310.652	1982
310.679	2016
310.706	1882
310.760	1725
310.769	1692
310.814	2210
310.859	2846
310.868	2788
310.923	2298
310.948	2017
310.977	1960
311.031	2127
311.038	2137
311.085	1782
311.128	1313
311.139	1454
311.193	2288
311.218	2727
311.247	2767
311.301	2691
311.308	2691
311.356	2614
311.398	2529
311.410	2529
311.464	2394
311.488	2384
311.518	2234
311.572	2029
311.578	2005
311.626	2248
311.668	2419
311.680	2488
311.734	2777
311.758	2934
311.788	2629
311.842	2064
311.847	2009
311.896	2200
311.937	2365
311.950	2255
312.004	1777
312.027	1583
312.058	1822
312.112	2268
312.117	2315
312.165	1895
312.207	1548
312.297	2085
312.386	1706
312.476	1629
312.566	2041
312.656	2546
312.745	2454
312.835	3150
312.925	2293
313.015	3286
313.104	2495
313.194	3057
313.284	2261
313.374	3231
313.463	3284
313.553	3771
313.643	3485
313.732	4038
313.822	3086
313.912	4374
314.001	4316
314.091	4535
314.180	4218
314.270	5114
314.360	3424
314.449	4333
314.539	3443
314.628	4718
314.718	4426
314.808	3873
314.897	5502
314.987	5822
315.076	5494
315.166	5894
315.255	5098
315.345	5030
315.434	4682
315.524	5292
315.613	5315
315.703	7624
315.792	20636
315.881	61641
315.971	19777
316.060	7983
316.150	6147
316.239	5612
316.328	4410
316.418	4705
316.507	6018
316.597	6652
316.686	6664
316.775	6178
316.865	5383
316.954	5046
317.043	4274
317.133	3782
317.222	4047
317.311	3802
317.400	2421
317.490	5494
317.579	4668
317.668	6480
317.757	9929
317.847	33320
317.936	91422
318.025	29419
318.114	26057
318.203	12227
318.293	5930
318.382	8574
318.471	8973
318.560	7796
318.649	5892
318.738	4798
318.828	3876
318.917	2966
319.006	2929
319.095	2931
319.184	3130
319.273	3516
319.362	3530
319.451	2823
319.540	3049
319.629	2895
319.718	3956
319.807	3336
319.896	3353
319.985	3416
320.074	4220
320.163	3589
320.252	3972
320.341	3743
320.430	4001
320.519	4772
320.608	4539
320.697	5577
320.786	5637
320.875	7086
320.964	8154
321.053	7855
321.142	7919
321.230	9699
321.319	10014
321.408	11347
321.497	10950
321.586	10375
321.675	8202
321.764	8747
321.852	8889
321.941	8680
322.030	8811
322.119	9516
322.207	10991
322.296	12345
322.385	12537
322.474	13724
322.562	13753
322.651	11488
322.740	10322
322.829	8357
322.917	6276
323.006	6016
323.095	6076
323.183	5305
323.272	5748
323.361	5016
323.449	5404
323.538	4633
323.626	3948
323.715	4967
323.804	4229
323.892	3740
323.981	3975
324.069	4539
324.158	3404
324.246	3970
324.335	3534
324.424	3503
324.512	3823
324.601	4277
324.689	3563
324.778	4062
324.866	2867
324.954	2792
325.043	3566
325.131	2223
325.220	3791
325.308	4032
325.397	3890
325.485	3353
325.574	2811
325.662	3109
325.750	2987
325.839	4298
325.927	3291
326.015	2624
326.104	2767
326.192	3013
326.280	3356
326.369	3693
326.457	3430
326.545	3565
326.634	3269
326.722	2351
326.810	2589
326.898	3781
326.987	4705
327.075	2464
327.163	4460
327.251	3364
327.340	3564
327.428	5124
327.516	6240
327.604	4669
327.692	3883
327.781	3069
327.869	3047
327.957	2879
328.045	2194
328.133	2776
328.221	1891
328.309	2654
328.397	2612
328.485	3523
328.574	5331
328.662	7409
328.750	4887
328.838	4598
328.926	3517
329.014	3675
329.102	2754
329.190	2891
329.278	2987
329.366	3046
329.454	3189
329.542	2497
329.630	3230
329.718	2785
329.806	2537
329.893	2624
329.981	1260
330.069	4081
330.157	2775
330.245	3384
330.333	2907
330.421	2982
330.509	2340
330.597	2565
330.684	1715
330.772	3069
330.860	1907
330.948	3436
331.036	2413
331.123	3106
331.211	2209
331.299	2002
331.387	2277
331.475	2408
331.562	2779
331.650	2430
331.738	2779
331.825	2484
331.913	2390
332.001	2424
332.089	2254
332.176	2738
332.264	3241
332.352	2783
332.439	2407
332.527	3724
332.614	2756
332.702	2169
332.790	3687
332.877	2611
332.965	3605
333.052	4259
333.140	3256
333.228	3857
333.315	3896
333.403	4283
333.490	3880
333.578	3723
333.665	6078
333.753	5801
333.840	4483
333.928	5555
334.015	6129
334.103	8508
334.190	9306
334.278	14075
334.365	17332
334.452	17979
334.540	13732
334.627	14166
334.715	17526
334.802	22437
334.889	30991
334.977	39074
335.064	27668
335.151	15800
335.239	12466
335.326	9525
335.413	10426
335.501	10757
335.588	11062
335.675	12951
335.762	16291
335.850	20467
335.937	27705
336.024	40511
336.111	52948
336.199	47464
336.286	26129
336.373	16355
336.460	11040
336.547	9774
336.635	8460
336.722	6621
336.809	5710
336.896	5182
336.983	5280
337.070	5499
337.157	4897
337.245	5219
337.332	6041
337.419	5231
337.506	5476
337.593	5149
337.680	4669
337.767	3813
337.854	3805
337.941	3446
338.028	4442
338.115	3657
338.202	5329
338.289	3803
338.376	3169
338.463	3547
338.550	2890
338.637	3813
338.724	2887
338.811	3732
338.898	4142
338.984	3023
339.071	2542
339.158	3685
339.245	3007
339.332	3918
339.419	3064
339.506	3560
339.593	2095
339.679	3653
339.766	2837
339.853	2453
339.940	2946
340.027	2730
340.113	3150
340.200	2565
340.287	2521
340.374	2518
340.460	2958
340.547	1896
340.634	2571
340.720	3580
340.807	2128
340.894	2840
340.980	2853
341.067	3169
341.154	3787
341.240	3172
341.327	3124
341.414	3663
341.500	2010
341.587	3577
341.674	3072
341.760	3652
341.847	2846
341.933	3115
342.020	2856
342.106	2735
342.193	3260
342.279	2442
342.366	2564
342.452	3233
342.539	2054
342.625	3778
342.712	2083
342.798	2369
342.885	2214
342.971	2365
343.058	2690
343.144	2549
343.230	2528
343.317	2782
343.403	2753
343.490	3221
343.576	2604
343.662	3074
343.749	3008
343.835	3435
343.921	2275
344.008	3241
344.094	4516
344.180	3318
344.267	3076
344.353	2393
344.439	3257
344.525	2990
344.612	3375
344.698	2521
344.784	2103
344.870	2824
344.957	2460
345.043	4245
345.129	2164
345.215	4130
345.301	2001
345.387	2209
345.474	2965
345.560	3175
345.646	2724
345.732	3333
345.818	2694
345.904	2389
345.990	2126
346.076	2369
346.162	2658
346.249	2971
346.335	2684
346.421	4012
346.507	3655
346.593	3120
346.679	1434
346.765	4127
346.851	6282
346.937	5290
347.023	4509
347.108	3330
347.194	2989
347.280	4277
347.366	4966
347.452	11678
347.538	12124
347.624	9026
347.710	3888
347.796	3849
347.882	2676
347.967	4089
348.053	3274
348.139	3233
348.225	2746
348.311	2622
348.397	3225
348.482	4212
348.568	3611
348.654	5886
348.740	17387
348.825	17882
348.911	9809
348.997	5626
349.083	4672
349.168	3786
349.254	2973
349.340	3381
349.425	3078
349.511	3890
349.597	2931
349.682	2583
349.768	3985
349.854	3093
349.939	3678
350.025	2947
350.110	3438
350.196	3218
350.282	3069
350.367	3928
350.453	2950
350.538	3267
350.624	2538
350.709	3691
350.795	3140
350.880	2907
350.966	4145
351.051	3323
351.137	3350
351.222	3537
351.308	3475
351.393	3495
351.479	2875
351.564	2231
351.649	2934
351.735	2792
351.820	3218
351.906	2872
351.991	2572
352.076	3300
352.162	3277
352.247	3264
352.332	3013
352.418	3050
352.503	2785
352.588	3845
352.673	2590
352.759	2745
352.844	2155
352.929	3645
353.014	2336
353.100	3414
353.185	3233
353.270	2835
353.355	3629
353.441	2926
353.526	2530
353.611	2839
353.696	2200
353.781	3528
353.866	2697
353.952	3218
354.037	2410
354.122	3340
354.207	2806
354.292	3019
354.377	2334
354.462	3356
354.547	1449
354.632	3838
354.717	2629
354.802	2457
354.887	2320
354.972	3571
355.057	2883
355.142	2717
355.227	3714
355.312	3045
355.397	2728
355.482	3586
355.567	1955
355.652	3686
355.737	2993
355.822	3374
355.907	2997
355.991	4509
356.076	2727
356.161	3831
356.246	2997
356.331	4032
356.416	2799
356.501	5556
356.585	3264
356.670	2408
356.755	5313
356.840	3690
356.924	4009
357.009	4701
357.094	4028
357.179	2990
357.263	2680
357.348	3628
357.433	3817
357.517	3580
357.602	4046
357.687	3441
357.771	4320
357.856	2754
357.941	2790
358.025	4318
358.110	5843
358.195	4543
358.279	3437
358.364	2981
358.448	3599
358.533	4159
358.617	2590
358.702	4108
358.787	3640
358.871	2928
358.956	2977
359.040	3393
359.125	4060
359.209	3454
359.294	3954
359.378	6310
359.462	5855
359.547	3628
359.631	3431
359.716	2058
359.800	2474
359.885	4624
359.969	1854
360.053	3997
360.138	3238
360.222	3676
360.306	2405
360.391	3662
360.475	3562
360.559	3975
360.644	3332
360.728	2780
360.812	4500
360.896	5179
360.981	3337
361.065	3721
361.149	5012
361.233	3862
361.318	3284
361.402	4984
361.486	5582
361.570	4979
361.654	5305
361.739	5387
361.823	6211
361.907	8251
361.991	7979
362.075	10142
362.159	13255
362.243	24680
362.327	48631
362.411	62734
362.495	27891
362.580	16266
362.664	16306
362.748	19021
362.832	31192
362.916	56255
363.000	111060
363.084	127327
363.168	54506
363.252	23812
363.336	16213
363.420	13169
363.503	9976
363.587	9281
363.671	10803
363.755	9302
363.839	13121
363.923	12459
364.007	17811
364.091	23937
364.175	34994
364.258	69123
364.342	128502
364.426	175897
364.510	101573
364.594	42178
364.677	21951
364.761	14297
364.845	11102
364.929	8575
365.013	6742
365.096	6992
365.180	4733
365.264	6359
365.347	5601
365.431	5502
365.515	4213
365.598	3832
365.682	5847
365.766	4038
365.849	4442
365.933	4164
366.017	5454
366.100	3478
366.184	3986
366.267	4967
366.351	5229
366.435	4332
366.518	4035
366.602	4448
366.685	4499
366.769	4404
366.852	4006
366.936	5310
367.019	4125
367.103	3929
367.186	5670
367.270	5289
367.353	4089
367.436	6145
367.520	4720
367.603	4995
367.687	4823
367.770	4495
367.853	5391
367.937	5474
368.020	5553
368.104	2677
368.187	4582
368.270	4068
368.353	3441
368.437	3329
368.520	4340
368.603	3185
368.687	2279
368.770	4033
368.853	3452
368.936	4213
369.020	3657
369.103	3318
369.186	2789
369.269	3121
369.352	3974
369.436	2612
369.519	3411
369.602	2475
369.685	4855
369.768	1751
369.851	3925
369.934	3124
370.018	2637
370.101	2213
370.184	4985
370.267	3511
370.350	3597
370.433	5156
370.516	10803
370.599	32111
370.682	12974
370.765	6278
370.848	4869
370.931	2756
371.014	4573
371.097	2040
371.180	3871
371.263	4485
371.346	1117
371.429	3657
371.511	1888
371.594	2960
371.677	3795
371.760	3979
371.843	2399
371.926	4828
372.009	5460
372.091	7000
372.174	3187
372.257	4023
372.340	2765
372.423	3772
372.505	4801
372.588	3603
372.671	3915
372.754	3100
372.836	3860
372.919	4227
373.002	3636
373.085	2882
373.167	4642
373.250	3490
373.332	4616
373.415	6435
373.498	6765
373.580	13599
373.663	45030
373.746	39209
373.828	8730
373.911	6309
373.993	4922
374.076	4533
374.159	4728
374.241	5501
374.324	5047
374.406	5564
374.489	4198
374.571	6357
374.654	4754
374.736	5206
374.819	5023
374.901	7946
374.983	5778
375.066	6662
375.148	5557
375.231	5471
375.313	6532
375.395	5927
375.478	5396
375.560	6972
375.643	5738
375.725	5795
375.807	5562
375.890	7355
375.972	4386
376.054	5339
376.136	4835
376.219	4064
376.301	4994
376.383	3366
376.465	4761
376.548	4110
376.630	4253
376.712	4812
376.794	2945
376.877	4573
376.959	2610
377.041	3333
377.123	3189
377.205	3966
377.287	3014
377.369	4862
377.452	4310
377.534	4595
377.616	3989
377.698	3849
377.780	2616
377.862	4079
377.944	5227
378.026	3184
378.108	5256
378.190	4009
378.272	4404
378.354	3570
378.436	3104
378.518	2763
378.600	3324
378.682	4422
378.764	2993
378.846	4686
378.928	3373
379.010	3364
379.091	3710
379.173	3989
379.255	2325
379.337	3863
379.419	3426
379.501	4481
379.583	2620
379.664	3716
379.746	2133
379.828	4832
379.910	2568
379.991	4684
380.073	3003
380.155	3718
380.237	2320
380.318	3851
380.400	3391
380.482	4098
380.564	2771
380.645	3974
380.727	2846
380.809	4275
380.890	3413
380.972	2834
381.053	3618
381.135	4429
381.217	3032
381.298	4842
381.380	2778
381.461	3956
381.543	3739
381.624	4094
381.706	3607
381.787	4601
381.869	4606
381.951	4216
382.032	4049
382.113	7670
382.195	3394
382.276	5704
382.358	3125
382.439	3317
382.521	5055
382.602	5528
382.684	5884
382.765	7240
382.846	11932
382.928	20636
383.009	13135
383.090	14692
383.172	35566
383.253	42276
383.334	15100
383.416	7524
383.497	7112
383.578	8078
383.659	13319
383.741	35097
383.822	68959
383.903	31832
383.984	9505
384.066	9453
384.147	6850
384.228	7339
384.309	7578
384.390	8877
384.471	7878
384.553	6997
384.634	6673
384.715	6882
384.796	5730
384.877	5828
384.958	6145
385.039	5257
385.120	5167
385.201	6782
385.282	5755
385.363	6462
385.444	6094
385.525	7371
385.606	6950
385.687	7965
385.768	6963
385.849	6600
385.930	8741
386.011	9160
386.092	6836
386.173	7981
386.254	8056
386.335	8465
386.416	6563
386.496	8362
386.577	7904
386.658	8069
386.739	6924
386.820	8825
386.901	7510
386.981	9617
387.062	9815
387.143	9979
387.224	11281
387.304	13272
387.385	13255
387.466	11203
387.547	14321
387.627	12856
387.708	14433
387.789	13523
387.869	11603
387.950	11950
388.031	10755
388.111	8105
388.192	10403
388.273	10932
388.353	8944
388.434	7434
388.514	7493
388.595	7643
388.676	6792
388.756	7543
388.837	7227
388.917	6735
388.998	4673
389.078	6941
389.159	6957
389.239	4572
389.320	8292
389.400	4917
389.480	6249
389.561	5556
389.641	7112
389.722	6625
389.802	5423
389.883	6522
389.963	7550
390.043	4969
390.124	5904
390.204	6845
390.284	6260
390.365	4857
390.445	5961
390.525	5376
390.605	6003
390.686	5799
390.766	7203
390.846	7568
390.927	6633
391.007	6027
391.087	7200
391.167	7504
391.247	5742
391.328	7596
391.408	8320
391.488	8092
391.568	6780
391.648	8064
391.728	9330
391.808	10992
391.888	8621
391.969	9741
392.049	9944
392.129	12839
392.209	11885
392.289	14910
392.369	14575
392.449	16294
392.529	16472
392.609	21407
392.689	23309
392.769	26558
392.849	33005
392.929	42951
393.009	56880
393.089	80622
393.169	138045
393.248	257776
393.328	457309
393.408	421090
393.488	223053
393.568	121828
393.648	74538
393.728	49405
393.807	35997
393.887	29446
393.967	24071
394.047	19756
394.127	15601
394.206	15345
394.286	13127
394.366	12214
394.446	13014
394.525	11816
394.605	10533
394.685	11380
394.764	13113
394.844	21493
394.924	27023
395.003	14018
395.083	9272
395.163	8429
395.242	8550
395.322	9271
395.402	6517
395.481	11930
395.561	11956
395.640	32272
395.720	59633
395.799	31485
395.879	14138
395.958	11872
396.038	12176
396.117	14045
396.197	15488
396.276	18105
396.356	20666
396.435	27236
396.515	37014
396.594	57916
396.673	109344
396.753	243055
396.832	415590
396.912	294852
396.991	124799
397.070	65311
397.150	40111
397.229	35916
397.308	55264
397.388	87501
397.467	47474
397.546	21141
397.625	12687
397.705	12979
397.784	11512
397.863	9771
397.942	8491
398.022	9211
398.101	7324
398.180	8346
398.259	6760
398.338	7708
398.417	5909
398.497	5713
398.576	6063
398.655	5468
398.734	6831
398.813	5111
398.892	5896
398.971	5325
399.050	4300
399.129	4800
399.208	4899
399.287	5151
399.366	3745
399.445	4637
399.524	3694
399.603	2870
399.682	5083
399.761	4339
399.840	4488
399.919	4629
399.998	3952
400.077	2060
400.156	2802
400.235	6035
400.313	2818
400.392	2445
400.471	3897
400.550	4318
400.629	2561
400.708	4468
400.786	3020
400.865	2994
400.944	2545
401.023	4819
401.102	2202
401.180	3582
401.259	2850
401.338	3147
401.416	3767
401.495	2509
401.574	3345
401.652	1548
401.731	3562
401.810	1992
401.888	2572
401.967	2069
402.046	2299
402.124	3617
402.203	1983
402.281	2910
402.360	1673
402.438	3473
402.517	1711
402.596	3195
402.674	2794
402.753	2855
402.831	3373
402.910	4459
402.988	3622
403.066	4341
403.145	4606
403.223	5277
403.302	3265
403.380	4237
403.459	4732
403.537	3597
403.615	4417
403.694	2331
403.772	4334
403.850	3925
403.929	2683
404.007	3015
404.085	4561
404.164	2516
404.242	3178
404.320	4258
404.398	4050
404.477	2602
404.555	4043
404.633	3725
404.711	3736
404.789	4546
404.868	3208
404.946	2733
405.024	3131
405.102	2233
405.180	2230
405.258	1988
405.336	2931
405.415	1727
405.493	3774
405.571	3470
405.649	2501
405.727	2899
405.805	4117
405.883	4273
405.961	3630
406.039	2801
406.117	1499
406.195	2632
406.273	1350
406.351	3121
406.429	3253
406.507	2077
406.585	2004
406.663	3389
406.740	2004
406.818	1467
406.896	2124
406.974	3703
407.052	1095
407.130	3977
407.208	3727
407.285	3889
407.363	2191
407.441	3211
407.519	3556
407.596	6156
407.674	21362
407.752	66576
407.830	43669
407.907	8456
407.985	3482
408.063	4066
408.141	3110
408.218	3619
408.296	1618
408.373	2776
408.451	3610
408.529	4163
408.606	3780
408.684	5035
408.762	5227
408.839	4185
408.917	5699
408.994	5708
409.072	5613
409.149	8588
409.227	12838
409.304	18551
409.382	19454
409.459	21704
409.537	28340
409.614	26536
409.692	21427
409.769	21583
409.846	30099
409.924	33941
410.001	24507
410.079	20496
410.156	16696
410.233	12639
410.311	10481
410.388	8875
410.465	9097
410.543	7255
410.620	8105
410.697	7213
410.775	6587
410.852	6849
410.929	7441
411.006	7656
411.083	5079
411.161	6376
411.238	6160
411.315	5322
411.392	5556
411.469	5183
411.547	4450
411.624	3662
411.701	3643
411.778	3705
411.855	4008
411.932	2904
412.009	3190
412.086	4077
412.163	2669
412.240	2580
412.317	3831
412.394	3316
412.471	3239
412.548	3078
412.625	3023
412.702	3495
412.779	2649
412.856	3111
412.933	2491
413.010	2553
413.087	3167
413.164	2243
413.241	3521
413.318	2338
413.395	3357
413.471	2069
413.548	2307
413.625	3371
413.702	1588
413.779	3289
413.855	2490
413.932	1830
414.009	1871
414.086	2431
414.162	2978
414.239	2795
414.316	2296
414.393	2938
414.469	1730
414.546	2336
414.623	2795
414.699	1754
414.776	1793
414.853	2006
414.929	2889
415.006	2343
415.082	1701
415.159	1994
415.236	2522
415.312	2692
415.389	2384
415.465	860
415.542	2402
415.618	1408
415.695	1747
415.771	2027
415.848	1893
415.924	2480
416.000	2216
416.077	3184
416.153	986
416.230	2570
416.306	2288
416.383	1420
416.459	2316
416.535	2349
416.612	1228
416.688	2228
416.764	1234
416.841	1987
416.917	1902
416.993	2517
417.069	1735
417.146	2002
417.222	1581
417.298	2782
417.374	1544
417.451	2193
417.527	1914
417.603	2177
417.679	2130
417.755	2129
417.831	2437
417.908	2470
417.984	2125
418.060	1620
418.136	2541
418.212	1773
418.288	2649
418.364	3410
418.440	1762
418.516	3055
418.592	2367
418.668	2497
418.744	2233
418.820	2620
418.896	2711
418.972	2045
419.048	2643
419.124	4364
419.200	1817
419.276	3897
419.352	2752
419.428	4187
419.504	2133
419.579	3832
419.655	3539
419.731	3503
419.807	3708
419.883	3906
419.959	3986
420.034	4323
420.110	4210
420.186	4214
420.262	5040
420.337	5657
420.413	6317
420.489	6051
420.565	7523
420.640	6680
420.716	8514
420.792	6887
420.867	8377
420.943	8810
421.019	8977
421.094	8986
421.170	12281
421.245	12626
421.321	13331
421.397	16484
421.472	32103
421.548	59841
421.623	39118
421.699	24385
421.774	24779
421.850	27582
421.925	33590
422.001	39243
422.076	46714
422.152	58115
422.227	71063
422.302	93605
422.378	117518
422.453	151932
422.529	169600
422.604	147568
422.679	120595
422.755	148287
422.830	169066
422.905	147345
422.981	121188
423.056	97365
423.131	77044
423.207	61244
423.282	50211
423.357	42274
423.432	34453
423.508	30418
423.583	25912
423.658	23696
423.733	21075
423.808	19171
423.883	18901
423.959	19697
424.034	20848
424.109	18621
424.184	14254
424.259	12740
424.334	11478
424.409	9821
424.484	9147
424.559	9624
424.634	7474
424.709	7789
424.784	6666
424.859	5748
424.934	6163
425.009	6262
425.084	6010
425.159	5331
425.234	6109
425.309	5515
425.384	5240
425.459	4133
425.534	4846
425.609	4270
425.683	4274
425.758	4174
425.833	4700
425.908	4580
425.983	3662
426.058	4005
426.132	3776
426.207	4074
426.282	4552
426.357	3074
426.431	3623
426.506	3838
426.581	3273
426.655	3766
426.730	3099
426.805	2296
426.879	4024
426.954	3199
427.029	2534
427.103	2736
427.178	2112
427.253	2954
427.327	2838
427.402	2126
427.476	3121
427.551	3472
427.625	3033
427.700	3615
427.774	2623
427.849	3100
427.923	2462
427.998	3572
428.072	4350
428.147	12168
428.221	39646
428.296	93257
428.370	51234
428.444	13317
428.519	5421
428.593	4236
428.667	4431
428.742	6910
428.816	18310
428.890	62950
428.965	82107
429.039	24982
429.113	6586
429.188	4256
429.262	3336
429.336	3330
429.410	3864
429.485	4713
429.559	3928
429.633	4689
429.707	6341
429.781	16936
429.855	59449
429.930	74267
430.004	26519
430.078	21583
430.152	52689
430.226	125500
430.300	111919
430.374	38101
430.448	15491
430.522	9251
430.596	9536
430.670	26708
430.744	76713
430.818	72801
430.892	18369
430.966	6788
431.040	4361
431.114	2297
431.188	2553
431.262	2329
431.336	2023
431.410	3966
431.484	2377
431.557	3480
431.631	4254
431.705	8684
431.779	34083
431.853	92309
431.927	60227
432.000	14438
432.074	5472
432.148	3076
432.222	1998
432.295	2647
432.369	1629
432.443	1267
432.516	1982
432.590	2437
432.664	1521
432.737	664
432.811	790
432.885	1242
432.958	1115
433.032	809
433.106	619
433.179	1365
433.253	1797
433.326	1001
433.400	1400
433.473	1925
433.547	60
433.620	1695
433.694	1528
433.767	1689
433.841	1629
433.914	1539
433.988	1320
434.061	1243
434.134	1334
434.208	906
434.281	583
434.355	1502
434.428	1480
434.501	687
434.575	1112
434.648	1441
434.721	1552
434.795	1070
434.868	1895
434.941	1158
435.014	2092
435.088	2000
435.161	2654
435.234	2989
435.307	3392
435.381	5307
435.454	7809
435.527	13679
435.600	15920
435.673	13334
435.746	11132
435.819	9270
435.892	7253
435.966	5536
436.039	4767
436.112	4794
436.185	3041
436.258	2963
436.331	2036
436.404	2148
436.477	2153
436.550	2076
436.623	2341
436.696	1505
436.769	1219
436.842	1261
436.915	2063
436.987	1473
437.060	1643
437.133	817
437.206	878
437.279	2133
437.352	1026
437.425	1688
437.498	176
437.570	1846
437.643	922
437.716	687
437.789	488
437.861	858
437.934	435
438.007	917
438.080	347
438.152	910
438.225	446
438.298	1644
438.370	2042
438.443	1542
438.516	1077
438.588	1168
438.661	495
438.734	912
438.806	1610
438.879	1650
438.951	1262
439.024	1236
439.096	1538
439.169	848
439.241	1147
439.314	429
439.386	913
439.459	1090
439.531	1327
439.604	1059
439.676	1320
439.749	1129
439.821	142
439.893	1851
439.966	553
440.038	444
440.110	1224
440.183	1302
440.255	322
440.327	1711
440.400	1405
440.472	1153
440.544	1599
440.617	1282
440.689	2685
440.761	638
440.833	1262
440.905	1597
440.978	1730
441.050	1909
441.122	1921
441.194	1144
441.266	2049
441.338	1074
441.411	1538
441.483	2835
441.555	1373
441.627	2196
441.699	2270
441.771	2383
441.843	2743
441.915	3021
441.987	3400
442.059	3455
442.131	4189
442.203	5839
442.275	8551
442.347	14325
442.419	31985
442.491	97162
442.563	156405
442.635	79893
442.706	27649
442.778	13726
442.850	9617
442.922	7951
442.994	7759
443.066	9108
443.137	11302
443.209	16704
443.281	26010
443.353	49836
443.425	116956
443.496	215019
443.568	215234
443.640	118970
443.711	48791
443.783	22999
443.855	14241
443.926	10334
443.998	7511
444.070	7953
444.141	5883
444.213	4494
444.285	5744
444.356	5331
444.428	4877
444.499	4614
444.571	4500
444.642	5877
444.714	5112
444.785	5883
444.857	7193
444.928	8400
445.000	10789
445.071	14147
445.143	16659
445.214	26950
445.285	45319
445.357	90155
445.428	182922
445.500	239035
445.571	223451
445.642	170178
445.714	87020
445.785	37029
445.856	20506
445.928	14256
445.999	10602
446.070	7174
446.141	5932
446.213	5662
446.284	3847
446.355	4495
446.426	3615
446.497	3364
446.569	2049
446.640	1902
446.711	2478
446.782	2079
446.853	2253
446.924	3010
446.995	1675
447.066	1052
447.138	545
447.209	1608
447.280	908
447.351	886
447.422	77
447.493	1820
447.564	804
447.635	-242
447.706	279
447.777	1318
447.847	-80
447.918	83
447.989	1046
448.060	941
448.131	23
448.202	663
448.273	343
448.344	836
448.414	776
448.485	222
448.556	845
448.627	791
448.698	1978
448.768	307
448.839	77
448.910	631
448.981	728
449.051	108
449.122	203
449.193	951
449.263	-120
449.334	200
449.405	1151
449.475	878
449.546	1053
449.616	1841
449.687	913
449.758	1229
449.828	521
449.899	909
449.969	206
450.040	883
450.110	310
450.181	655
450.251	191
450.322	34
450.392	695
450.463	1535
450.533	330
450.604	1041
450.674	1177
450.744	1765
450.815	881
450.885	2413
450.955	2613
451.026	2910
451.096	1412
451.166	1958
451.237	2538
451.307	4370
451.377	3297
451.447	2644
451.518	1630
451.588	740
451.658	858
451.728	627
451.799	517
451.869	1564
451.939	683
452.009	1472
452.079	713
452.149	1930
452.219	2091
452.289	1899
452.360	1463
452.430	3240
452.500	3963
452.570	7967
452.640	17708
452.710	38241
452.780	46117
452.850	30924
452.920	16968
452.990	10424
453.060	7253
453.129	4341
453.199	2521
453.269	2849
453.339	2531
453.409	2230
453.479	1987
453.549	1111
453.619	1814
453.688	707
453.758	1614
453.828	1590
453.898	868
453.968	431
454.037	397
454.087	501
454.107	518
454.168	1046
454.177	1095
454.247	621
454.249	652
454.316	726
454.330	803
454.386	1021
454.411	514
454.456	-479
454.492	340
454.525	1032
454.574	991
454.595	949
454.655	947
454.665	910
454.734	570
454.736	636
454.804	2065
454.817	1889
454.873	996
454.898	1280
454.943	1747
454.979	1471
455.013	1170
455.060	1751
455.082	1937
455.141	1137
455.152	1005
455.221	1336
455.222	1370
455.291	1537
455.303	1630
455.360	1854
455.384	2129
455.430	2431
455.465	2273
455.499	2100
455.546	1630
455.569	1395
455.627	2210
455.638	2340
455.707	1627
455.708	1658
455.777	1612
455.789	1629
455.846	1727
455.869	2017
455.916	2368
455.950	2032
455.985	1751
456.031	2112
456.054	2203
456.112	2155
456.124	2140
456.193	2363
456.193	2334
456.262	2881
456.274	3028
456.332	3337
456.355	3252
456.401	3164
456.436	3171
456.470	3123
456.516	3182
456.540	3175
456.597	3090
456.609	2990
456.678	3574
456.678	3545
456.747	3499
456.759	3495
456.817	3517
456.840	3666
456.886	3763
456.920	3988
456.955	4103
457.001	4706
457.024	4976
457.082	4134
457.093	3971
457.162	5081
457.163	5114
457.232	5425
457.243	5497
457.301	5782
457.324	6004
457.370	6386
457.405	6960
457.439	7702
457.485	8362
457.508	8709
457.566	10794
457.577	11646
457.646	17004
457.647	17147
457.715	39256
457.727	44118
457.784	77151
457.808	98566
457.853	121113
457.889	139194
457.922	134945
457.969	102401
457.991	107503
458.050	122806
458.060	126975
458.129	196135
458.130	198431
458.198	184975
458.211	172272
458.267	115782
458.292	85652
458.336	62802
458.372	56172
458.405	68530
458.453	95674
458.474	118507
458.533	200930
458.543	206256
458.611	283699
458.614	285760
458.680	189145
458.694	157822
458.749	92838
458.775	67713
458.818	43448
458.855	32549
458.887	26394
458.936	20964
458.955	19189
459.016	15628
459.024	15211
459.093	13419
459.097	13327
459.162	11405
459.177	11010
459.230	9855
459.257	9823
459.299	9875
459.338	9718
459.368	9610
459.418	9382
459.437	9232
459.499	8853
459.505	8782
459.574	8627
459.579	8625
459.643	8632
459.659	8514
459.711	8365
459.740	8656
459.780	8485
459.820	8041
459.849	8157
459.900	8720
459.917	8787
459.981	8851
459.986	8810
460.054	8669
460.061	8599
460.123	8441
460.141	8591
460.191	8961
460.222	9097
460.260	9332
460.302	9862
460.328	10369
460.382	11389
460.397	12067
460.462	15126
460.465	15822
460.534	32710
460.543	35040
460.602	90109
460.623	111024
460.671	167354
460.703	214605
460.739	184968
460.783	136351
460.808	113556
460.864	35066
460.876	29492
460.944	14280
460.945	14138
461.013	11194
461.024	10846
461.081	9651
461.104	9427
461.150	9187
461.184	8917
461.218	8809
461.264	9220
461.286	9385
461.345	9084
461.355	8938
461.423	8204
461.425	8187
461.491	7422
461.505	7459
461.559	8413
461.585	8545
461.628	8593
461.665	8645
461.696	8304
461.745	8169
461.764	8254
461.825	7673
461.832	7718
461.901	8630
461.905	8717
461.969	7988
461.985	7633
462.037	8183
462.065	8700
462.105	8287
462.145	7838
462.173	8124
462.225	8511
462.241	8561
462.305	8953
462.310	8977
462.378	9302
462.385	9304
462.446	9238
462.465	9362
462.514	9218
462.545	8865
462.582	8562
462.625	8120
462.650	7919
462.705	7935
462.718	7969
462.785	8071
462.786	8077
462.854	7727
462.865	7731
462.922	8057
462.945	8267
462.990	8839
463.025	8955
463.058	8758
463.104	8928
463.126	8969
463.184	8367
463.194	8326
463.262	8267
463.264	8271
463.330	8782
463.344	8803
463.398	9006
463.424	9169
463.466	8858
463.504	8525
463.533	8664
463.583	8885
463.601	8839
463.663	8623
463.669	8604
463.737	8199
463.743	8158
463.805	8939
463.823	9177
463.873	8831
463.903	8693
463.940	8644
463.982	8458
464.008	8682
464.062	9086
464.076	8991
464.142	8490
464.144	8500
464.211	8382
464.221	8373
464.279	8028
464.301	7911
464.347	8692
464.381	9182
464.414	8872
464.461	8523
464.482	8656
464.540	8772
464.550	8841
464.617	9293
464.620	9304
464.685	8803
464.699	8624
464.753	8831
464.779	8881
464.820	8960
464.859	9171
464.888	8713
464.938	7847
464.956	8315
465.018	9885
465.023	9921
465.091	10115
465.098	10135
465.158	10031
465.177	9964
465.226	9679
465.257	9401
465.293	9256
465.336	9135
465.361	9350
465.416	9844
465.428	9787
465.495	9375
465.496	9386
465.563	8495
465.575	8395
465.631	9368
465.654	9695
465.698	10189
465.734	10538
465.765	10353
465.813	10027
465.833	9918
465.893	9566
465.900	9593
465.968	9627
465.972	9612
466.035	9408
466.052	9335
466.102	9432
466.131	9501
466.170	9477
466.210	9333
466.237	9613
466.290	10138
466.304	10104
466.369	9813
466.372	9848
466.439	10379
466.449	10430
466.506	9895
466.528	9676
466.573	10094
466.607	10330
466.641	10132
466.687	9875
466.708	10155
466.766	10766
466.775	10757
466.842	10657
466.845	10626
466.909	10926
466.925	10984
466.977	11212
467.004	11307
467.044	11449
467.083	11540
467.111	11557
467.163	11506
467.178	11559
467.242	11687
467.245	11734
467.312	12248
467.321	12295
467.379	12944
467.400	13140
467.446	13327
467.480	13416
467.559	13281
467.638	12647
467.717	13526
467.796	15482
467.875	16420
467.955	16367
468.034	18661
468.113	21770
468.192	25646
468.271	32591
468.350	45980
468.429	60048
468.508	62128
468.588	39905
468.667	26473
468.746	18878
468.825	18145
468.904	15540
468.983	15571
469.062	14141
469.141	13985
469.220	12907
469.299	13199
469.378	11078
469.456	12982
469.535	11950
469.614	12041
469.693	11086
469.772	12993
469.851	12381
469.930	13347
470.009	12047
470.088	12450
470.166	13803
470.245	15291
470.324	14206
470.403	13605
470.482	12611
470.560	12394
470.639	12342
470.718	12807
470.797	12553
470.875	11647
470.954	11581
471.033	11240
471.111	11212
471.190	11227
471.269	11630
471.347	10777
471.426	10863
471.505	11883
471.583	10737
471.662	12565
471.740	11877
471.819	11547
471.898	11471
471.976	12386
472.055	13265
472.133	20544
472.212	28341
472.290	14656
472.369	10806
472.447	11214
472.526	10974
472.604	12829
472.683	12055
472.761	11915
472.839	11792
472.918	11912
472.996	12337
473.075	12675
473.153	11959
473.231	12575
473.310	13055
473.388	12928
473.466	12859
473.545	12108
473.623	13171
473.701	12247
473.780	13707
473.858	12401
473.936	14950
474.014	14225
474.093	21881
474.171	28463
474.249	17097
474.327	13745
474.405	12044
474.484	13319
474.562	13200
474.640	13215
474.718	12047
474.796	12013
474.874	12550
474.952	11608
475.030	11909
475.108	12551
475.187	12327
475.265	12621
475.343	12232
475.421	12286
475.499	11880
475.577	11628
475.655	12300
475.733	12100
475.811	11839
475.889	11241
475.966	12115
476.044	11590
476.122	11334
476.200	12186
476.278	11258
476.356	10767
476.434	11613
476.512	11763
476.590	11980
476.667	11935
476.745	10749
476.823	11893
476.901	11886
476.979	11980
477.056	11872
477.134	11461
477.212	12190
477.290	11554
477.367	11179
477.445	11306
477.523	11010
477.601	10455
477.678	11768
477.756	11409
477.834	10076
477.911	11785
477.989	11653
478.066	11769
478.144	11768
478.222	11927
478.299	15248
478.377	22974
478.454	21275
478.532	12089
478.609	10946
478.687	12103
478.764	12090
478.842	11713
478.919	10675
478.997	11862
479.074	11325
479.152	11994
479.229	10999
479.307	10720
479.384	10955
479.461	12301
479.539	11400
479.616	10789
479.694	10893
479.771	11165
479.848	11772
479.926	9188
480.003	13140
480.080	11716
480.157	12165
480.235	11889
480.312	12145
480.389	12470
480.467	13314
480.544	13767
480.621	14787
480.698	15022
480.775	15537
480.853	14661
480.930	14892
481.007	17647
481.084	35444
481.161	65912
481.238	30943
481.315	14010
481.392	13575
481.470	13881
481.547	12904
481.624	14787
481.701	14314
481.778	13162
481.855	15038
481.932	15901
482.009	16758
482.086	18331
482.163	19804
482.240	21502
482.317	22400
482.393	19682
482.470	19079
482.547	18280
482.624	17231
482.701	16748
482.778	17384
482.855	17046
482.932	17323
483.009	21046
483.085	29780
483.162	51078
483.239	42287
483.316	24558
483.393	24924
483.469	21170
483.546	18278
483.623	17519
483.699	15691
483.776	15401
483.853	14618
483.930	14766
484.006	14676
484.083	15822
484.160	15970
484.236	15998
484.313	16764
484.389	18149
484.466	22703
484.543	24775
484.619	32024
484.696	33430
484.772	22739
484.849	18367
484.925	15968
485.002	15610
485.078	14743
485.155	13897
485.231	13683
485.308	13005
485.384	13990
485.461	16923
485.537	16148
485.614	13343
485.690	11976
485.766	12374
485.843	12055
485.919	11654
485.995	12435
486.072	13013
486.148	11924
486.224	12017
486.301	12336
486.377	13019
486.453	12607
486.530	13863
486.606	14021
486.682	14153
486.758	16379
486.835	20431
486.911	21382
486.987	19780
487.063	21978
487.139	33530
487.215	56984
487.292	46129
487.368	39224
487.444	50468
487.520	77069
487.596	130634
487.672	238554
487.748	644298
487.824	935686
487.900	383732
487.976	128478
488.052	66081
488.128	45163
488.204	31493
488.280	27037
488.356	22108
488.432	20239
488.508	18562
488.584	17102
488.660	16155
488.736	15180
488.812	13468
488.888	14613
488.964	13505
489.039	13739
489.115	17746
489.191	23105
489.267	17832
489.343	12231
489.418	11859
489.494	12268
489.570	10822
489.646	13017
489.722	11836
489.797	11640
489.873	12813
489.949	12477
490.024	13061
490.100	12603
490.176	12797
490.251	13769
490.327	12884
490.403	11617
490.478	12592
490.554	12013
490.629	11969
490.705	11170
490.781	11067
490.856	11297
490.932	10437
491.007	11886
491.083	10346
491.158	10795
491.234	10847
491.309	11369
491.385	9544
491.460	9805
491.536	11408
491.611	10268
491.686	10313
491.762	10243
491.837	10066
491.913	10351
491.988	10435
492.063	9407
492.139	10443
492.214	10314
492.289	9840
492.365	9263
492.440	10016
492.515	9459
492.590	8891
492.666	9178
492.741	9423
492.816	9707
492.891	9519
492.967	10754
493.042	9543
493.117	8115
493.192	10057
493.267	10381
493.342	11368
493.418	11528
493.493	9460
493.568	9809
493.643	9370
493.718	8824
493.793	9034
493.868	8448
493.943	9413
494.018	8827
494.093	8538
494.168	10286
494.243	9084
494.318	9511
494.393	9088
494.468	9193
494.543	8923
494.618	8834
494.693	8550
494.768	8775
494.842	8109
494.917	10293
494.992	8995
495.067	8278
495.142	9215
495.217	8568
495.292	8820
495.366	8677
495.441	7545
495.516	9701
495.591	9135
495.665	9280
495.740	11366
495.815	9946
495.890	9707
495.964	8966
496.039	14928
496.114	27814
496.188	62598
496.263	37321
496.338	11931
496.412	9169
496.487	9309
496.561	9964
496.636	9354
496.710	12976
496.785	17382
496.860	10424
496.934	9122
497.009	8781
497.083	8337
497.158	8830
497.232	9498
497.307	9098
497.381	8569
497.455	8712
497.530	8501
497.604	8483
497.679	8740
497.753	9208
497.827	7862
497.902	7510
497.976	9961
498.050	8262
498.125	8882
498.199	8452
498.273	8559
498.348	8374
498.422	8894
498.496	8901
498.570	9296
498.645	9450
498.719	6775
498.793	8373
498.867	8101
498.941	7952
499.016	9083
499.090	8661
499.164	8519
499.238	9693
499.312	9928
499.386	9454
499.460	9389
499.534	9911
499.609	8941
499.683	8365
499.757	9580
499.831	9368
499.905	7731
499.979	8079
500.053	8500
500.127	8971
500.201	8522
500.275	10075
500.349	9244
500.422	8454
500.496	10305
500.570	9706
500.644	9820
500.718	9377
500.792	10453
500.866	10417
500.940	9173
501.013	10198
501.087	9474
501.161	9782
501.235	8905
501.309	11197
501.382	9537
501.456	10590
501.530	10364
501.603	8816
501.677	9618
501.751	8429
501.825	11961
501.898	9588
501.972	9185
502.046	8349
502.119	8506
502.193	9225
502.266	8526
502.340	8803
502.413	9617
502.487	9670
502.561	8202
502.634	10960
502.708	9739
502.781	8800
502.855	10943
502.928	9524
503.002	10731
503.075	10344
503.149	10521
503.222	10704
503.295	11050
503.369	12304
503.442	13595
503.516	16175
503.589	18522
503.662	21341
503.736	26912
503.809	33871
503.882	45377
503.956	71650
504.029	145506
504.102	379635
504.175	511377
504.249	221866
504.322	93027
504.395	53137
504.468	34497
504.542	25106
504.615	19339
504.688	17062
504.761	12775
504.834	14056
504.907	11968
504.980	10916
505.053	10963
505.127	7546
505.200	11770
505.273	8287
505.346	9553
505.419	7366
505.492	10088
505.565	8235
505.638	8115
505.711	7673
505.784	7125
505.857	7683
505.930	9620
506.003	6649
506.076	9527
506.149	6826
506.221	4368
506.294	7908
506.367	6185
506.440	6766
506.513	7660
506.586	7346
506.659	6513
506.731	6715
506.804	6008
506.877	5487
506.950	7493
507.022	7719
507.095	4965
507.168	7259
507.241	7905
507.313	5722
507.386	5800
507.459	7397
507.531	6285
507.604	5493
507.677	6844
507.749	5035
507.822	8189
507.894	5298
507.967	6455
508.040	5673
508.112	7024
508.185	5990
508.257	5811
508.330	8110
508.402	5294
508.475	5609
508.547	7098
508.620	5922
508.692	6178
508.765	7079
508.837	5636
508.909	7602
508.982	6131
509.054	6971
509.127	5515
509.199	6696
509.271	4981
509.344	6111
509.416	6250
509.488	6269
509.560	6364
509.633	6105
509.705	5570
509.777	5186
509.849	6164
509.922	4613
509.994	6384
510.066	7129
510.138	4362
510.210	8487
510.283	6349
510.355	7112
510.427	6678
510.499	6383
510.571	6644
510.643	4426
510.715	7303
510.787	4394
510.859	7370
510.931	5625
511.003	7020
511.076	5719
511.148	5645
511.219	4438
511.291	6679
511.363	7273
511.435	5813
511.507	5440
511.579	7048
511.651	6962
511.723	6307
511.795	5344
511.867	5446
511.939	6695
512.010	5287
512.082	6729
512.154	5076
512.226	6507
512.298	7490
512.369	5993
512.441	6268
512.513	6143
512.585	5046
512.656	6870
512.728	6152
512.800	6089
512.871	6616
512.943	6251
513.015	5303
513.086	6378
513.158	7169
513.230	5190
513.301	5271
513.373	7137
513.444	6678
513.516	6435
513.588	6459
513.659	6678
513.731	6325
513.802	4629
513.874	8173
513.945	5708
514.016	4937
514.088	6526
514.159	4461
514.231	6827
514.302	5941
514.374	6320
514.445	4838
514.516	8042
514.588	5308
514.659	5529
514.730	5864
514.802	7412
514.873	4175
514.944	9467
515.016	7606
515.087	5821
515.158	6346
515.229	8105
515.301	5958
515.372	7507
515.443	5859
515.514	7286
515.585	7604
515.656	9856
515.728	8439
515.799	6139
515.870	7673
515.941	8076
516.012	6683
516.083	8352
516.154	6448
516.225	8002
516.296	9426
516.367	8277
516.438	7780
516.509	8056
516.580	11070
516.651	23083
516.722	55867
516.793	23982
516.864	10421
516.935	11596
517.006	12834
517.077	13017
517.148	22639
517.219	89994
517.289	118329
517.360	19924
517.431	11567
517.502	9480
517.573	10988
517.643	9776
517.714	10076
517.785	11830
517.856	11334
517.926	15290
517.997	17074
518.068	18577
518.138	25449
518.209	30180
518.280	79957
518.350	233201
518.421	96484
518.492	51172
518.562	60676
518.633	83831
518.703	134769
518.774	291153
518.845	633710
518.915	525074
518.986	182177
519.056	83780
519.127	50820
519.197	36412
519.268	25132
519.338	22111
519.408	17594
519.479	15341
519.549	12838
519.620	14728
519.690	11575
519.760	11131
519.831	11048
519.901	9889
519.971	9418
520.042	7700
520.112	7845
520.182	7910
520.253	9283
520.323	7874
520.393	6635
520.463	8590
520.534	4898
520.604	9165
520.674	9078
520.744	6820
520.814	6722
520.885	8366
520.955	6906
521.025	7186
521.095	7515
521.165	7757
521.235	7012
521.305	7124
521.375	7818
521.445	8287
521.515	6661
521.585	8897
521.655	6042
521.725	8125
521.795	7773
521.865	5148
521.935	9743
522.005	7332
522.075	7626
522.145	8947
522.215	10512
522.285	9373
522.355	7409
522.424	8925
522.494	11884
522.564	10335
522.634	7935
522.704	9132
522.774	7338
522.843	10638
522.913	12307
522.983	9322
523.053	7735
523.122	8390
523.192	7633
523.262	7543
523.331	6808
523.401	7881
523.471	8336
523.540	8510
523.610	7562
523.680	9503
523.749	9440
523.819	16612
523.888	15940
523.958	10274
524.027	9069
524.097	8499
524.166	8724
524.236	8221
524.305	11083
524.375	8618
524.444	7837
524.514	10889
524.583	9083
524.653	8376
524.722	10825
524.791	8659
524.861	11636
524.930	10181
524.999	9583
525.069	11995
525.138	10739
525.207	11816
525.277	14250
525.346	13813
525.415	17253
525.484	18451
525.554	21529
525.623	33498
525.692	49244
525.761	43881
525.830	50692
525.900	67813
525.969	110768
526.038	210925
526.107	418339
526.176	996068
526.245	712560
526.314	265011
526.383	560430
526.452	670981
526.522	900452
526.591	709340
526.660	167916
526.729	104166
526.797	106879
526.867	157799
526.935	412659
527.004	1146633
527.073	682898
527.142	152756
527.211	67487
527.280	43877
527.349	34028
527.418	23508
527.487	22167
527.555	16912
527.624	16138
527.693	14607
527.762	15873
527.831	12735
527.899	14602
527.968	12666
528.037	10575
528.106	12079
528.174	11793
528.243	11109
528.312	11277
528.380	10210
528.449	9807
528.518	11110
528.586	7927
528.655	11566
528.723	9973
528.792	10102
528.861	8926
528.929	8440
528.998	10450
529.066	8839
529.135	9560
529.203	8963
529.272	8161
529.340	9874
529.409	10625
529.477	7428
529.545	7514
529.614	10414
529.682	6247
529.751	8187
529.819	11998
529.887	8832
529.956	8250
530.024	10170
530.092	8203
530.161	9388
530.229	8319
530.297	8644
530.365	10132
530.434	8798
530.502	8370
530.570	8996
530.638	8048
530.707	9404
530.775	10870
530.843	9019
530.911	9188
530.979	10226
531.047	9068
531.115	9638
531.183	9219
531.252	10286
531.320	8324
531.388	8728
531.456	10983
531.524	9577
531.592	10029
531.660	12133
531.728	9375
531.796	9638
531.864	11400
531.932	10328
532.000	9412
532.067	10379
532.135	11418
532.203	12561
532.271	11188
532.339	13034
532.407	13872
532.475	12899
532.542	13285
532.610	12229
532.678	11343
532.746	14783
532.814	14818
532.881	13808
532.949	14301
533.017	14322
533.084	12715
533.152	12771
533.220	11958
533.287	11366
533.355	12093
533.423	12432
533.490	11870
533.558	13842
533.625	14702
533.693	12834
533.761	13571
533.828	14101
533.896	12523
533.963	14602
534.031	16113
534.098	18588
534.166	22114
534.233	21687
534.300	25387
534.368	26108
534.435	25110
534.503	27749
534.570	30241
534.637	35611
534.705	40402
534.772	53750
534.840	112430
534.907	451775
534.974	449550
535.041	71376
535.109	34446
535.176	26785
535.243	25623
535.310	23174
535.378	22423
535.445	22542
535.512	23604
535.579	23372
535.646	21832
535.714	22731
535.781	25341
535.848	24595
535.915	23435
535.982	21223
536.049	22175
536.116	23534
536.183	21687
536.250	21300
536.317	21311
536.384	24246
536.451	24392
536.518	24447
536.585	21745
536.652	25012
536.719	25127
536.786	21567
536.853	22530
536.920	25214
536.987	23342
537.053	21400
537.120	24058
537.187	26096
537.254	26403
537.321	25634
537.388	27672
537.454	25033
537.521	25300
537.588	24990
537.654	26622
537.721	27622
537.788	28311
537.855	25462
537.921	25920
537.988	25161
538.055	23989
538.121	21975
538.188	22790
538.254	22271
538.321	22638
538.388	24490
538.454	27779
538.521	28639
538.587	27508
538.654	26495
538.720	25767
538.787	26327
538.853	27432
538.920	25055
538.986	22538
539.053	22583
539.119	24257
539.185	24663
539.252	26609
539.318	26913
539.385	29478
539.451	26299
539.517	26857
539.583	26830
539.650	25841
539.716	25197
539.782	24637
539.849	24783
539.915	25144
539.981	24344
540.047	24536
540.114	24499
540.180	26864
540.246	27608
540.312	29551
540.378	26981
540.444	27779
540.510	27750
540.576	28158
540.643	25828
540.709	25210
540.775	26079
540.841	25707
540.907	24923
540.973	25976
541.039	25425
541.105	26960
541.171	28335
541.237	29177
541.303	28437
541.369	29463
541.435	27968
541.500	26519
541.566	23790
541.632	25782
541.698	26547
541.764	27716
541.830	26962
541.896	25763
541.961	26708
542.027	25701
542.093	28582
542.159	29610
542.224	26140
542.290	27531
542.356	25294
542.421	25493
542.487	24739
542.553	24539
542.618	25724
542.684	26536
542.750	26550
542.815	28604
542.881	26944
542.947	27238
543.012	29038
543.078	24784
543.143	24291
543.209	26512
543.274	24853
543.340	27082
543.405	27053
543.471	26241
543.536	27322
543.602	27878
543.667	26186
543.732	28587
543.798	26703
543.863	27731
543.928	27565
543.994	27515
544.059	28122
544.124	29837
544.190	29752
544.255	30310
544.320	30149
544.386	29018
544.451	30733
544.516	30928
544.581	29514
544.646	31276
544.712	30750
544.777	31123
544.842	31300
544.907	30356
544.972	31749
545.037	34903
545.102	36512
545.168	34329
545.233	34528
545.298	33905
545.363	32879
545.428	35710
545.493	37942
545.558	36744
545.623	35418
545.688	36632
545.753	37529
545.818	38864
545.883	43332
545.947	42583
546.012	44085
546.077	45705
546.142	48855
546.207	49189
546.272	53123
546.337	52498
546.401	55655
546.466	58179
546.531	59405
546.596	64002
546.661	65914
546.725	71729
546.790	75093
546.855	82222
546.919	90338
546.984	99615
547.049	107667
547.113	121194
547.178	133660
547.243	151816
547.307	173139
547.372	190490
547.436	193960
547.501	204763
547.565	215105
547.630	197780
547.695	191399
547.759	193957
547.823	196821
547.888	199376
547.952	204070
548.017	217891
548.081	240532
548.146	218934
548.210	219922
548.274	234948
548.339	226422
548.403	208226
548.468	196964
548.532	197824
548.596	203008
548.660	204429
548.725	223016
548.789	238798
548.853	229287
548.917	221776
548.982	211652
549.046	192474
549.110	175867
549.174	185772
549.238	214376
549.303	230799
549.367	236498
549.431	222324
549.495	210221
549.559	212212
549.623	247170
549.687	261040
549.751	260001
549.815	309060
549.879	305487
549.943	298988
550.007	313737
550.071	305889
550.135	277827
550.199	266190
550.263	261447
550.327	250592
550.391	269707
550.455	293079
550.519	295976
550.582	314700
550.646	350357
550.710	353134
550.774	348171
550.838	355520
550.901	366111
550.965	387892
551.029	402041
551.093	431131
551.156	470046
551.220	505738
551.284	520090
551.347	427247
551.411	381314
551.475	365092
551.538	375784
551.602	351251
551.666	334867
551.729	316313
551.793	310064
551.856	303108
551.920	298883
551.983	297131
552.047	293791
552.110	302262
552.174	306532
552.237	306797
552.301	283094
552.364	272551
552.428	265652
552.491	276362
552.554	278091
552.618	275943
552.681	283828
552.745	271435
552.808	278735
552.871	290632
552.934	283354
552.998	275327
553.061	271028
553.124	263771
553.187	263762
553.251	271327
553.314	268883
553.377	273483
553.440	293490
553.503	296305
553.567	292636
553.630	289758
553.693	288225
553.756	291181
553.819	283040
553.882	274282
553.945	276043
554.008	279997
554.071	281283
554.134	281640
554.197	267897
554.260	263464
554.323	268330
554.386	270144
554.449	280277
554.512	278959
554.575	267032
554.638	266431
554.701	263291
554.764	261715
554.827	254420
554.889	246414
554.952	229924
555.015	227712
555.078	233037
555.141	235197
555.203	229475
555.266	229563
555.329	227349
555.391	218847
555.454	217366
555.517	208133
555.580	202103
555.642	194351
555.705	192349
555.768	191625
555.830	184396
555.893	175965
555.955	172387
556.018	169070
556.080	169677
556.143	175977
556.206	171150
556.268	166173
556.330	164248
556.393	159024
556.455	155698
556.518	151861
556.580	147038
556.643	143254
556.705	139259
556.767	137446
556.830	136332
556.892	132238
556.955	131709
557.017	126895
557.079	126911
557.142	123450
557.204	122836
557.266	122190
557.328	112877
557.391	107232
557.453	106497
557.515	104868
557.577	107947
557.639	108082
557.701	106168
557.764	105938
557.826	108042
557.888	110933
557.950	113713
558.012	124778
558.074	158845
558.136	320586
558.198	588751
558.260	224263
558.322	121782
558.384	118361
558.446	120782
558.508	128421
558.570	143522
558.632	162145
558.694	205082
558.756	333290
558.818	774202
558.880	1171554
558.942	630416
559.003	652675
559.065	310353
559.127	157713
559.189	144115
559.251	161653
559.312	224502
559.374	467552
559.436	983723
559.498	507499
559.559	182476
559.621	146858
559.683	166021
559.744	256052
559.806	643266
559.868	738593
559.929	231498
559.991	166103
560.052	260576
560.114	588526
560.176	356354
560.237	386193
560.299	494055
560.360	131715
560.422	67735
560.483	59371
560.545	53719
560.606	51396
560.667	49314
560.729	47301
560.790	45061
560.852	44767
560.913	42083
560.974	41103
561.036	41347
561.097	41696
561.158	40135
561.220	39204
561.281	38641
561.342	37291
561.403	37772
561.465	37328
561.526	36724
561.587	36631
561.648	34640
561.709	33895
561.771	34759
561.832	34082
561.893	32785
561.954	32861
562.015	33168
562.076	32174
562.137	31064
562.198	31433
562.259	31803
562.320	31322
562.381	31481
562.442	31303
562.503	31009
562.564	29621
562.625	29930
562.686	28716
562.747	28693
562.808	28089
562.869	27296
562.930	28719
562.991	27697
563.051	27261
563.112	26919
563.173	26324
563.234	26305
563.294	26278
563.355	25687
563.416	25277
563.477	26840
563.537	25693
563.598	25392
563.659	25068
563.720	25381
563.780	26354
563.841	25216
563.901	26234
563.962	24734
564.023	24069
564.083	25293
564.144	24739
564.204	24005
564.265	24062
564.325	24151
564.386	24261
564.446	24433
564.507	22755
564.567	23055
564.628	23263
564.688	22652
564.749	21940
564.809	22569
564.869	23900
564.930	23106
564.990	23202
565.050	23383
565.111	23414
565.171	22445
565.231	23433
565.292	24109
565.352	21965
565.412	22996
565.472	22733
565.532	22459
565.593	21547
565.653	22195
565.713	21976
565.773	22906
565.833	22878
565.893	24037
565.953	21710
566.013	21290
566.074	22057
566.134	20947
566.194	20602
566.254	21081
566.314	21837
566.374	21306
566.434	21680
566.494	20550
566.554	21070
566.614	22616
566.673	22184
566.733	23184
566.793	23176
566.853	21451
566.913	22901
566.973	22295
567.033	23037
567.092	21692
567.152	22121
567.212	22806
567.272	22244
567.331	23803
567.391	23490
567.451	24092
567.511	24814
567.570	23945
567.630	23612
567.690	23265
567.749	22761
567.809	22900
567.868	22996
567.928	22397
567.988	22094
568.047	22749
568.107	22416
568.166	22550
568.226	23033
568.285	22814
568.345	22766
568.404	23460
568.464	22368
568.523	21294
568.582	23694
568.642	22675
568.701	21746
568.761	20607
568.820	21387
568.879	21814
568.939	22776
568.998	22226
569.057	21818
569.116	22539
569.176	22571
569.235	23079
569.294	22306
569.353	20534
569.413	21733
569.472	21165
569.531	20646
569.590	20135
569.649	21464
569.708	20530
569.767	21488
569.827	21727
569.886	20222
569.945	20942
570.004	21474
570.063	20938
570.122	22626
570.181	22829
570.240	23271
570.299	22676
570.358	24102
570.417	23496
570.475	23143
570.534	23472
570.593	23255
570.652	23304
570.711	23424
570.770	22612
570.829	22310
570.887	22995
570.946	23663
571.005	22729
571.064	22987
571.122	23714
571.181	22416
571.240	22449
571.299	21009
571.357	21835
571.416	21178
571.475	22644
571.533	22557
571.592	24861
571.650	24639
571.709	24708
571.768	26997
571.826	27937
571.885	27103
571.943	24888
572.002	22800
572.060	23344
572.119	23132
572.177	22276
572.236	23835
572.294	24280
572.352	23692
572.411	23978
572.469	23301
572.528	22261
572.586	21991
572.644	22670
572.703	21679
572.761	21888
572.819	21568
572.877	20818
572.936	20987
572.994	20122
573.052	21494
573.110	21077
573.169	22493
573.227	21316
573.285	22071
573.343	21708
573.401	20996
573.459	21691
573.517	21717
573.576	23341
573.634	22976
573.692	22322
573.750	21393
573.808	22046
573.866	20773
573.924	21644
573.982	21710
574.040	21210
574.098	20768
574.155	19748
574.213	20483
574.271	21037
574.329	23866
574.387	21759
574.445	19779
574.503	19947
574.560	19240
574.618	18576
574.676	19842
574.734	19455
574.792	18817
574.849	18508
574.907	16431
574.965	16636
575.022	15808
575.080	16385
575.138	17113
575.195	16576
575.253	15736
575.311	16308
575.368	15636
575.426	15609
575.483	16949
575.541	16954
575.598	17218
575.656	16511
575.713	17908
575.771	18532
575.828	17221
575.886	15536
575.943	16245
576.001	14804
576.058	16113
576.115	15843
576.173	15726
576.230	16186
576.287	16220
576.345	16191
576.402	16673
576.459	17545
576.517	16157
576.574	15558
576.631	15010
576.688	15232
576.746	15343
576.803	15321
576.860	14455
576.917	15675
576.974	15358
577.031	15783
577.089	15612
577.146	14155
577.203	13363
577.260	15134
577.317	14249
577.374	14107
577.431	14678
577.488	14620
577.545	13949
577.602	14208
577.659	14737
577.716	14152
577.773	14420
577.830	14284
577.886	13955
577.943	13964
578.000	14003
578.057	13450
578.114	13737
578.171	14323
578.227	14777
578.284	13109
578.341	15487
578.398	14780
578.454	14096
578.511	14935
578.568	14894
578.625	14745
578.681	15108
578.738	13764
578.794	14174
578.851	14841
578.908	13629
578.964	14556
579.021	13986
579.077	15178
579.134	13973
579.190	14827
579.247	14457
579.303	13804
579.360	14721
579.416	13715
579.473	14349
579.529	13639
579.586	14320
579.642	14010
579.698	14785
579.755	14941
579.811	14946
579.867	14454
579.924	14807
579.980	14797
580.036	15483
580.093	14982
580.149	15463
580.205	16031
580.261	15683
580.317	16438
580.374	16359
580.430	16514
580.486	15551
580.542	15776
580.598	16046
580.619	16161
580.654	16379
580.692	16334
580.710	16337
580.765	15797
580.767	15797
580.823	16722
580.838	16716
580.879	16736
580.911	17350
580.935	17840
580.984	17162
580.991	17088
581.047	17021
581.057	16889
581.103	16361
581.130	15766
581.159	15134
581.203	16015
581.215	16281
581.270	16623
581.276	16516
581.326	15628
581.349	15384
581.382	15012
581.422	15334
581.438	15490
581.494	15353
581.494	15339
581.550	14947
581.567	15077
581.606	15443
581.640	15728
581.661	15836
581.713	16148
581.717	16192
581.773	15544
581.786	15384
581.829	14809
581.859	15453
581.885	16083
581.932	15770
581.940	15712
581.996	15543
582.004	15521
582.052	15353
582.077	15577
582.107	15899
582.150	15488
582.163	15347
582.219	14573
582.223	14566
582.274	14712
582.296	14803
582.330	14941
582.368	15166
582.386	15268
582.441	15404
582.441	15406
582.497	15128
582.514	14950
582.552	14923
582.587	15110
582.608	15143
582.659	14824
582.663	14782
582.719	15511
582.732	15290
582.774	14868
582.805	15026
582.830	15126
582.877	15853
582.885	15972
582.941	15204
582.950	15180
582.996	14796
583.023	14671
583.052	14881
583.095	15214
583.107	15226
583.162	15671
583.168	15670
583.218	15510
583.240	15005
583.273	14333
583.313	14340
583.328	14453
583.384	15560
583.385	15545
583.439	14540
583.458	14745
583.494	15471
583.531	15347
583.549	15236
583.603	14993
583.605	14978
583.660	15541
583.676	15499
583.715	15440
583.748	15745
583.770	16000
583.820	15634
583.825	15590
583.881	15798
583.893	15641
583.936	15127
583.965	15403
583.991	15639
584.038	15535
584.046	15520
584.101	15907
584.110	16079
584.156	16802
584.183	16516
584.211	16250
584.255	16343
584.266	16406
584.321	17333
584.328	17376
584.376	17695
584.400	17705
584.431	17659
584.472	17378
584.486	17308
584.541	18213
584.545	18296
584.596	19361
584.617	19275
584.651	19532
584.689	20142
584.706	20124
584.761	20347
584.762	20351
584.816	21482
584.834	21847
584.871	22161
584.906	22925
584.926	23525
584.978	24841
584.980	24888
585.035	27033
585.051	27963
585.090	30741
585.123	32594
585.145	33875
585.195	38217
585.200	38656
585.254	43687
585.267	45316
585.309	50892
585.340	55624
585.364	59833
585.412	69819
585.419	71553
585.473	89366
585.484	94869
585.528	123315
585.556	151617
585.583	196157
585.628	304516
585.637	335911
585.692	614098
585.700	651316
585.747	767411
585.772	665730
585.801	471564
585.845	234807
585.856	194924
585.910	105105
585.917	97618
585.965	71871
585.989	62491
586.019	54670
586.061	46579
586.074	44602
586.128	39534
586.133	39188
586.183	37063
586.205	36364
586.237	35401
586.277	34205
586.292	33907
586.346	33347
586.349	33345
586.401	33580
586.421	33461
586.455	33164
586.493	33152
586.509	33254
586.564	33028
586.565	33039
586.618	34835
586.637	36009
586.672	40041
586.709	45128
586.727	47128
586.781	52217
586.781	52219
586.835	42875
586.853	40715
586.889	37216
586.925	33995
586.944	32963
586.996	32260
586.998	32277
587.052	32987
587.068	32818
587.106	32547
587.140	32882
587.161	33021
587.212	33425
587.215	33444
587.269	33246
587.284	33199
587.323	33690
587.356	34326
587.377	34643
587.427	35538
587.431	35635
587.485	36521
587.499	36667
587.539	37000
587.571	37895
587.593	38813
587.643	40073
587.648	40225
587.702	41918
587.715	42120
587.755	41967
587.786	42048
587.810	41682
587.858	41104
587.864	41212
587.917	42353
587.930	42309
587.971	41908
588.001	42070
588.025	42093
588.073	41991
588.079	41995
588.133	41505
588.145	41555
588.187	41989
588.217	41824
588.241	42179
588.288	43477
588.295	43528
588.348	43467
588.360	43359
588.402	43462
588.431	43653
588.456	43988
588.503	44768
588.510	45010
588.564	46990
588.575	47545
588.617	49710
588.646	50688
588.671	51290
588.718	52927
588.725	53547
588.778	59751
588.789	61320
588.832	78110
588.861	92047
588.886	123141
588.932	195168
588.939	201582
588.993	244138
589.004	239900
589.047	131988
589.075	75753
589.100	63932
589.147	50994
589.154	50622
589.207	48295
589.218	47878
589.261	48968
589.290	50050
589.314	51291
589.361	54313
589.368	55373
589.421	64490
589.433	66939
589.475	96493
589.504	120791
589.528	151141
589.576	216185
589.582	210391
589.635	114444
589.647	96416
589.689	66096
589.718	50006
589.742	49105
589.790	47529
589.795	47517
589.849	46964
589.861	46871
589.902	46854
589.932	46922
589.955	46937
590.004	46306
590.009	46362
590.062	46822
590.075	46913
590.115	46554
590.146	46151
590.168	46177
590.218	46198
590.222	46347
590.275	48056
590.289	48403
590.328	49024
590.360	49222
590.381	49484
590.431	50461
590.435	50535
590.488	50753
590.503	50731
590.541	51931
590.574	53079
590.594	53610
590.645	54704
590.647	54830
590.700	56723
590.716	57286
590.753	58358
590.787	58997
590.806	59574
590.859	61130
590.859	61211
590.912	62124
590.930	62301
590.965	63112
591.001	63861
591.018	63291
591.071	60991
591.072	60907
591.124	60506
591.143	60373
591.177	61239
591.214	62210
591.230	62757
591.283	64026
591.285	64004
591.336	62891
591.356	62377
591.389	62389
591.427	62212
591.442	62103
591.495	61428
591.498	61321
591.547	62522
591.569	63004
591.600	63679
591.640	64356
591.653	64650
591.706	65496
591.711	65522
591.759	66632
591.782	67148
591.811	68932
591.853	71283
591.864	71400
591.917	71539
591.924	71456
591.969	71376
591.995	71236
592.022	71820
592.066	72708
592.075	73125
592.127	75089
592.137	75373
592.180	75800
592.208	75907
592.233	77016
592.279	78956
592.285	79210
592.338	80554
592.350	80766
592.390	81254
592.421	81482
592.443	82240
592.491	83539
592.495	83722
592.548	84800
592.562	84992
592.600	84645
592.633	84153
592.653	84322
592.704	84047
592.705	84554
592.775	85922
592.846	89711
592.916	90696
592.987	90272
593.058	92681
593.128	93647
593.199	94151
593.270	95022
593.341	97037
593.411	99884
593.482	103298
593.553	106419
593.623	106729
593.694	109844
593.764	112478
593.835	111712
593.906	113999
593.976	115603
594.047	118986
594.117	124142
594.188	126693
594.258	128447
594.329	127326
594.399	130445
594.470	134388
594.540	138653
594.611	142768
594.681	139384
594.751	139795
594.822	146086
594.892	150408
594.963	154200
595.033	159858
595.103	163259
595.174	162857
595.244	168195
595.314	173193
595.384	175396
595.455	181137
595.525	187476
595.595	193472
595.665	193434
595.736	188218
595.806	194276
595.876	194276
595.946	198597
596.016	205649
596.087	212006
596.157	211073
596.227	211959
596.297	223394
596.367	239049
596.437	249842
596.507	247750
596.577	247388
596.647	254354
596.717	267151
596.787	270154
596.857	270374
596.927	271648
596.997	274552
597.067	276748
597.137	282054
597.207	281752
597.277	284366
597.347	271151
597.417	265174
597.487	264698
597.557	270357
597.626	277983
597.696	281282
597.766	277901
597.836	261614
597.906	248907
597.975	246021
598.045	253021
598.115	260187
598.185	280633
598.254	309883
598.324	330937
598.394	337268
598.464	324854
598.533	321248
598.603	299823
598.672	291570
598.742	298301
598.812	299792
598.881	309850
598.951	305994
599.020	311573
599.090	322202
599.159	324538
599.229	311998
599.299	307759
599.368	315679
599.437	312142
599.507	287146
599.576	279630
599.646	273394
599.715	270843
599.785	269376
599.854	261625
599.924	257675
599.993	257028
600.062	262503
600.132	269350
600.201	285158
600.270	326386
600.340	338909
600.409	334361
600.478	332439
600.547	338042
600.617	302850
600.686	247033
600.755	224923
600.824	214684
600.894	209209
600.963	212251
601.032	206957
601.101	200710
601.170	192146
601.239	184958
601.308	183484
601.378	184636
601.447	185236
601.516	186899
601.585	189000
601.654	191090
601.723	190914
601.792	195348
601.861	202071
601.930	207936
601.999	208877
602.068	208842
602.137	211243
602.206	214947
602.275	216949
602.343	219805
602.412	218978
602.481	223359
602.550	221795
602.619	230366
602.688	231283
602.756	235006
602.825	237880
602.894	242685
602.963	247962
603.032	253638
603.100	250882
603.169	253361
603.238	252833
603.307	256731
603.375	257947
603.444	264011
603.513	269733
603.581	271544
603.650	274867
603.719	273665
603.787	282919
603.856	289039
603.924	294743
603.993	302541
604.061	315392
604.130	325535
604.198	331890
604.267	338726
604.335	340724
604.404	348273
604.472	351564
604.541	353667
604.609	359445
604.678	356966
604.746	358563
604.815	370200
604.883	372896
604.951	373325
605.020	381148
605.088	389876
605.156	395534
605.225	404057
605.293	404409
605.361	403425
605.429	408876
605.498	414885
605.566	422859
605.634	443773
605.702	458897
605.771	470761
605.839	468493
605.907	460616
605.975	444780
606.043	441650
606.111	442122
606.180	435867
606.248	436628
606.316	430656
606.384	429444
606.452	436635
606.520	447552
606.588	464249
606.656	463737
606.724	455250
606.792	431681
606.860	397818
606.928	368867
606.996	357595
607.064	351074
607.132	359472
607.200	378964
607.267	388913
607.335	398420
607.403	404474
607.471	389461
607.539	381628
607.607	377518
607.674	342808
607.742	342704
607.810	337523
607.878	337869
607.946	347502
608.013	361722
608.081	365198
608.149	370008
608.216	383835
608.284	393256
608.352	392956
608.419	388013
608.487	381605
608.555	376958
608.622	388710
608.690	411525
608.757	446484
608.825	451162
608.893	441865
608.960	416874
609.028	402911
609.095	405306
609.163	403404
609.230	360166
609.298	339012
609.365	356909
609.432	380153
609.500	409515
609.567	458934
609.635	509720
609.702	525326
609.769	496730
609.837	399333
609.904	362588
609.971	370102
610.039	392874
610.106	455070
610.173	659216
610.241	1040850
610.308	728892
610.375	447937
610.442	395748
610.509	378594
610.577	378605
610.644	383703
610.711	396539
610.778	400941
610.845	416839
610.912	439968
610.980	452073
611.047	450586
611.114	444153
611.181	432398
611.248	433812
611.315	454682
611.382	465622
611.449	477729
611.516	482749
611.583	478113
611.650	480870
611.717	487028
611.784	490888
611.851	505008
611.918	521297
611.984	569153
612.051	673622
612.118	933274
612.185	1345920
612.252	1073508
612.319	690368
612.386	608616
612.452	559888
612.519	535852
612.586	525163
612.653	531884
612.719	546384
612.786	526330
612.853	501422
612.919	493688
612.986	496751
613.053	473448
613.120	450091
613.186	438936
613.253	443671
613.319	441301
613.386	443399
613.453	450142
613.519	453708
613.586	442132
613.652	448696
613.719	443062
613.785	451850
613.852	453304
613.918	451389
613.985	455875
614.051	469527
614.118	463405
614.184	449882
614.250	451520
614.317	460070
614.383	455137
614.449	465369
614.516	460281
614.582	461111
614.648	453618
614.715	452003
614.781	440761
614.847	444603
614.914	441262
614.980	431159
615.046	433982
615.112	446088
615.179	446409
615.245	450616
615.311	446917
615.377	449759
615.443	454602
615.509	462975
615.575	473543
615.642	468957
615.708	478432
615.774	494773
615.840	514826
615.906	528787
615.972	581510
616.038	719008
616.104	1046316
616.170	1422102
616.236	1251370
616.302	835587
616.368	715872
616.434	589152
616.500	553056
616.565	583438
616.631	667227
616.697	597398
616.763	598144
616.829	758450
616.895	1057801
616.961	988383
617.026	641353
617.092	518703
617.158	487646
617.224	470246
617.289	440860
617.355	421495
617.421	418138
617.487	414534
617.552	400402
617.618	397608
617.684	396466
617.749	397775
617.815	384573
617.880	378953
617.946	378812
618.012	385562
618.077	392360
618.143	376744
618.208	380487
618.274	404737
618.339	399436
618.405	342598
618.470	347206
618.536	345082
618.601	339729
618.667	318999
618.732	307724
618.798	303863
618.863	304271
618.928	300226
618.994	304862
619.059	300372
619.124	301809
619.190	300459
619.255	299170
619.320	299589
619.386	303112
619.451	298021
619.516	290752
619.581	297556
619.647	308732
619.712	304237
619.777	293095
619.842	296207
619.907	299572
619.972	305914
620.038	301840
620.103	297401
620.168	296507
620.233	301580
620.298	302089
620.363	306658
620.428	312398
620.493	319531
620.558	322654
620.623	327907
620.688	324045
620.753	320888
620.818	325774
620.883	329523
620.948	327328
621.013	325534
621.078	319128
621.143	323251
621.207	328156
621.272	320815
621.337	313836
621.402	314011
621.467	312412
621.532	309007
621.596	309318
621.661	301192
621.726	302121
621.791	303355
621.855	299699
621.920	302416
621.985	303599
622.049	309587
622.114	310477
622.179	314210
622.243	318890
622.308	329510
622.373	338211
622.437	329654
622.502	316452
622.566	314715
622.631	314199
622.695	319747
622.760	317560
622.824	317765
622.889	319950
622.953	318639
623.018	335954
623.082	335488
623.147	335167
623.211	327879
623.276	327990
623.340	318633
623.404	312271
623.469	310210
623.533	315460
623.597	307373
623.662	306900
623.726	289299
623.790	274680
623.854	267600
623.919	274697
623.983	276810
624.047	280592
624.111	284461
624.176	286864
624.240	286512
624.304	296714
624.368	284535
624.432	287392
624.496	292724
624.560	305665
624.625	306507
624.689	307103
624.753	315572
624.817	302675
624.881	296870
624.945	271388
625.009	265924
625.073	273227
625.137	276979
625.201	288254
625.265	287382
625.329	278565
625.393	281094
625.456	283477
625.520	291856
625.584	292187
625.648	300900
625.712	305798
625.776	300379
625.839	281941
625.903	248602
625.967	236205
626.031	250393
626.095	287610
626.158	265013
626.222	218525
626.286	210169
626.349	202743
626.413	189335
626.477	190698
626.540	192491
626.604	191057
626.668	188399
626.731	183521
626.795	183034
626.858	183822
626.922	180973
626.986	179306
627.049	181741
627.113	189701
627.176	181276
627.240	176506
627.303	175880
627.366	173765
627.430	176938
627.493	173191
627.557	171124
627.620	175281
627.684	180827
627.747	181073
627.810	165212
627.874	151350
627.937	146216
628.000	153001
628.064	146871
628.127	133545
628.190	133649
628.253	131794
628.317	124348
628.380	120371
628.443	116111
628.506	115189
628.569	111264
628.632	106806
628.696	106857
628.759	106954
628.822	101076
628.885	99192
628.948	98221
629.011	96810
629.074	93646
629.137	91482
629.200	89137
629.263	88448
629.326	85607
629.389	87090
629.452	85387
629.515	83474
629.578	84692
629.641	85336
629.704	84613
629.767	83973
629.830	81293
629.892	79270
629.955	78153
630.018	81458
630.081	78616
630.144	79685
630.207	75170
630.269	78778
630.332	75075
630.395	76519
630.458	73380
630.520	69578
630.583	72017
630.646	73793
630.708	72299
630.771	75244
630.834	79407
630.896	77344
630.959	75034
631.021	73694
631.084	73101
631.146	74240
631.209	75279
631.272	73340
631.334	76238
631.397	75548
631.459	74438
631.522	77559
631.584	78968
631.646	84847
631.709	83662
631.771	84970
631.834	81168
631.896	78184
631.958	75616
632.021	75148
632.083	70613
632.145	72558
632.208	69442
632.270	69608
632.332	70126
632.395	68626
632.457	70081
632.519	68389
632.581	69849
632.643	67502
632.706	67756
632.768	66734
632.830	68882
632.892	69656
632.954	67692
633.016	71408
633.078	68773
633.141	70317
633.203	67397
633.265	68793
633.327	67770
633.389	69275
633.451	69323
633.513	67583
633.575	70114
633.637	69328
633.698	70164
633.760	75597
633.822	77319
633.884	78076
633.946	79629
634.008	78952
634.070	81815
634.132	84408
634.193	88870
634.255	95105
634.317	94824
634.379	93767
634.441	87779
634.502	81658
634.564	77387
634.626	72399
634.687	68643
634.749	67477
634.811	67066
634.873	66024
634.934	66085
634.996	67158
635.057	66537
635.119	67234
635.181	69745
635.242	70307
635.304	67168
635.365	70976
635.427	67169
635.488	68884
635.550	66208
635.611	68657
635.673	67388
635.734	72960
635.796	75312
635.857	81079
635.918	83958
635.980	92477
636.041	95647
636.102	99089
636.164	98943
636.225	96652
636.286	84418
636.348	79219
636.409	72787
636.470	68856
636.531	68217
636.593	65617
636.654	64170
636.715	62930
636.776	61474
636.838	62069
636.899	60358
636.960	60251
637.021	57684
637.082	57803
637.143	57013
637.204	55526
637.265	56564
637.326	57734
637.387	57954
637.448	56772
637.509	57440
637.570	57302
637.631	56435
637.692	54693
637.753	52665
637.814	53879
637.875	53580
637.936	54425
637.997	54068
638.058	53246
638.119	54673
638.179	53672
638.240	53256
638.301	53216
638.362	51005
638.423	50676
638.483	51540
638.544	48707
638.605	52353
638.666	51948
638.726	50220
638.787	52165
638.848	51508
638.908	49417
638.969	47703
639.030	47886
639.090	48233
639.151	48129
639.211	49865
639.272	50015
639.332	48733
639.393	50385
639.453	52172
639.514	53377
639.574	48978
639.635	46808
639.695	46423
639.756	45023
639.816	45884
639.877	45381
639.937	46339
639.997	44137
640.058	44231
640.118	44987
640.178	46124
640.239	43780
640.299	45854
640.359	46367
640.420	49164
640.480	52921
640.540	57623
640.600	58501
640.661	56598
640.721	56827
640.781	69213
640.841	68419
640.901	49057
640.961	47365
641.021	49164
641.082	49308
641.142	48080
641.202	46435
641.262	43136
641.322	44586
641.382	42794
641.442	44499
641.502	43011
641.562	44910
641.622	44977
641.682	49018
641.742	51772
641.802	48330
641.861	45290
641.921	42658
641.981	41667
642.041	40413
642.101	40484
642.161	38690
642.221	38936
642.280	41227
642.340	41271
642.400	40138
642.460	43411
642.519	43362
642.579	42480
642.639	43393
642.698	41105
642.758	45232
642.818	43605
642.877	42709
642.937	43604
642.997	43570
643.056	42958
643.116	41282
643.175	45334
643.235	44611
643.294	45461
643.354	48506
643.414	48690
643.473	54654
643.532	60265
643.592	73402
643.651	100451
643.711	154023
643.770	264086
643.830	537216
643.889	763536
643.948	293809
644.008	111413
644.067	74725
644.126	58536
644.186	51991
644.245	48168
644.304	44148
644.363	46129
644.423	41527
644.482	43106
644.541	45800
644.600	45395
644.659	53647
644.719	60859
644.778	81542
644.837	123363
644.896	229055
644.955	409433
645.014	149625
645.073	64250
645.132	52914
645.191	49051
645.250	46198
645.309	48385
645.368	52338
645.427	64565
645.486	105487
645.545	149769
645.604	57529
645.663	44880
645.722	44066
645.781	45270
645.840	47926
645.898	54140
645.957	68516
646.016	91771
646.075	144046
646.134	249344
646.192	540365
646.251	595297
646.310	175629
646.369	83613
646.427	70638
646.486	54816
646.545	46255
646.603	43299
646.662	40728
646.721	39321
646.779	39147
646.838	39007
646.896	46341
646.955	55875
647.014	80976
647.072	141659
647.131	312965
647.189	140108
647.248	45117
647.306	37889
647.365	36101
647.423	32186
647.481	32809
647.540	30731
647.598	32066
647.657	31804
647.715	31992
647.773	30827
647.832	30835
647.890	27823
647.948	27343
648.007	28904
648.065	27133
648.123	27481
648.181	28259
648.240	27770
648.298	25620
648.356	26400
648.414	27339
648.472	26380
648.531	25703
648.589	24880
648.647	25554
648.705	25339
648.763	26645
648.821	25998
648.879	26407
648.937	28395
648.995	31690
649.053	37851
649.111	47826
649.169	71313
649.227	116355
649.285	231755
649.343	485969
649.401	227058
649.459	60576
649.516	40087
649.574	31764
649.632	33867
649.690	34886
649.748	42220
649.806	56038
649.863	100973
649.921	241147
649.979	138030
650.037	35000
650.094	24474
650.152	24245
650.210	23068
650.268	25945
650.325	29948
650.383	35112
650.440	20809
650.498	19871
650.556	18155
650.613	18953
650.671	18757
650.728	19296
650.786	20354
650.843	27075
650.901	19745
650.958	17900
651.016	17006
651.073	17082
651.131	16529
651.188	15872
651.246	15840
651.303	16544
651.360	15401
651.418	15040
651.475	15538
651.532	14678
651.590	15735
651.647	14987
651.704	15800
651.762	15066
651.819	14789
651.876	14683
651.933	14188
651.990	14272
652.048	13103
652.105	14649
652.162	14187
652.219	12609
652.276	14453
652.333	13770
652.390	12015
652.448	13365
652.505	12672
652.562	13122
652.619	12283
652.676	12963
652.733	14352
652.790	11972
652.847	12287
652.904	13552
652.961	11706
653.017	11704
653.074	12782
653.131	12950
653.188	11510
653.245	12570
653.302	12144
653.359	11966
653.415	12701
653.472	10971
653.529	12512
653.586	11746
653.642	11812
653.699	12823
653.756	11574
653.813	11816
653.869	12888
653.926	12702
653.983	12034
654.039	12048
654.096	11454
654.152	11685
654.209	10194
654.266	11296
654.322	10724
654.379	12781
654.435	12488
654.492	10949
654.548	11752
654.605	12049
654.661	13625
654.717	11926
654.774	12084
654.830	12341
654.887	12627
654.943	14102
655.000	18792
655.056	14713
655.112	12295
655.168	10747
655.225	12050
655.281	11295
655.337	11664
655.394	11334
655.450	11254
655.506	11751
655.562	11577
655.618	11998
655.675	10552
655.731	11942
655.787	11367
655.843	12984
655.899	12026
655.955	13569
656.011	13277
656.067	12002
656.123	14089
656.179	13585
656.235	14636
656.291	12953
656.347	14725
656.403	13432
656.459	13613
656.515	12101
656.571	11829
656.627	11855
656.683	12063
656.739	11616
656.795	11187
656.850	11255
656.906	11431
656.962	11810
657.018	12423
657.074	14517
657.129	18324
657.185	28819
657.241	57985
657.297	28069
657.352	13114
657.408	11463
657.464	11834
657.519	10531
657.575	9686
657.630	10867
657.686	9948
657.742	9951
657.797	10035
657.853	10307
657.908	11762
657.964	9454
658.019	10262
658.075	9705
658.130	10747
658.186	9484
658.241	9472
658.297	9301
658.352	9354
658.407	10739
658.463	9554
658.518	10400
658.573	10275
658.629	9429
658.684	9129
658.739	9604
658.795	9067
658.850	9702
658.905	9515
658.960	10378
659.016	8580
659.071	8794
659.126	9247
659.181	9368
659.236	10011
659.291	10308
659.346	8357
659.401	10065
659.457	9559
659.512	9283
659.567	10530
659.622	8878
659.677	8247
659.732	8627
659.787	8890
659.842	8932
659.897	8899
659.952	10020
660.007	9284
660.061	9642
660.116	8721
660.171	9640
660.226	8866
660.281	9868
660.336	8437
660.391	9289
660.445	7875
660.500	9254
660.555	9325
660.610	9273
660.664	8537
660.719	9037
660.774	9263
660.828	8490
660.883	8748
660.938	9730
660.992	6842
661.047	8512
661.101	8074
661.156	8489
661.211	8362
661.265	8296
661.320	8455
661.374	9115
661.429	8082
661.483	8926
661.538	8421
661.592	10576
661.647	11957
661.701	16894
661.755	10258
661.810	8713
661.864	8653
661.919	7787
661.973	8034
662.027	7990
662.081	7241
662.136	8780
662.190	8986
662.244	8091
662.299	8682
662.353	8722
662.407	8086
662.461	7969
662.515	8124
662.569	7598
662.624	8488
662.678	7442
662.732	9072
662.786	8335
662.840	7853
662.894	7636
662.948	8578
663.002	8267
663.056	8587
663.110	7418
663.164	8973
663.218	8472
663.272	7644
663.326	8339
663.380	8090
663.434	7279
663.488	7110
663.542	8669
663.595	8103
663.649	7978
663.703	8996
663.757	9083
663.811	7465
663.864	7297
663.918	7838
663.972	8572
664.026	8457
664.079	7379
664.133	8911
664.187	9041
664.240	8509
664.294	9887
664.348	9954
664.401	8902
664.455	9126
664.508	8301
664.562	8236
664.615	8188
664.669	7397
664.722	8708
664.776	7940
664.829	8113
664.883	8251
664.936	7577
664.990	8555
665.043	8326
665.097	8117
665.150	9748
665.203	7412
665.257	8498
665.310	8287
665.363	8339
665.417	8156
665.470	8103
665.523	8923
665.576	8782
665.630	8365
665.683	8888
665.736	8556
665.789	8271
665.842	7452
665.895	8451
665.949	8366
666.002	10083
666.055	8737
666.108	9608
666.161	8762
666.214	9200
666.267	9234
666.320	8634
666.373	8304
666.426	9414
666.479	9315
666.532	8736
666.585	9004
666.638	10313
666.691	9232
666.744	10521
666.796	8806
666.849	8314
666.902	9188
666.955	9535
667.008	8894
667.060	9044
667.113	8473
667.166	9620
667.219	10266
667.271	10053
667.324	9857
667.377	9300
667.430	8516
667.482	9477
667.535	8646
667.587	8617
667.640	8993
667.693	9087
667.745	8406
667.798	8739
667.850	8976
667.903	8814
667.955	9797
668.008	8365
668.060	9263
668.113	8812
668.165	8350
668.218	9479
668.270	8750
668.322	8385
668.375	8584
668.427	9179
668.479	8019
668.532	8709
668.584	7555
668.636	8239
668.689	7396
668.741	8400
668.793	8498
668.845	9048
668.898	8285
668.950	7981
669.002	8919
669.054	8625
669.106	8038
669.158	8560
669.211	7649
669.263	8486
669.315	8491
669.367	7987
669.419	7670
669.471	8872
669.523	7621
669.575	8002
669.627	7724
669.679	8042
669.731	8034
669.783	8143
669.835	7671
669.886	7296
669.938	7657
669.990	7369
670.042	8069
670.094	7488
670.146	7387
670.197	7291
670.249	8051
670.301	8084
670.353	7400
670.404	8125
670.456	7263
670.508	7449
670.560	9216
670.611	9818
670.663	10956
670.715	18233
670.766	20904
670.818	10408
670.869	7956
670.921	9390
670.972	9225
671.024	8835
671.075	7450
671.127	8365
671.178	8653
671.230	9436
671.281	9748
671.333	10855
671.384	12367
671.436	16022
671.487	20875
671.538	28593
671.590	44349
671.641	69424
671.692	124785
671.744	206666
671.795	145351
671.846	66144
671.897	35362
671.949	24873
672.000	18087
672.051	14235
672.102	12593
672.153	9910
672.204	10848
672.256	9091
672.307	8014
672.358	9925
672.409	7983
672.460	7535
672.511	6723
672.562	6957
672.613	6614
672.664	5825
672.715	7785
672.766	5946
672.817	6134
672.868	6408
672.919	6823
672.970	4696
673.021	6432
673.071	5537
673.122	5621
673.173	6354
673.224	6226
673.275	5654
673.326	4941
673.376	5017
673.427	4750
673.478	6952
673.528	5502
673.579	4818
673.630	5118
673.680	7325
673.731	5595
673.782	5653
673.832	4690
673.883	6573
673.934	5267
673.984	5540
674.035	5697
674.085	6659
674.136	5656
674.186	6323
674.237	5477
674.287	5897
674.338	5539
674.388	6226
674.438	6371
674.489	6852
674.539	6812
674.589	6602
674.640	6157
674.690	6029
674.740	5568
674.791	5638
674.841	5863
674.891	5432
674.942	5343
674.992	4449
675.042	5544
675.092	4727
675.142	4316
675.193	4201
675.243	4982
675.293	5129
675.343	4718
675.393	5064
675.443	5638
675.493	5312
675.543	4270
675.593	5932
675.643	5618
675.693	5730
675.743	4995
675.793	4906
675.843	4066
675.893	4766
675.943	4638
675.993	4475
676.043	4027
676.093	4755
676.142	4194
676.192	5027
676.242	4645
676.292	4406
676.341	4475
676.391	4582
676.441	4073
676.491	4673
676.540	3407
676.590	4417
676.640	3540
676.689	3619
676.739	3692
676.789	4263
676.838	4155
676.888	3589
676.937	3304
676.987	4044
677.037	3442
677.086	3594
677.136	3143
677.185	3152
677.235	4231
677.284	4821
677.333	4194
677.383	3935
677.432	3288
677.482	4228
677.531	3801
677.580	3401
677.630	4323
677.679	3907
677.728	3753
677.778	3461
677.827	2769
677.876	4080
677.925	3708
677.975	4334
678.024	4169
678.073	4336
678.122	4127
678.171	4559
678.220	4701
678.269	6155
678.319	6403
678.368	6391
678.417	5044
678.466	4747
678.515	4345
678.564	3925
678.613	3242
678.662	3054
678.711	3651
678.760	4081
678.809	4166
678.857	4139
678.906	4614
678.955	4460
679.004	5093
679.053	6136
679.102	6171
679.151	4071
679.199	3391
679.248	4117
679.297	3067
679.346	2993
679.394	2998
679.443	3221
679.492	4039
679.540	3833
679.589	3220
679.638	3422
679.686	4107
679.735	4050
679.784	4736
679.832	6220
679.881	4512
679.929	4097
679.978	3367
680.026	4705
680.075	3136
680.123	2635
680.172	3763
680.220	2993
680.268	3307
680.317	2921
680.365	2486
680.414	2823
680.462	3381
680.510	3969
680.559	3482
680.607	3640
680.655	3645
680.703	3800
680.752	2616
680.800	3805
680.848	3328
680.896	3284
680.945	2612
680.993	2444
681.041	2307
681.089	3154
681.137	3549
681.185	2831
681.233	3306
681.258	3302
681.281	3252
681.329	2206
681.377	3282
681.380	3339
681.425	3548
681.473	4502
681.502	4143
681.521	3810
681.569	4592
681.617	3988
681.624	4085
681.665	4335
681.713	4712
681.745	4667
681.761	4575
681.809	4258
681.857	4137
681.867	4221
681.904	4320
681.952	4808
681.989	4467
682.000	4302
682.048	4468
682.096	4017
682.111	4422
682.143	5164
682.191	4581
682.233	5693
682.239	5813
682.286	5014
682.334	5015
682.354	5221
682.382	5385
682.430	6514
682.476	5673
682.477	5614
682.525	5088
682.572	5131
682.598	5340
682.620	5450
682.667	5787
682.715	5546
682.720	5640
682.763	6105
682.810	6530
682.841	6411
682.857	6285
682.905	5338
682.952	6145
682.963	6235
683.000	6404
683.047	6141
683.085	7016
683.095	7210
683.142	6542
683.190	7239
683.206	7100
683.237	6685
683.284	7347
683.328	6763
683.332	6688
683.379	7473
683.426	7409
683.449	7274
683.473	7067
683.521	7241
683.568	7628
683.571	7676
683.615	7701
683.662	7517
683.693	7099
683.709	6821
683.757	7448
683.804	6690
683.814	6861
683.851	7493
683.898	8441
683.936	8179
683.945	8043
683.992	7755
684.039	8331
684.057	8302
684.086	8206
684.133	8291
684.179	7599
684.180	7552
684.227	8614
684.274	7755
684.300	8285
684.321	8679
684.368	8461
684.415	9293
684.422	9204
684.462	8434
684.509	8791
684.543	8965
684.556	9034
684.603	9484
684.649	8924
684.665	9289
684.696	9858
684.743	9509
684.786	10643
684.790	10713
684.837	8946
684.883	9340
684.908	9715
684.930	10060
684.977	9878
685.023	10026
685.029	10106
685.070	10486
685.117	10116
685.150	9976
685.164	9887
685.210	10355
685.257	10664
685.272	10845
685.303	11271
685.350	11178
685.393	10495
685.396	10398
685.443	9548
685.490	10009
685.514	10174
685.536	10412
685.583	9534
685.629	10624
685.636	10477
685.675	9628
685.722	10872
685.757	10606
685.768	10453
685.815	10839
685.861	10625
685.878	10545
685.908	10541
685.954	10544
686.000	11173
686.000	11171
686.047	11405
686.093	11813
686.121	11726
686.139	11656
686.185	12294
686.232	11473
686.242	11492
686.278	11315
686.324	12018
686.363	11508
686.370	11440
686.416	11594
686.463	12440
686.484	12109
686.509	11815
686.555	12408
686.601	11854
686.606	11944
686.647	12353
686.693	12577
686.727	12525
686.739	12548
686.785	11844
686.831	11939
686.848	12249
686.877	12816
686.923	12655
686.969	11972
686.969	11968
687.015	13030
687.061	13084
687.090	13979
687.107	14290
687.153	14487
687.199	13758
687.211	13650
687.245	13350
687.291	13769
687.332	13553
687.336	13587
687.382	14289
687.428	14584
687.453	14971
687.474	15245
687.520	15923
687.565	16558
687.574	16639
687.611	18790
687.657	22155
687.695	24938
687.702	25930
687.748	33841
687.794	41649
687.816	42960
687.839	37840
687.885	29914
687.931	22176
687.937	21228
687.976	19993
688.022	16859
688.058	15513
688.067	15555
688.113	15220
688.158	14335
688.179	14333
688.204	14684
688.249	15294
688.295	15715
688.300	15680
688.340	15186
688.386	15855
688.421	15312
688.431	15233
688.477	15118
688.522	15966
688.542	16077
688.567	16354
688.613	16344
688.658	16963
688.663	17013
688.703	16903
688.749	16511
688.784	16296
688.794	16336
688.839	16437
688.884	16772
688.905	16759
688.930	16642
688.975	16277
689.020	16186
689.026	16162
689.065	16999
689.110	18080
689.146	19070
689.155	19346
689.201	20766
689.246	21318
689.267	21669
689.291	20721
689.336	18822
689.381	16946
689.388	16695
689.426	16958
689.471	16866
689.509	16901
689.516	16896
689.561	16728
689.606	16775
689.630	16602
689.651	16572
689.696	16720
689.741	16892
689.750	16818
689.785	16873
689.830	17429
689.871	17677
689.875	17655
689.920	17259
689.965	16564
689.992	16504
690.010	16724
690.054	16792
690.099	17177
690.112	17118
690.144	17026
690.189	17284
690.233	16969
690.233	16989
690.278	16993
690.323	16866
690.354	16779
690.367	16861
690.412	17192
690.457	17096
690.474	17133
690.501	17012
690.546	16558
690.590	16579
690.595	16519
690.635	16333
690.680	16080
690.716	15693
690.724	15673
690.769	16052
690.813	16248
690.836	16069
690.857	16303
690.902	17457
690.946	18426
690.957	18648
690.991	18809
691.035	18447
691.077	18485
691.080	18522
691.124	18707
691.168	18779
691.198	18630
691.213	18514
691.257	18318
691.301	17959
691.318	17859
691.346	17990
691.390	18170
691.434	18282
691.439	18244
691.478	18100
691.522	18523
691.559	18467
691.567	18584
691.611	19325
691.655	19556
691.680	19839
691.699	19729
691.743	19696
691.787	19156
691.800	18982
691.831	18964
691.875	19385
691.919	19317
691.921	19279
691.964	19124
692.008	19352
692.041	19446
692.052	19504
692.096	19185
692.139	19692
692.162	19371
692.183	19066
692.227	19222
692.271	19045
692.282	18933
692.315	18946
692.359	19463
692.402	19337
692.403	19371
692.447	19420
692.490	19116
692.523	19077
692.534	19167
692.578	19494
692.622	19418
692.643	19382
692.666	19294
692.709	19532
692.753	19406
692.763	19352
692.797	19312
692.840	18861
692.884	18603
692.884	18643
692.928	19155
692.971	19821
693.004	19888
693.015	19785
693.059	19532
693.102	19113
693.124	18920
693.146	19056
693.189	19526
693.233	19433
693.245	19386
693.276	19338
693.320	19640
693.363	19617
693.365	19582
693.407	19743
693.450	20083
693.485	19918
693.493	19920
693.537	20107
693.580	19935
693.605	20026
693.624	20062
693.667	19736
693.710	19446
693.725	19355
693.753	19539
693.797	19693
693.840	19806
693.845	19789
693.883	20080
693.926	20321
693.966	20594
693.970	20638
694.013	20250
694.056	20283
694.086	20092
694.099	20180
694.142	20291
694.185	20675
694.206	20808
694.229	21026
694.272	21276
694.315	21656
694.326	21552
694.358	21175
694.401	20989
694.444	20919
694.446	20871
694.487	20909
694.530	20514
694.566	20501
694.573	20641
694.616	20734
694.659	21419
694.686	21578
694.702	21701
694.745	22142
694.787	22400
694.806	22430
694.830	22331
694.873	22088
694.916	22203
694.926	22063
694.959	22555
695.002	23288
695.044	24180
695.046	24163
695.087	24500
695.130	24674
695.166	24696
695.172	24772
695.215	24982
695.258	25189
695.286	25252
695.301	25499
695.343	26188
695.386	26663
695.406	26821
695.428	27926
695.471	30257
695.514	32374
695.526	32960
695.556	35034
695.599	37902
695.641	40355
695.646	40564
695.684	38284
695.726	35542
695.766	32817
695.769	32835
695.811	31991
695.854	31362
695.886	30712
695.896	30930
695.938	31406
695.981	32089
696.005	32469
696.023	33530
696.065	35781
696.108	37972
696.125	38810
696.150	39317
696.192	40122
696.235	40871
696.245	40923
696.277	40928
696.319	40927
696.361	40914
696.365	40813
696.404	40110
696.446	39318
696.485	38317
696.488	38415
696.530	38666
696.572	38837
696.604	38820
696.614	38775
696.656	38352
696.698	37922
696.724	37452
696.740	37773
696.783	38461
696.825	39202
696.844	39425
696.867	39599
696.909	39724
696.951	39820
696.964	39783
696.992	40184
697.034	40546
697.076	40978
697.083	40950
697.118	42127
697.160	43478
697.202	44676
697.203	44601
697.244	43968
697.286	43315
697.323	42416
697.327	42573
697.369	43180
697.411	43782
697.442	44120
697.453	44180
697.494	43969
697.536	43687
697.562	43474
697.578	43564
697.620	43426
697.661	43337
697.682	43234
697.703	44279
697.744	45998
697.786	47761
697.801	48288
697.828	47995
697.869	47277
697.911	46570
697.921	46285
697.952	46485
697.994	46600
698.035	46728
698.040	46624
698.077	47286
698.118	47927
698.160	48557
698.160	48438
698.201	49226
698.243	49925
698.279	50450
698.284	50747
698.325	52313
698.367	53861
698.399	54933
698.408	55100
698.449	55226
698.491	55362
698.518	55296
698.532	55482
698.573	55656
698.614	55806
698.638	55735
698.656	55966
698.697	56215
698.738	56451
698.757	56412
698.779	56281
698.820	55762
698.862	55242
698.877	54911
698.903	54898
698.944	54649
698.985	54399
698.996	54193
699.026	54507
699.067	54751
699.116	54902
699.235	54476
699.354	53155
699.474	49799
699.593	49040
699.713	51159
699.832	50310
699.951	54248
700.070	52296
700.190	48993
700.309	48636
700.428	46637
700.547	45895
700.667	45916
700.786	45791
700.905	43958
701.024	45069
701.143	43047
701.262	47229
701.381	47526
701.500	48064
701.619	45533
701.738	46360
701.857	46566
701.976	42322
702.095	45216
702.214	46414
702.333	44989
702.452	45733
702.571	46431
702.690	45829
702.809	46290
702.928	42940
703.047	40594
703.165	42368
703.284	42101
703.403	41046
703.522	40314
703.640	38477
703.759	39009
703.878	39247
703.997	40908
704.115	40735
704.234	39823
704.353	41744
704.471	36973
704.590	36917
704.708	36783
704.827	36016
704.946	35474
705.064	36509
705.183	33892
705.301	37370
705.420	34276
705.538	33681
705.656	31668
705.775	31888
705.893	33600
706.012	34028
706.130	33035
706.249	34806
706.367	31214
706.485	32349
706.604	32356
706.722	35628
706.840	52591
706.958	104230
707.077	56861
707.195	33768
707.313	30634
707.431	29087
707.549	28720
707.668	26916
707.786	31205
707.904	29116
708.022	30908
708.140	27789
708.258	27395
708.376	29994
708.494	26062
708.612	29826
708.730	29046
708.848	28366
708.966	29293
709.084	29484
709.202	28505
709.320	25606
709.438	26479
709.556	26692
709.674	23824
709.791	25173
709.909	23877
710.027	24140
710.145	23509
710.263	24260
710.380	23997
710.498	23740
710.616	23177
710.733	22394
710.851	23210
710.969	23112
711.086	22692
711.204	23759
711.322	23337
711.439	21930
711.557	20772
711.674	21696
711.792	22466
711.909	21089
712.027	21322
712.144	21215
712.262	21299
712.379	22046
712.497	20870
712.614	21048
712.732	21657
712.849	19997
712.966	22374
713.084	22177
713.201	18320
713.318	21921
713.436	23227
713.553	21295
713.670	23853
713.787	24489
713.905	21784
714.022	24574
714.139	26182
714.256	33673
714.373	49313
714.490	92725
714.608	241487
714.725	765267
714.842	594567
714.959	100544
715.076	44534
715.193	33451
715.310	27874
715.427	21811
715.544	23569
715.661	22822
715.778	20982
715.895	20357
716.011	20413
716.128	19181
716.245	19243
716.362	18812
716.479	16588
716.596	19211
716.713	19792
716.829	17691
716.946	16028
717.063	16195
717.180	14937
717.296	15690
717.413	17499
717.530	15807
717.646	14180
717.763	15052
717.880	14825
717.996	14237
718.113	15215
718.229	14314
718.346	13572
718.462	13744
718.579	15684
718.695	14239
718.812	15047
718.928	15025
719.045	13890
719.161	13934
719.277	14993
719.394	16519
719.510	15972
719.626	18285
719.743	23323
719.859	37866
719.975	86053
720.092	318914
720.208	519101
720.324	77345
720.440	26939
720.557	20053
720.673	16880
720.789	15343
720.905	14350
721.021	13875
721.137	13285
721.253	11555
721.369	13428
721.486	13281
721.602	11752
721.718	12051
721.834	12281
721.950	12277
722.066	12021
722.181	11140
722.297	11567
722.413	12272
722.529	12251
722.645	12541
722.761	12620
722.877	11710
722.993	15108
723.108	20610
723.224	16690
723.340	13052
723.456	11578
723.571	11439
723.687	10367
723.803	10445
723.918	11594
724.034	10480
724.150	11046
724.265	10787
724.381	10017
724.497	9981
724.612	11199
724.728	9899
724.843	9059
724.959	9779
725.074	10968
725.190	11072
725.305	11057
725.421	9929
725.536	11062
725.651	11410
725.767	11127
725.882	10678
725.997	9295
726.113	10531
726.228	10764
726.343	10233
726.459	9814
726.574	10155
726.689	9632
726.804	10051
726.920	9760
727.035	10387
727.150	10197
727.265	8842
727.380	10805
727.495	10276
727.610	9978
727.725	9139
727.841	10743
727.956	10247
728.071	10395
728.186	9171
728.301	9181
728.416	11364
728.531	10314
728.645	9384
728.760	9739
728.875	10090
728.990	9682
729.105	8623
729.220	9754
729.335	10831
729.449	10292
729.564	10329
729.679	9091
729.794	10154
729.908	10193
730.023	9551
730.138	10181
730.253	10420
730.367	10142
730.482	10957
730.596	10633
730.711	15100
730.826	27661
730.940	33467
731.055	15520
731.169	14507
731.284	15526
731.398	15924
731.513	16947
731.627	19586
731.742	24701
731.856	32535
731.970	33592
732.085	43965
732.199	66349
732.313	121062
732.428	289525
732.542	621888
732.656	326454
732.771	90941
732.885	52462
732.999	44394
733.113	42950
733.227	40252
733.342	37145
733.456	36304
733.570	34457
733.684	31992
733.798	29990
733.912	32394
734.026	32053
734.140	31178
734.254	28940
734.368	29420
734.482	28955
734.596	29040
734.710	27667
734.824	27784
734.938	27943
735.052	28219
735.166	27397
735.280	27568
735.393	25837
735.507	26948
735.621	25466
735.735	24550
735.849	26978
735.962	24754
736.076	27012
736.190	23703
736.303	24937
736.417	24917
736.531	23458
736.644	23920
736.758	24083
736.872	23243
736.985	23484
737.099	22474
737.212	23352
737.326	22107
737.439	24206
737.553	21740
737.666	23008
737.780	20295
737.893	22715
738.007	21029
738.120	23285
738.233	19317
738.347	21519
738.460	19952
738.573	23149
738.687	20315
738.800	20192
738.913	21969
739.026	20954
739.140	19895
739.253	21051
739.366	19129
739.479	19495
739.592	20219
739.705	17084
739.818	21823
739.932	18339
740.045	20338
740.158	18280
740.271	20701
740.384	18140
740.497	16921
740.610	19605
740.723	18208
740.836	17139
740.949	17919
741.062	20009
741.174	17306
741.287	17389
741.400	18594
741.513	15744
741.626	18941
741.739	16557
741.851	17379
741.964	18457
742.077	17074
742.189	16240
742.302	19886
742.415	16821
742.527	16426
742.640	16286
742.753	14144
742.865	16675
742.978	15735
743.090	14805
743.203	17168
743.316	14351
743.428	15402
743.541	15728
743.653	13391
743.766	15553
743.878	16137
743.990	14731
744.103	19380
744.215	19056
744.327	13719
744.440	17737
744.552	13171
744.664	13922
744.777	15967
744.889	14352
745.001	13942
745.113	15735
745.226	14183
745.338	12940
745.450	17095
745.562	13310
745.674	12959
745.786	15719
745.898	14371
746.010	12653
746.122	13900
746.234	13942
746.347	14321
746.459	14169
746.570	12335
746.682	18980
746.794	23374
746.906	12326
747.018	12891
747.130	13802
747.242	12164
747.354	12726
747.466	13718
747.577	11497
747.689	12745
747.801	13845
747.913	12038
748.024	11990
748.136	12483
748.248	11097
748.359	11655
748.471	12185
748.583	9575
748.694	10762
748.806	12416
748.918	10526
749.029	11013
749.141	12476
749.252	12211
749.364	10130
749.475	10883
749.587	9981
749.698	10390
749.809	11888
749.921	11194
750.032	9860
750.144	9993
750.255	9876
750.366	10071
750.478	9942
750.589	10568
750.700	8750
750.811	10967
750.923	8609
751.034	8994
751.145	10744
751.256	10081
751.367	9492
751.479	10043
751.590	9095
751.701	8919
751.812	8140
751.923	8279
752.034	11821
752.145	10118
752.256	10744
752.367	9135
752.478	9813
752.589	9765
752.700	9577
752.811	9465
752.922	8994
753.032	10532
753.143	9618
753.254	8655
753.365	11724
753.476	10944
753.586	9734
753.697	8702
753.808	8779
753.919	8893
754.029	9209
754.140	8907
754.251	8630
754.361	9130
754.472	9265
754.582	7352
754.693	9138
754.804	10108
754.914	8370
755.025	7533
755.135	9193
755.246	9728
755.356	7868
755.466	7959
755.577	7538
755.687	8869
755.798	7757
755.908	7386
756.018	8692
756.129	9356
756.239	8804
756.349	8553
756.460	8482
756.570	10314
756.680	8172
756.790	9269
756.900	8921
757.011	7618
757.121	6589
757.231	7905
757.341	8179
757.451	7417
757.561	6372
757.671	8484
757.781	7920
757.891	8182
758.001	8021
758.111	8091
758.221	10073
758.331	9270
758.441	8144
758.551	8233
758.661	10197
758.771	9547
758.880	8689
758.990	8910
759.100	8740
759.210	8261
759.320	9382
759.429	9406
759.539	9787
759.649	11430
759.758	12916
759.868	13536
759.978	12422
760.087	14511
760.197	14478
760.307	13598
760.416	13002
760.526	12189
760.635	12026
760.745	13107
760.854	14578
760.964	17602
761.073	16346
761.182	14783
761.292	12741
761.401	11231
761.511	9448
761.620	8476
761.729	8347
761.839	7116
761.948	8277
762.057	8188
762.166	9269
762.276	6683
762.385	8909
762.494	7291
762.603	7317
762.712	7452
762.822	7132
762.931	5753
763.040	5239
763.149	6453
763.258	6034
763.367	6514
763.476	6168
763.585	6159
763.694	6294
763.803	5843
763.912	5974
764.021	6011
764.130	6389
764.238	6904
764.347	7342
764.456	7399
764.565	5820
764.674	6010
764.783	5520
764.891	6502
765.000	6543
765.109	6193
765.217	5394
765.326	6376
765.435	5454
765.543	5733
765.652	5246
765.761	4821
765.869	4796
765.978	5757
766.086	7071
766.195	7303
766.303	11098
766.412	33981
766.520	25167
766.629	5490
766.737	5358
766.846	5384
766.954	4325
767.062	6400
767.171	5954
767.279	8134
767.387	5958
767.496	5189
767.604	4355
767.712	5521
767.820	5002
767.928	5305
768.037	4427
768.145	5779
768.253	6182
768.361	4903
768.469	4639
768.577	4825
768.685	5862
768.793	6258
768.901	4515
769.009	5940
769.117	4896
769.225	4569
769.333	5984
769.441	6470
769.549	6189
769.657	7251
769.765	12143
769.873	29197
769.981	9376
770.088	6273
770.196	6296
770.304	7270
770.412	7735
770.519	6719
770.627	7728
770.735	7722
770.842	8119
770.950	8199
771.058	8858
771.165	11165
771.273	11835
771.380	12456
771.488	17215
771.595	20596
771.703	17255
771.810	15908
771.918	17097
772.025	20879
772.133	24652
772.240	21930
772.348	25926
772.455	23690
772.562	22814
772.670	20916
772.777	22427
772.884	22309
772.991	20745
773.099	22805
773.206	19833
773.313	20811
773.420	21613
773.528	21034
773.635	19665
773.742	21568
773.849	20565
773.956	21551
774.063	19588
774.170	19973
774.277	20174
774.384	19154
774.491	18911
774.598	19347
774.705	18090
774.812	19500
774.919	18809
775.026	18482
775.133	19678
775.239	18197
775.346	18060
775.453	17808
775.560	17163
775.667	19116
775.773	16507
775.880	17787
775.987	16949
776.093	17983
776.200	19712
776.307	14178
776.413	15359
776.520	19446
776.627	15520
776.733	15358
776.840	15089
776.946	23239
777.053	24627
777.159	29345
777.266	21491
777.372	27714
777.478	25537
777.585	17256
777.691	13715
777.798	17244
777.904	14299
778.010	14352
778.117	16704
778.223	14404
778.329	15432
778.435	13542
778.542	15982
778.648	13903
778.754	12097
778.860	14708
778.966	14053
779.072	14281
779.178	14404
779.284	12069
779.391	13866
779.497	14568
779.603	15375
779.708	12175
779.815	12129
779.920	13817
780.026	11474
780.132	13585
780.238	12932
780.344	10825
780.450	16481
780.556	10505
780.661	11263
780.767	14250
780.873	9597
780.979	11705
781.085	13480
781.190	11692
781.296	10541
781.402	12518
781.507	13003
781.613	8808
781.719	11230
781.824	14000
781.930	11449
782.035	12057
782.141	13262
782.246	8118
782.352	10826
782.457	10412
782.563	11786
782.668	11485
782.773	10031
782.879	9137
782.984	12095
783.090	10911
783.195	11393
783.300	12528
783.405	10263
783.511	8533
783.616	9199
783.721	10274
783.826	9226
783.932	8569
784.037	10463
784.142	10115
784.247	8952
784.352	10197
784.457	8281
784.562	11151
784.667	11138
784.772	7816
784.877	6831
784.982	11395
785.087	10378
785.192	8801
785.297	9745
785.402	10674
785.507	9043
785.611	9249
785.716	7499
785.821	9114
785.926	8428
786.031	8063
786.135	8348
786.240	8574
786.345	6980
786.450	8313
786.554	8876
786.659	7432
786.763	8031
786.868	9227
786.973	9738
787.077	6773
787.182	6717
787.286	8797
787.391	10523
787.495	5760
787.600	5965
787.704	7726
787.809	8555
787.913	7522
788.017	8938
788.122	8347
788.226	7376
788.330	5760
788.435	8619
788.539	9822
788.643	7138
788.747	4957
788.852	7351
788.956	7252
789.060	8301
789.164	7659
789.268	6749
789.372	8286
789.476	6777
789.580	5335
789.684	6111
789.788	8253
789.892	7695
789.996	6265
790.100	5314
790.204	6927
790.308	8607
790.412	5818
790.516	4413
790.620	5856
790.724	7703
790.828	6400
790.931	3157
791.035	6816
791.139	5678
791.242	6430
791.346	7047
791.450	7406
791.554	5704
791.657	4159
791.761	7473
791.864	7446
791.968	8180
792.072	6852
792.175	5001
792.279	5372
792.382	5800
792.486	5356
792.589	5647
792.693	7272
792.796	4541
792.899	6521
793.003	6630
793.106	4915
793.209	5990
793.313	6749
793.416	2709
793.519	5211
793.623	7572
793.726	6470
793.829	4307
793.932	3854
794.035	4754
794.138	7514
794.242	8434
794.345	4539
794.448	3932
794.551	4150
794.654	6573
794.757	6289
794.860	4844
794.963	6236
795.066	4256
795.169	7140
795.272	5419
795.375	6854
795.477	4594
795.580	3555
795.683	4365
795.786	6273
795.889	4240
795.991	5921
796.094	6423
796.197	4430
796.300	7081
796.402	4991
796.505	3949
796.608	3697
796.710	4419
796.813	6156
796.915	6687
797.018	5457
797.120	6107
797.223	3799
797.326	6944
797.428	4284
797.530	3710
797.633	4062
797.735	6871
797.838	5138
797.940	6974
798.042	5065
798.145	4896
798.247	3894
798.349	3057
798.452	6102
798.554	5495
798.656	5236
798.758	7270
798.860	6214
798.962	4685
799.065	3737
799.167	3991
799.269	4812
799.371	6154
799.473	8286
799.575	5740
799.677	4849
799.779	5000
799.881	3820
799.983	6374
800.085	4128
800.187	5115
800.289	3230
800.390	4069
800.492	6742
800.594	5165
800.696	3312
800.798	4278
800.899	3961
801.001	4217
801.103	4759
801.205	4894
801.306	4489
801.408	4500
801.509	5017
801.611	4972
801.713	5491
801.814	3441
801.916	4009
802.017	3035
802.119	3054
802.220	3424
802.322	3028
802.423	4870
802.525	2000
802.626	3070
802.727	5037
802.829	4748
802.930	923
803.031	4283
803.133	3590
803.234	3858
803.335	4967
803.436	2902
803.538	3620
803.639	2816
803.740	3863
803.841	3524
803.942	4637
804.043	3597
804.144	3037
804.245	4021
804.346	4101
804.447	3084
804.548	3355
804.649	4805
804.750	3182
804.851	3037
804.952	3903
805.053	3459
805.154	2505
805.255	5317
805.355	3780
805.456	3744
805.557	2948
805.658	2645
805.758	4016
805.859	2802
805.960	3621
806.061	2423
806.161	2861
806.262	2459
806.362	2489
806.463	3647
806.564	4342
806.664	3490
806.765	2264
806.865	3155
806.966	2098
807.066	2611
807.166	4174
807.267	4426
807.367	2532
807.468	3573
807.568	1985
807.668	4218
807.769	4645
807.869	2460
807.969	3192
808.069	3373
808.170	1866
808.270	2898
808.370	3683
808.470	3997
808.570	2108
808.670	2903
808.770	2475
808.870	3214
808.970	3391
809.070	2292
809.170	2398
809.271	4168
809.370	3287
809.470	2933
809.570	2013
809.670	2124
809.770	2353
809.870	3571
809.970	3594
810.070	2910
810.169	3602
810.269	2075
810.369	4510
810.469	2697
810.568	3440
810.668	2390
810.768	3226
810.867	3351
810.967	2812
811.066	2043
811.166	2892
811.265	3700
811.365	2792
811.464	2188
811.564	3859
811.663	3986
811.763	1951
811.862	4232
811.962	3436
812.061	2645
812.160	2502
812.260	2820
812.359	2905
812.458	2224
812.557	3478
812.657	2700
812.756	3537
812.855	2241
812.954	3037
813.053	3302
813.153	3134
813.252	1922
813.351	3519
813.450	3695
813.549	2829
813.648	3777
813.747	1999
813.846	3407
813.945	3249
814.044	3572
814.143	3298
814.242	4551
814.341	3668
814.439	3615
814.538	4590
814.637	3869
814.736	4600
814.835	4822
814.933	4323
815.032	6470
815.131	7805
815.229	16338
815.328	22641
815.427	15564
815.525	13677
815.624	12674
815.722	12503
815.821	13867
815.919	13288
816.018	12819
816.116	13258
816.215	14260
816.313	15387
816.412	18417
816.510	18368
816.609	19208
816.707	21451
816.805	18176
816.904	17987
817.002	18303
817.100	19040
817.198	20381
817.296	17235
817.395	18606
817.493	17517
817.591	16250
817.689	16201
817.787	16914
817.885	17095
817.983	15463
818.081	16584
818.179	16501
818.277	21569
818.375	17939
818.473	16848
818.571	13506
818.669	16592
818.767	18822
818.865	14678
818.963	12271
819.061	16549
819.158	14935
819.256	17774
819.354	15181
819.452	20038
819.549	15931
819.647	16850
819.745	12566
819.842	14299
819.940	15376
820.038	13971
820.135	12531
820.233	15310
820.330	13433
820.428	13140
820.525	14888
820.623	12569
820.720	11798
820.818	14175
820.915	14565
821.012	12944
821.110	10974
821.207	14517
821.304	12228
821.402	14789
821.499	15847
821.596	15291
821.693	12684
821.791	13443
821.888	13003
821.985	13694
822.082	10085
822.179	14229
822.276	14287
822.373	10314
822.470	10923
822.567	12595
822.664	9975
822.761	12182
822.858	12831
822.955	11441
823.052	10027
823.149	12386
823.246	12680
823.343	9080
823.440	9841
823.536	13365
823.633	11125
823.730	10137
823.827	11672
823.923	10464
824.020	10637
824.117	14000
824.213	13011
824.310	10078
824.407	8680
824.503	12785
824.600	9635
824.696	9856
824.793	11902
824.889	11459
824.986	9237
825.082	6828
825.179	8906
825.275	11703
825.371	12324
825.468	7507
825.564	5272
825.660	10961
825.757	12842
825.853	8900
825.949	6950
826.045	8841
826.142	9625
826.238	10480
826.334	11666
826.430	9351
826.526	6317
826.622	5882
826.718	11192
826.814	11680
826.910	8720
827.006	6414
827.102	6770
827.198	8996
827.294	11270
827.390	10398
827.486	7349
827.582	5471
827.678	7542
827.774	11421
827.869	7230
827.965	7736
828.061	6624
828.157	11463
828.252	10176
828.348	6924
828.444	7090
828.539	8534
828.635	8830
828.731	8824
828.826	7454
828.922	8983
829.017	9443
829.113	9674
829.208	6831
829.304	7512
829.399	11523
829.495	9132
829.590	7728
829.685	7567
829.781	9263
829.876	9740
829.971	4326
830.066	4648
830.162	7092
830.257	11031
830.352	7937
830.447	5444
830.543	5498
830.638	8452
830.733	10497
830.828	7370
830.923	8431
831.018	8035
831.113	9924
831.208	5844
831.303	4939
831.398	4539
831.493	7436
831.588	11231
831.683	6185
831.778	4136
831.873	6284
831.967	9838
832.062	8572
832.157	7245
832.252	6641
832.346	5795
832.441	8852
832.536	7086
832.631	7182
832.725	5377
832.820	6218
832.914	6656
833.009	5240
833.104	4232
833.198	5625
833.293	6249
833.387	8177
833.482	7433
833.576	6337
833.670	6860
833.765	7227
833.859	8038
833.954	6916
834.048	6281
834.142	5547
834.237	4189
834.331	6416
834.425	6531
834.519	5682
834.613	5099
834.708	5052
834.802	4711
834.896	5847
834.990	5468
835.084	4972
835.178	4220
835.272	5216
835.366	7687
835.460	7772
835.554	5100
835.648	4401
835.742	2845
835.836	4257
835.930	5085
836.024	6119
836.117	6164
836.211	4736
836.305	3777
836.399	4364
836.493	3830
836.586	6616
836.680	5661
836.774	5120
836.867	3907
836.961	3543
837.055	3410
837.148	3974
837.242	4885
837.335	4719
837.429	4489
837.522	3979
837.616	3744
837.709	4309
837.803	3987
837.896	6928
837.989	5778
838.083	3309
838.176	3457
838.269	2274
838.363	5068
838.456	3883
838.549	5738
838.642	3862
838.735	3743
838.829	5145
838.922	3965
839.015	4757
839.108	3312
839.201	4560
839.294	5604
839.387	4852
839.480	2689
839.573	3583
839.666	3053
839.759	4399
839.852	3134
839.945	5351
840.038	3309
840.131	3283
840.223	3321
840.316	4439
840.409	5451
840.502	4859
840.594	5622
840.687	2177
840.780	2796
840.873	1830
840.965	3209
841.058	5139
841.150	5333
841.243	2666
841.336	3695
841.428	3607
841.521	3295
841.613	3920
841.706	3525
841.798	3135
841.890	5007
841.983	2871
842.075	3172
842.167	2786
842.260	4216
842.352	5417
842.444	4412
842.537	2623
842.629	2619
842.721	2699
842.813	4119
842.905	2803
842.997	3922
843.090	3820
843.182	2909
843.274	1158
843.366	3314
843.458	3767
843.550	4921
843.642	3318
843.734	3570
843.826	2141
843.918	3589
844.009	3753
844.101	3177
844.193	3912
844.285	4295
844.377	5014
844.469	5466
844.560	5190
844.652	3276
844.744	3352
844.835	3594
844.927	4689
845.019	4311
845.110	3120
845.202	4144
845.293	3735
845.385	2242
845.476	3065
845.568	4795
845.659	3025
845.751	3107
845.842	2387
845.934	3095
846.025	3172
846.116	2794
846.208	2902
846.299	2972
846.390	1964
846.482	2622
846.573	3332
846.664	3634
846.755	2637
846.846	3210
846.937	956
847.029	1829
847.120	2427
847.211	3361
847.302	4207
847.393	2588
847.484	3370
847.575	1506
847.666	1426
847.757	2338
847.847	3237
847.938	4554
848.029	3932
848.120	2813
848.211	2798
848.302	2036
848.392	2641
848.483	2708
848.574	2149
848.664	3556
848.755	2432
848.846	2458
848.936	1851
849.027	3344
849.118	4088
849.208	2863
849.299	4975
849.389	8667
849.480	14340
849.570	25913
849.661	48733
849.751	66352
849.841	24872
849.932	7782
850.022	4703
850.112	5020
850.203	3227
850.293	1940
850.383	2999
850.474	3356
850.564	2726
850.654	2885
850.744	1805
850.834	2179
850.924	3464
851.014	4794
851.104	2997
851.194	2524
851.284	2848
851.374	3163
851.464	1924
851.554	3064
851.644	1853
851.734	3780
851.824	3118
851.914	2747
852.004	3988
852.094	2074
852.183	2800
852.273	3207
852.363	2632
852.452	3175
852.542	3391
852.632	2286
852.721	2868
852.811	2675
852.901	4342
852.990	4357
853.080	3199
853.169	3518
853.259	4955
853.348	4542
853.438	6935
853.527	8654
853.617	10633
853.706	18058
853.795	30525
853.885	54364
853.974	88049
854.063	146746
854.152	164716
854.242	79601
854.331	30297
854.420	16149
854.509	11437
854.598	8124
854.687	7706
854.777	6300
854.866	4347
854.955	4429
855.044	3639
855.133	4090
855.222	3495
855.311	2915
855.400	2860
855.488	3217
855.577	2736
855.666	2677
855.755	3754
855.844	2549
855.933	2316
856.021	3997
856.110	2823
856.199	1786
856.288	1784
856.376	1941
856.465	2265
856.554	2571
856.642	3922
856.731	3617
856.819	2966
856.908	2113
856.996	2632
857.085	1979
857.173	1933
857.262	2556
857.350	2375
857.438	2698
857.527	2968
857.615	2609
857.703	3474
857.792	2403
857.880	1564
857.968	1745
858.056	1591
858.145	3246
858.233	3120
858.321	1516
858.409	2732
858.497	2741
858.585	2962
858.673	2448
858.761	1268
858.849	1773
858.937	2232
859.025	2247
859.113	3469
859.201	2672
859.289	4025
859.377	2137
859.465	2653
859.552	1440
859.640	1219
859.728	2157
859.816	1792
859.903	2759
859.991	1983
860.079	2724
860.166	1682
860.254	3197
860.342	3113
860.429	2867
860.517	2129
860.604	2552
860.692	2208
860.779	2075
860.867	2737
860.954	2515
861.042	4117
861.129	3940
861.216	3137
861.304	3848
861.391	2386
861.478	2231
861.565	1373
861.653	3462
861.740	2111
861.827	2758
861.914	2223
862.001	2176
862.089	2678
862.176	2892
862.263	2918
862.350	3191
862.437	2841
862.524	2585
862.611	3310
862.698	3662
862.785	3864
862.871	4845
862.958	4269
863.045	3215
863.132	3701
863.219	3441
863.306	2743
863.392	3144
863.479	2712
863.566	3734
863.652	3171
863.739	2645
863.826	3346
863.912	3069
863.999	3373
864.086	3245
864.172	4761
864.259	4553
864.345	4510
864.432	4789
864.518	4114
864.604	4305
864.691	4914
864.777	6087
864.863	6872
864.950	10475
865.036	14085
865.122	24058
865.209	22857
865.295	20915
865.381	19418
865.467	18641
865.553	20734
865.639	23153
865.726	28609
865.812	42290
865.898	63355
865.984	85497
866.070	129185
866.156	114740
866.242	52596
866.328	28206
866.414	21330
866.499	20409
866.585	18570
866.671	18005
866.757	18600
866.843	17279
866.928	15717
867.014	15048
867.100	15769
867.186	15224
867.271	15695
867.357	15582
867.442	14184
867.528	15493
867.614	15343
867.699	16720
867.785	16237
867.870	16938
867.956	17518
868.041	16037
868.127	14486
868.212	15537
868.297	15171
868.383	14293
868.468	14361
868.553	15745
868.639	13964
868.724	13969
868.809	12815
868.894	12688
868.979	13649
869.065	12569
869.150	11332
869.235	13223
869.320	13837
869.405	11962
869.490	13998
869.575	12598
869.660	10663
869.745	14503
869.830	14909
869.915	11572
870.000	12305
870.085	11959
870.169	15763
870.254	14969
870.339	9353
870.424	10186
870.509	13744
870.593	13944
870.678	13059
870.763	11384
870.847	10573
870.932	14164
871.016	13411
871.101	9396
871.186	12661
871.270	14472
871.355	9382
871.439	11781
871.523	13090
871.608	9165
871.692	10002
871.777	13953
871.861	12111
871.945	10842
872.030	12334
872.114	11164
872.198	10595
872.282	10717
872.367	10192
872.451	10159
872.535	9988
872.619	11166
872.703	8822
872.787	11983
872.871	11446
872.955	8401
873.039	8420
873.123	11017
873.207	11153
873.291	7684
873.375	11061
873.459	11743
873.543	9476
873.627	9689
873.711	7985
873.794	10846
873.878	10298
873.962	7649
874.045	8522
874.129	9353
874.137	9398
874.213	9842
874.245	9524
874.296	9022
874.352	8193
874.380	7787
874.460	8264
874.464	8286
874.547	8180
874.568	8632
874.631	9936
874.676	9582
874.714	9292
874.784	9637
874.798	9710
874.881	7619
874.892	7644
874.965	7891
874.999	8598
875.048	9493
875.107	9031
875.131	8852
875.215	6534
875.215	6533
875.298	6609
875.323	7403
875.381	9278
875.430	10281
875.465	10939
875.538	9390
875.548	9168
875.631	6556
875.646	6449
875.714	6049
875.753	6652
875.798	7444
875.861	8700
875.881	9005
875.964	7194
875.968	7180
876.047	7185
876.076	7449
876.130	7967
876.183	8750
876.213	9148
876.291	9210
876.296	9213
876.379	7150
876.398	7007
876.462	6388
876.506	5958
876.545	5666
876.613	6278
876.628	6447
876.711	7386
876.721	7644
876.794	9521
876.828	8898
876.877	7678
876.935	6246
876.960	5839
877.043	6824
877.043	6827
877.125	7539
877.150	8187
877.208	9279
877.258	7509
877.291	6435
877.365	6063
877.374	6016
877.456	4920
877.472	5109
877.539	6087
877.579	7334
877.622	8532
877.687	7528
877.704	7280
877.787	7064
877.794	7117
877.869	7560
877.901	7376
877.952	6974
878.008	5817
878.034	5290
878.115	5110
878.117	5112
878.199	5853
878.222	6123
878.282	6906
878.329	7594
878.364	7997
878.437	7134
878.447	6940
878.529	5355
878.544	5178
878.611	4814
878.651	5477
878.694	6438
878.758	6804
878.776	6856
878.858	7746
878.865	7648
878.941	5646
878.972	5192
879.023	4961
879.078	5490
879.105	5891
879.185	7253
879.187	7275
879.269	7258
879.292	7389
879.351	7122
879.399	6130
879.433	5436
879.506	5404
879.516	5477
879.598	6336
879.613	6150
879.680	5218
879.720	5870
879.762	6738
879.827	5877
879.844	5443
879.926	5034
879.933	5033
880.007	5891
880.040	5345
880.089	4280
880.147	5987
880.171	6899
880.253	7500
880.254	7500
880.335	6481
880.360	6364
880.417	6853
880.467	7329
880.499	7341
880.574	7109
880.580	7114
880.662	7422
880.680	7048
880.744	5117
880.787	5032
880.825	5287
880.893	5681
880.907	5795
880.989	5345
881.000	5470
881.070	6512
881.106	6866
881.152	6781
881.213	5558
881.233	5128
881.315	4877
881.319	4904
881.396	6406
881.426	6299
881.478	5967
881.532	7203
881.559	7705
881.639	6889
881.641	6848
881.722	5152
881.745	5063
881.803	6189
881.852	6769
881.885	6361
881.958	4818
881.966	4789
882.047	5862
882.064	5761
882.129	4666
882.171	4269
882.210	3893
882.277	3739
882.291	3973
882.372	5959
882.383	6069
882.454	6888
882.489	7326
882.535	6744
882.596	6741
882.616	7039
882.697	6223
882.702	6198
882.778	4748
882.808	4534
882.859	4552
882.914	4445
882.940	4557
883.020	5205
883.021	5214
883.102	5938
883.127	6356
883.183	7384
883.233	7039
883.264	5899
883.339	4355
883.345	4297
883.426	3101
883.445	3055
883.507	4008
883.551	4787
883.587	5420
883.657	6122
883.668	6234
883.749	6720
883.763	6750
883.830	5212
883.869	4386
883.910	4084
883.975	4229
883.991	4461
884.072	5460
884.081	5570
884.152	6822
884.187	7327
884.233	7619
884.292	7019
884.314	6028
884.394	3091
884.398	2956
884.475	2831
884.504	2925
884.555	3575
884.610	4107
884.636	4219
884.716	5157
884.716	5172
884.797	7325
884.821	7787
884.877	7035
884.927	6313
884.958	5542
885.033	3511
885.038	3470
885.118	3420
885.139	3461
885.199	3929
885.244	4215
885.279	4832
885.350	6252
885.359	6477
885.439	8239
885.456	8361
885.520	6083
885.561	5037
885.600	4614
885.667	4166
885.680	4383
885.760	5479
885.773	5579
885.840	3761
885.878	2976
885.920	3504
885.984	4430
886.000	4620
886.080	5290
886.089	5371
886.160	6064
886.195	6274
886.240	5785
886.300	5060
886.320	5140
886.400	5858
886.406	5871
886.480	4973
886.511	4758
886.560	4518
886.616	3977
886.640	4175
886.720	5206
886.722	5221
886.800	4687
886.827	4571
886.879	4843
886.932	4931
886.959	5459
887.038	7162
887.039	7160
887.119	6002
887.143	5782
887.198	5631
887.248	5352
887.278	5135
887.354	4610
887.358	4634
887.437	4947
887.459	5122
887.517	5715
887.564	5914
887.596	5262
887.669	3818
887.676	3721
887.755	2749
887.774	2493
887.835	3053
887.880	3579
887.914	4140
887.985	4956
887.994	5068
888.073	6397
888.090	6598
888.153	7564
888.195	8131
888.232	6773
888.300	4457
888.311	4441
888.391	4281
888.405	4249
888.470	4195
888.510	4095
888.549	4035
888.615	4159
888.628	4452
888.708	6034
888.720	6265
888.787	5940
888.825	5739
888.866	4648
888.930	3018
888.945	3190
889.024	4161
889.035	4274
889.103	5282
889.140	5809
889.182	5224
889.245	4434
889.261	4687
889.340	5808
889.349	5933
889.419	4794
889.454	4213
889.498	4021
889.559	3789
889.577	4021
889.656	5026
889.664	5126
889.735	5234
889.768	5276
889.814	5220
889.873	5120
889.978	4320
890.083	3737
890.187	4468
890.292	5797
890.397	3487
890.501	4715
890.606	3009
890.710	4561
890.815	6036
890.919	4652
891.024	4878
891.128	4704
891.233	3422
891.337	6559
891.442	5885
891.546	4331
891.650	3654
891.755	4028
891.859	5704
891.963	6858
892.068	4652
892.172	4624
892.276	3073
892.380	4195
892.484	6002
892.589	6256
892.693	4110
892.797	2842
892.901	2780
893.005	3823
893.109	6411
893.213	5784
893.317	4283
893.421	3081
893.525	2802
893.629	3846
893.733	5657
893.837	4024
893.941	3595
894.045	3000
894.148	3519
894.252	3487
894.356	5148
894.460	7015
894.564	3591
894.667	4204
894.771	3574
894.875	2788
894.978	3287
895.082	4647
895.186	5406
895.289	4432
895.393	3159
895.496	5815
895.600	3412
895.703	2641
895.807	3400
895.910	4434
896.014	4474
896.117	2775
896.221	4355
896.324	4904
896.427	3107
896.531	2737
896.634	4304
896.737	3653
896.840	4328
896.944	5085
897.047	6087
897.150	4866
897.253	3075
897.356	2756
897.460	2754
897.563	3044
897.666	4814
897.769	4894
897.872	2474
897.975	3407
898.078	3209
898.181	3057
898.284	4061
898.387	5752
898.490	5807
898.593	3675
898.695	2552
898.798	3343
898.901	3740
899.004	3801
899.107	4081
899.209	3764
899.312	5654
899.415	3667
899.518	2312
899.620	2588
899.723	2772
899.826	4358
899.928	2636
900.031	4085
900.133	5944
900.236	3710
900.338	1435
900.441	3078
900.543	3222
900.646	2668
900.748	3714
900.851	5199
900.953	2954
901.055	1999
901.158	3045
901.260	2878
901.362	2112
901.465	2341
901.567	3235
901.669	4265
901.771	3194
901.873	3687
901.976	2797
902.078	3621
902.180	2712
902.282	2900
902.384	2960
902.486	5061
902.588	5284
902.690	2315
902.792	2696
902.894	4020
902.996	4860
903.098	4142
903.200	2602
903.302	1936
903.404	1578
903.505	2191
903.607	3423
903.709	5381
903.811	5035
903.913	3772
904.014	2507
904.116	1905
904.218	2372
904.319	3684
904.421	5905
904.523	5812
904.624	3099
904.726	3984
904.827	2338
904.929	3766
905.030	2725
905.132	5367
905.233	3999
905.335	2781
905.436	1536
905.537	2503
905.639	2706
905.740	3498
905.841	4241
905.943	5118
906.044	4212
906.145	3584
906.247	2458
906.348	2633
906.449	3394
906.550	3618
906.651	3064
906.752	2531
906.854	1941
906.955	1956
907.056	2870
907.157	4504
907.258	5101
907.359	2160
907.460	1743
907.561	2093
907.662	2035
907.762	2357
907.863	3159
907.964	4051
908.065	2750
908.166	2455
908.267	3178
908.367	2442
908.468	2508
908.569	3740
908.670	3682
908.770	2615
908.871	3885
908.971	3228
909.072	4067
909.173	2279
909.273	2709
909.374	4022
909.474	2637
909.575	2083
909.675	2465
909.776	2917
909.876	2337
909.977	2219
910.077	2662
910.177	4567
910.278	3231
910.378	2127
910.478	2179
910.579	3439
910.679	3183
910.779	3713
910.879	3746
910.980	3448
911.080	3839
911.180	2799
911.280	1622
911.380	2059
911.480	2573
911.580	1988
911.680	3000
911.780	4089
911.880	3857
911.980	3067
912.080	2412
912.180	2949
912.280	3117
912.380	3017
912.480	1308
912.580	1760
912.679	1970
912.779	3311
912.879	3332
912.979	2681
913.078	2053
913.178	1948
913.278	2310
913.377	2214
913.477	2170
913.577	2619
913.676	3752
913.776	4743
913.875	2483
913.975	2701
914.074	2823
914.174	3590
914.273	2055
914.373	3021
914.472	1986
914.572	2374
914.671	2673
914.770	2938
914.870	2607
914.969	3082
915.068	3830
915.167	3604
915.267	1668
915.366	2487
915.465	2151
915.564	3170
915.663	3400
915.763	4038
915.862	4292
915.961	4738
916.060	1982
916.159	1922
916.258	1620
916.357	2262
916.456	4010
916.555	3309
916.654	2834
916.752	4638
916.851	3732
916.950	2505
917.049	2669
917.148	2150
917.247	1026
917.345	2814
917.444	2468
917.543	2516
917.642	3017
917.740	3881
917.839	5187
917.937	5518
918.036	4488
918.135	3557
918.233	2326
918.332	4231
918.430	2182
918.529	2797
918.627	2382
918.726	4862
918.824	4090
918.923	3433
919.021	2661
919.119	3058
919.218	2491
919.316	3497
919.414	3171
919.512	4128
919.611	3998
919.709	3235
919.807	4815
919.905	6262
920.003	5503
920.102	4758
920.200	5559
920.298	6167
920.396	5272
920.494	4798
920.592	4939
920.690	4842
920.788	4511
920.886	5051
920.984	5117
921.082	5694
921.180	6345
921.277	5735
921.375	7224
921.473	10823
921.571	9877
921.669	9602
921.766	8331
921.864	8653
921.962	8767
922.060	7891
922.157	8578
922.255	9788
922.352	8183
922.450	11079
922.548	10304
922.645	11388
922.743	15048
922.840	23429
922.938	28389
923.035	23827
923.133	22497
923.230	25654
923.327	32086
923.425	28307
923.522	29032
923.619	26935
923.717	24358
923.814	23223
923.911	21940
924.008	24443
924.106	22749
924.203	22989
924.300	24203
924.397	23024
924.494	23144
924.591	22740
924.688	20604
924.786	22424
924.883	23423
924.979	22004
925.077	21787
925.173	21256
925.270	22600
925.367	21890
925.464	23883
925.561	23449
925.658	24708
925.755	20326
925.852	23815
925.948	22482
926.045	23155
926.142	25200
926.239	25824
926.335	19862
926.432	22696
926.529	24944
926.625	26469
926.722	20708
926.818	19490
926.915	23623
927.011	21119
927.108	20047
927.204	21111
927.301	18160
927.397	21172
927.494	24624
927.590	16419
927.687	17112
927.783	23840
927.879	22980
927.976	19480
928.072	16279
928.168	20399
928.264	21706
928.361	17820
928.457	22896
928.553	17804
928.649	17275
928.745	19933
928.841	17205
928.937	18438
929.033	19433
929.129	17459
929.225	20952
929.321	18340
929.417	15498
929.513	20523
929.609	17414
929.705	16751
929.801	20361
929.897	16680
929.993	15758
930.089	17824
930.184	15068
930.280	17121
930.376	22397
930.471	16315
930.567	14862
930.663	17430
930.758	14410
930.854	16983
930.950	16060
931.045	14795
931.141	15303
931.236	19932
931.332	17849
931.427	13119
931.523	18560
931.618	19093
931.714	11159
931.809	13393
931.905	19277
932.000	12920
932.095	11452
932.191	18627
932.286	20911
932.381	16329
932.476	12678
932.572	15283
932.667	13004
932.762	13943
932.857	16160
932.952	18463
933.047	15427
933.142	12297
933.237	16005
933.332	15908
933.427	17061
933.522	14576
933.617	11751
933.712	12318
933.807	16965
933.902	18887
933.997	18369
934.092	12571
934.187	13408
934.282	15678
934.376	15530
934.471	16681
934.566	12970
934.661	12082
934.755	15612
934.850	17647
934.945	13766
935.039	12023
935.134	9997
935.228	12687
935.323	21149
935.417	12075
935.512	9715
935.606	9273
935.701	14874
935.795	15245
935.890	14376
935.984	11004
936.079	8910
936.173	13598
936.267	11520
936.362	11561
936.456	12864
936.550	17777
936.644	14513
936.738	10202
936.833	10768
936.927	8219
937.021	11229
937.115	11967
937.209	13439
937.303	12265
937.397	9145
937.491	12086
937.585	14035
937.679	13532
937.773	10944
937.867	9382
937.961	9298
938.055	15740
938.149	13682
938.243	7920
938.337	8539
938.430	10153
938.524	17521
938.618	15049
938.712	11315
938.805	10558
938.899	13890
938.993	16434
939.086	10942
939.180	11417
939.274	13563
939.367	14234
939.461	14309
939.554	9761
939.648	8833
939.741	9521
939.835	10143
939.928	15561
940.022	13201
940.115	10604
940.208	12497
940.302	15420
940.395	15726
940.488	10129
940.582	10070
940.675	8634
940.768	8687
940.861	12591
940.954	14530
941.048	7395
941.141	6991
941.234	8643
941.327	10112
941.420	10674
941.513	11613
941.606	8690
941.699	8540
941.792	12306
941.885	9643
941.978	10428
942.071	10733
942.164	7235
942.257	6993
942.349	9227
942.442	11285
942.535	7458
942.628	7849
942.721	8850
942.813	10089
942.906	10787
942.999	9533
943.091	7596
943.184	8705
943.277	8933
943.369	7254
943.462	5663
943.554	8385
943.647	7930
943.739	11421
943.832	12153
943.924	5880
944.017	5854
944.109	6652
944.201	7668
944.294	7866
944.386	9078
944.478	8149
944.571	6965
944.663	8049
944.755	8259
944.847	10110
944.940	8024
945.032	5652
945.124	5707
945.216	8337
945.308	8902
945.400	9347
945.492	6602
945.584	9897
945.676	10242
945.768	8915
945.860	8962
945.952	11629
946.044	9865
946.136	7156
946.228	7070
946.320	6801
946.412	8390
946.503	10156
946.595	10425
946.687	6612
946.779	4328
946.870	5524
946.962	5715
947.054	6852
947.145	8179
947.237	7298
947.329	6610
947.420	8599
947.512	7649
947.603	5448
947.695	6227
947.786	6284
947.878	6069
947.969	7986
948.061	9030
948.152	8249
948.243	4829
948.335	5133
948.426	5452
948.517	6867
948.609	8550
948.700	7843
948.791	6538
948.882	4974
948.973	4497
949.065	7233
949.156	7109
949.247	4594
949.338	5794
949.429	5039
949.520	4071
949.611	6641
949.702	8542
949.793	5950
949.884	6419
949.975	6494
950.066	3966
950.157	5351
950.247	5427
950.338	5092
950.429	5017
950.520	6807
950.611	3945
950.701	5254
950.792	8727
950.883	7993
950.973	5504
951.064	7726
951.155	7173
951.245	6786
951.336	6855
951.427	8027
951.517	9913
951.608	7256
951.698	6127
951.788	4958
951.879	3018
951.969	5095
952.060	5004
952.150	6605
952.240	8029
952.331	6393
952.421	7652
952.511	4305
952.602	3265
952.692	3946
952.782	3842
952.872	4435
952.962	6276
953.052	4956
953.143	5030
953.233	4871
953.323	5979
953.413	6899
953.503	7337
953.593	6232
953.683	5976
953.773	3742
953.863	3676
953.953	3229
954.042	5554
954.132	6590
954.222	6258
954.312	4908
954.402	4931
954.492	4545
954.581	4990
954.671	5035
954.761	4405
954.850	6137
954.940	3368
955.030	2883
955.119	3067
955.209	4068
955.298	4609
955.388	6706
955.477	6900
955.567	3328
955.656	4499
955.746	4614
955.835	4558
955.925	3736
956.014	5452
956.103	6805
956.193	8043
956.282	7253
956.371	5471
956.461	4818
956.550	5138
956.639	4575
956.728	3086
956.817	4524
956.906	4893
956.995	6659
957.085	4524
957.174	4783
957.263	3530
957.352	4196
957.441	4946
957.530	4256
957.619	3477
957.708	4143
957.796	4424
957.885	4260
957.974	4480
958.063	4238
958.152	2257
958.241	3092
958.329	3750
958.418	4442
958.507	4585
958.596	6987
958.684	3704
958.773	5047
958.861	3276
958.950	2224
959.039	3002
959.127	3847
959.216	4313
959.304	3953
959.393	3933
959.481	5081
959.570	2975
959.658	2492
959.746	2578
959.835	4020
959.923	3465
960.011	2485
960.100	3257
960.188	5411
960.276	4048
960.365	2450
960.453	1755
960.541	1874
960.629	3798
960.717	2185
960.805	599
960.893	3423
960.981	4199
961.069	6636
961.158	5649
961.245	7474
961.333	6390
961.421	4081
961.509	3962
961.597	4512
961.685	3231
961.773	3196
961.861	4505
961.949	6176
962.036	3315
962.124	3341
962.212	2903
962.299	3754
962.387	2408
962.475	2741
962.562	2590
962.650	4465
962.738	3367
962.825	2314
962.913	3484
963.000	3658
963.088	4452
963.175	3626
963.263	3506
963.350	3479
963.438	3614
963.525	2863
963.612	2646
963.700	2545
963.787	4757
963.874	2784
963.962	2303
964.049	2583
964.136	2517
964.223	2708
964.310	2493
964.398	3047
964.485	2508
964.572	4906
964.659	3924
964.746	2955
964.833	2361
964.920	2448
965.007	3074
965.094	3229
965.181	3518
965.268	4336
965.355	2296
965.441	3754
965.528	2851
965.615	4478
965.702	3126
965.789	3751
965.875	4354
965.962	4201
966.049	4033
966.136	5460
966.222	4522
966.309	5585
966.395	4134
966.482	5368
966.569	4405
966.655	4372
966.742	4211
966.828	3389
966.915	2977
967.001	2485
967.087	2158
967.174	3197
967.260	3671
967.347	2715
967.433	3449
967.519	4133
967.605	3448
967.692	4461
967.778	3390
967.864	2952
967.950	3396
968.036	3727
968.123	3597
968.209	4467
968.295	1692
968.381	4255
968.467	2434
968.553	1957
968.639	3237
968.725	3261
968.811	5465
968.897	5737
968.983	3527
969.069	2683
969.154	3292
969.240	3200
969.326	2606
969.412	3305
969.497	3191
969.583	2209
969.669	4481
969.755	4577
969.840	3559
969.926	6486
970.012	9321
970.097	11224
970.183	8991
970.268	5667
970.354	5199
970.439	2714
970.525	3504
970.610	3088
970.696	5078
970.781	3559
970.866	1664
970.952	3647
971.037	3239
971.122	3860
971.208	3789
971.293	3964
971.378	2379
971.463	4450
971.549	3062
971.634	2297
971.719	2906
971.804	2576
971.889	2742
971.974	2906
972.059	3083
972.144	3705
972.229	2901
972.314	3862
972.399	4005
972.484	2022
972.569	2970
972.654	1896
972.739	3446
972.824	3568
972.908	2128
972.993	1855
973.078	2788
973.163	3404
973.247	2827
973.332	2978
973.417	4546
973.501	2913
973.586	3022
973.671	3529
973.755	2229
973.840	3429
973.924	4619
974.009	5306
974.093	5091
974.178	5780
974.262	4258
974.346	3388
974.431	3510
974.515	3524
974.600	4632
974.684	4107
974.768	3138
974.852	4558
974.937	2240
975.021	4299
975.105	3008
975.189	3525
975.273	3094
975.358	2707
975.442	1968
975.526	3996
975.610	2332
975.694	3148
975.778	3284
975.862	3260
975.946	820
976.030	5246
976.114	2900
976.198	3480
976.281	2968
976.365	4005
976.449	2606
976.533	3030
976.617	2422
976.700	2233
976.784	2779
976.868	2886
976.951	3046
977.035	2314
977.119	3151
977.202	4078
977.286	3337
977.369	5869
977.453	7717
977.536	7555
977.620	6026
977.703	5091
977.787	3594
977.870	5987
977.953	5022
978.037	2847
978.120	4546
978.203	3682
978.287	4906
978.370	4001
978.453	2987
978.536	2864
978.620	4069
978.703	4731
978.786	3607
978.869	2920
978.952	3531
979.035	5209
979.118	3609
979.201	2991
979.284	5007
979.367	3905
979.450	4265
979.533	3255
979.616	2585
979.699	3334
979.782	3501
979.865	3094
979.948	3443
980.030	3931
980.113	3117
980.196	3192
980.279	4321
980.361	3373
980.444	3608
980.526	5165
980.609	6703
980.692	9248
980.774	7818
980.857	4983
980.939	6597
981.022	4651
981.104	4270
981.187	4093
981.269	5232
981.352	5287
981.434	3480
981.516	4594
981.599	4584
981.681	4716
981.763	3501
981.846	5017
981.928	4119
982.010	4408
982.092	3850
982.174	5825
982.256	4750
982.339	3673
982.421	3448
982.503	4695
982.585	3969
982.667	4617
982.749	3507
982.831	4254
982.913	3669
982.995	4379
983.077	4035
983.158	6590
983.240	4367
983.322	7521
983.404	9793
983.486	8401
983.568	7605
983.649	7314
983.731	6151
983.813	6058
983.894	5227
983.976	6639
984.058	5502
984.139	6746
984.221	3959
984.302	6790
984.384	5774
984.465	5202
984.547	6178
984.628	5562
984.710	7276
984.791	5623
984.872	4911
984.954	5520
985.035	5404
985.116	6071
985.198	6175
985.279	7387
985.360	4994
985.441	5620
985.522	5770
985.604	5924
985.685	4907
985.766	5953
985.847	6394
985.928	6250
986.009	4960
986.090	5937
986.171	7202
986.252	5658
986.333	6482
986.414	6577
986.495	5682
986.576	6680
986.656	7723
986.737	7909
986.818	7393
986.899	7213
986.980	5299
987.060	7012
987.141	7113
987.222	8504
987.302	8793
987.383	10397
987.464	8591
987.544	9498
987.625	7534
987.705	9084
987.786	9977
987.866	8824
987.947	8142
988.027	9307
988.108	7785
988.188	8710
988.268	7560
988.349	9037
988.429	8452
988.509	8278
988.589	6499
988.670	6103
988.750	9226
988.830	6354
988.910	8282
988.990	7960
989.070	7491
989.151	6485
989.231	6305
989.311	7046
989.391	5759
989.471	6898
989.551	6651
989.631	6527
989.711	7542
989.791	7203
989.870	6359
989.950	7269
990.030	6633
990.110	7749
990.190	4984
990.269	5515
990.349	6334
990.429	7554
990.509	5974
990.588	5134
990.668	6251
990.747	6163
990.827	5693
990.907	6858
990.986	7387
991.066	5824
991.145	3658
991.225	7112
991.304	6291
991.383	5877
991.463	5226
991.542	5869
991.622	4794
991.701	5246
991.780	4168
991.859	5261
991.939	4957
992.018	5589
992.097	5577
992.176	4965
992.256	4639
992.335	5195
992.414	6645
992.493	4102
992.572	3659
992.651	5906
992.730	5302
992.809	4640
992.888	3750
992.967	5776
993.046	4821
993.125	3590
993.203	4656
993.282	5425
993.361	4339
993.440	4725
993.519	4217
993.597	4816
993.676	4479
993.755	6108
993.834	4724
993.912	3787
993.991	4568
994.069	3359
994.148	5268
994.226	4082
994.305	3690
994.384	3610
994.462	5166
994.540	3622
994.619	2968
994.697	4415
994.776	4099
994.854	5121
994.932	2882
995.011	2943
995.089	2813
995.167	3096
995.245	4360
995.324	3328
995.402	4178
995.480	2536
995.558	3226
995.636	3053
995.714	2880
995.792	5090
995.870	3025
995.948	3285
996.026	2467
996.104	2213
996.182	3586
996.260	2093
996.338	2944
996.416	3304
996.494	3111
996.572	4266
996.649	2101
996.727	1577
996.805	3566
996.883	3165
996.960	2199
997.038	2684
997.116	3170
997.193	3341
997.271	3066
997.348	1588
997.426	2348
997.504	2881
997.581	3866
997.658	2812
997.736	315
997.813	1617
997.891	3251
997.968	2663
998.046	2463
998.123	2849
998.200	3318
998.277	3263
998.355	2599
998.432	787
998.509	2116
998.586	2917
998.663	2346
998.741	2183
998.818	2359
998.895	1201
998.972	3004
999.049	3673
999.126	1989
999.203	1990
999.280	2056
999.357	2335
999.434	2676
999.511	2034
999.587	2605
999.664	913
999.741	1778
999.818	2921
999.895	2301
999.971	1891
1000.048	1224
1000.125	2240
1000.202	1123
1000.278	1509
1000.355	2429
1000.431	882
1000.508	754
1000.584	1190
1000.661	1243
1000.738	1663
1000.814	1630
1000.890	2589
1000.967	1213
1001.043	1583
1001.120	662
1001.196	2011
1001.272	286
1001.349	882
1001.425	2010
1001.501	1401
1001.577	1360
1001.654	2288
1001.730	535
1001.806	1998
1001.882	562
1001.958	1920
1002.034	2051
1002.110	1850
1002.186	-727
1002.262	280
1002.338	573
1002.414	1906
1002.490	1410
1002.566	691
1002.642	764
1002.718	1814
1002.794	511
1002.870	1297
1002.945	1139
1003.021	797
1003.097	1125
1003.173	1258
1003.248	1010
1003.324	2173
1003.400	1082
1003.475	331
1003.551	524
1003.626	1606
1003.702	719
1003.777	613
1003.853	899
1003.928	466
1004.004	463
1004.079	818
1004.155	1592
1004.230	579
1004.305	1824
1004.381	609
1004.456	298
1004.531	646
1004.607	201
1004.682	337
1004.757	110
1004.832	304
1004.907	769
1004.982	-59
1005.057	1070
1005.133	488
1005.208	-65
1005.283	373
1005.358	1462
1005.433	-908
1005.508	505
1005.583	-66
1005.657	516
1005.732	366
1005.807	-278
1005.882	551
1005.957	-480
1006.032	432
1006.106	505
1006.181	1353
1006.256	1438
1006.331	848
1006.405	-390
1006.480	306
1006.554	-538
1006.629	636
1006.704	238
1006.778	-166
1006.853	1522
1006.927	-518
1007.002	-116
1007.076	-26
1007.150	-494
1007.225	373
1007.299	-186
1007.373	-100
1007.448	-214
1007.522	362
1007.596	766
1007.671	329
1007.745	1060
1007.819	-574
1007.893	318
1007.967	1252
1008.041	-929
1008.115	313
1008.190	-818
1008.264	301
1008.338	-1098
1008.412	-33
1008.486	-984
1008.560	257
1008.633	-426
1008.707	875
1008.781	412
1008.855	-110
1008.929	144
1009.003	-677
1009.076	77
1009.150	-447
1009.224	188
1009.298	532
1009.371	-222
1009.445	541
1009.519	-99
1009.592	-389
1009.666	-433
1009.739	-150
1009.813	-506
1009.886	791
1009.960	-1097
1010.033	-102
1010.107	-37
1010.180	-692
1010.253	-221
1010.327	-1240
1010.400	-791
1010.473	-359
1010.547	465
1010.620	-386
1010.693	-143
1010.766	-168
1010.840	389
1010.913	424
1010.986	-655
1011.059	-378
1011.132	-853
1011.205	634
1011.278	-458
1011.351	-340
1011.424	-319
1011.497	19
1011.570	-1193
1011.643	-497
1011.716	-798
1011.789	-260
1011.862	-817
1011.934	-184
1012.007	-1501
1012.080	-23
1012.153	-849
1012.225	110
1012.298	-996
1012.371	-586
1012.443	-397
1012.516	-478
1012.588	-807
1012.661	116
1012.733	-269
1012.806	412
1012.879	-1434
1012.951	-230
1013.023	-1297
1013.096	-328
1013.168	-905
1013.241	285
1013.313	-567
1013.385	-216
1013.458	-806
1013.530	213
1013.602	-1471
1013.674	-331
1013.746	-1835
1013.819	-1762
1013.891	109
1013.963	-490
1014.035	-191
1014.107	-373
1014.179	99
1014.251	-800
1014.323	-435
1014.395	-892
1014.467	-672
1014.539	-154
1014.611	-859
1014.683	-703
1014.754	-395
1014.826	-105
1014.898	-727
1014.970	-828
1015.042	333
1015.113	-729
1015.185	-257
1015.257	-1454
1015.328	-440
1015.400	-794
1015.471	-248
1015.543	-1402
1015.615	-761
1015.686	-905
1015.757	-1007
1015.829	-798
1015.901	-1072
1015.972	-1406
1016.043	-1372
1016.115	-910
1016.186	-965
1016.257	-1504
1016.328	-1037
1016.400	-387
1016.471	-1592
1016.542	-800
1016.613	-590
1016.685	-413
1016.756	-689
1016.827	-1134
1016.898	-1089
1016.969	-684
1017.040	-2268
1017.111	-1447
1017.182	-1671
1017.253	172
1017.324	-959
1017.395	-394
1017.466	-861
1017.537	-958
1017.608	-530
1017.678	-977
1017.749	-657
1017.820	-1533
1017.891	-2137
1017.961	-1431
1018.032	-1060
1018.103	-650
1018.173	-1307
1018.244	-520
1018.315	-679
1018.385	363
1018.456	-406
1018.526	-1434
1018.597	-1226
1018.667	-129
1018.738	-1461
1018.808	-1473
1018.878	-1160
1018.949	-1040
1019.019	-1057
1019.089	-630
1019.160	-1480
1019.230	-1953
1019.300	-1121
1019.371	-1020
1019.441	-396
1019.511	-1221
1019.581	-1349
1019.651	-1296
1019.721	-1704
1019.791	-989
1019.861	-1485
1019.931	-861
1020.001	-1732
1020.071	-1450
1020.141	-1707
1020.211	-766
1020.281	-1747
1020.351	-1720
1020.421	-877
1020.491	-730
1020.560	-1362
1020.630	-1341
1020.700	-1590
1020.770	-1433
1020.839	-637
1020.909	-1725
1020.979	-727
1021.048	-1107
1021.118	-1687
1021.187	-1555
1021.257	-1319
1021.326	-1035
1021.396	-1517
1021.465	-186
1021.535	-753
1021.604	-1320
1021.674	-1364
1021.743	-1085
1021.812	-1053
1021.882	-646
1021.951	-559
1022.020	-366
1022.089	-584
1022.159	-1329
1022.228	-1086
1022.297	-612
1022.366	-1046
1022.435	-1168
1022.504	-1180
1022.573	-1557
1022.642	-1112
1022.711	-1165
1022.781	-1348
1022.849	-279
1022.918	-1698
1022.987	-752
1023.056	-1154
1023.125	-502
1023.194	-860
1023.263	-997
1023.331	-213
1023.400	-1615
1023.469	-1796
1023.538	-1168
1023.606	-1466
1023.675	-1287
1023.744	-1622
1023.812	-1529
1023.881	-873
1023.949	-1043
1024.018	-1554
1024.086	-1026
1024.155	-1482
1024.223	-1266
1024.292	-521
1024.360	-954
1024.429	-1547
1024.497	-2035
1024.565	-1375
1024.634	-1937
1024.702	-1248
1024.770	-1318
1024.838	-1713
1024.907	-1588
1024.975	-1363
1025.043	-1512
1025.111	-823
1025.179	-788
1025.247	-1762
1025.315	-1728
1025.383	-1682
1025.451	-358
1025.519	-421
1025.587	-1544
1025.655	-1523
1025.723	-439
1025.791	-837
1025.859	-663
1025.927	-605
1025.995	-821
1026.062	-1965
1026.130	-899
1026.198	-925
1026.266	-1918
1026.333	-1332
1026.401	-1093
1026.469	-1225
1026.536	-1186
1026.604	-1051
1026.671	-1262
1026.739	-1102
1026.806	-1608
1026.874	-1448
1026.941	-1325
1027.009	-2291
1027.076	-1575
1027.144	-739
1027.211	-1465
1027.278	-1737
1027.345	-837
1027.413	-838
1027.480	-887
1027.547	-848
1027.614	-1017
1027.682	-736
1027.749	-1888
1027.816	-2553
1027.883	-955
1027.950	-1593
1028.017	-1795
1028.084	-1090
1028.151	-1400
1028.218	-1256
1028.285	-1182
1028.352	-1630
1028.419	-1868
1028.486	-2265
1028.553	-1688
1028.619	-1644
1028.686	-273
1028.753	-1068
1028.820	-1101
1028.886	-1383
1028.953	-383
1029.020	-1951
1029.086	-1694
1029.153	-1507
1029.220	-1985
1029.286	-1514
1029.353	-1504
1029.419	-1451
1029.486	-2005
1029.552	-1579
1029.619	-2484
1029.685	-1981
1029.751	-1033
1029.818	-242
1029.884	-1847
1029.951	-357
1030.017	-1089
1030.083	-802
1030.149	-1373
1030.216	-1744
1030.282	-1290
1030.348	-1838
1030.414	-2164
1030.480	-2084
1030.546	-1864
1030.612	-1258
1030.678	-1565
1030.744	-1366
1030.810	-1236
1030.876	-1214
1030.942	-1852
1031.008	-1421
1031.074	-1528
1031.140	-2150
1031.206	-227
1031.272	-2104
1031.337	-1371
1031.403	-1740
1031.469	-1888
1031.534	-2215
1031.600	-863
1031.666	-2041
1031.731	-1481
1031.797	-1611
1031.863	-1503
1031.928	-1970
1031.994	-2047
1032.059	-1742
1032.125	-860
1032.190	-1776
1032.256	-1219
1032.321	-2047
1032.386	-1231
1032.452	-1133
1032.517	-1173
1032.582	-1570
1032.647	-939
1032.713	-1120
1032.778	-1152
1032.843	-1421
1032.908	-1437
1032.974	-1670
1033.039	-1714
1033.104	-1627
1033.169	-1781
1033.234	-1914
1033.299	-1435
1033.364	-1243
1033.429	-1537
1033.494	-1979
1033.559	-1231
1033.624	-1589
1033.688	-900
1033.753	-951
1033.818	-942
1033.883	-818
1033.948	-379
1034.013	7
1034.077	977
1034.142	1443
1034.207	2785
1034.271	4384
1034.336	5718
1034.400	3720
1034.465	1204
1034.530	-112
1034.594	-460
1034.658	-2476
1034.723	-785
1034.787	-1136
1034.852	-670
1034.916	-1468
1034.981	-1151
1035.045	-1886
1035.109	-1784
1035.173	-1914
1035.238	-882
1035.302	-1990
1035.366	-1271
1035.430	-2695
1035.495	-1462
1035.559	-594
1035.623	-1203
1035.687	-2005
1035.751	-1192
1035.815	-2527
1035.879	-1563
1035.943	-1846
1036.007	-1551
1036.071	-1404
1036.135	-1834
1036.198	-1476
1036.262	-1469
1036.326	-1373
1036.390	-1092
1036.454	-1418
1036.517	-723
1036.581	-1631
1036.645	-1717
1036.709	-1392
1036.772	-902
1036.836	-1831
1036.900	-2425
1036.963	-1855
1037.026	-1457
1037.090	-2241
1037.154	-1197
1037.217	-1144
1037.280	-2715
1037.344	-1760
1037.407	-1129
1037.471	-1489
1037.534	-2033
1037.597	-927
1037.661	-990
1037.724	-1227
1037.787	-1721
1037.850	-1649
1037.913	-1813
1037.977	-619
1038.040	-1498
1038.103	-1515
1038.166	-1506
1038.229	-1754
1038.292	-1302
1038.355	-1743
1038.418	-1667
1038.481	-1724
1038.544	-1693
1038.607	-2169
1038.670	-1483
1038.732	-1711
1038.795	-1950
1038.858	-1866
1038.921	-1188
1038.984	-1140
1039.046	-1282
1039.109	-1942
1039.172	-1599
1039.234	-2673
1039.297	-1309
1039.360	-1398
1039.422	-1890
1039.485	-1982
1039.547	-1846
1039.610	-1410
1039.672	-2504
1039.734	-1649
1039.797	-1582
1039.859	-1418
1039.922	-1249
1039.984	-2314
1040.046	-1582
1040.109	-2540
1040.171	-1304
1040.233	-2251
1040.295	-1050
1040.358	-2376
1040.420	-1401
1040.482	-2808
1040.544	-2594
1040.606	-2021
1040.668	-1772
1040.730	-1715
1040.792	-2088
1040.854	-2339
1040.916	-1791
1040.978	-2226
1041.040	-955
1041.102	-2043
1041.164	-1221
1041.225	-2008
1041.287	-941
1041.349	-1608
1041.411	-515
1041.472	-1357
1041.534	-1995
1041.596	-2395
1041.657	-1721
1041.719	-1976
1041.781	-1671
1041.842	-1718
1041.904	-1455
1041.965	-2570
1042.027	-1793
1042.088	-1541
1042.150	-1520
1042.211	-1741
1042.272	-1541
1042.334	-2030
1042.395	-1757
1042.456	-1026
1042.518	-1796
1042.579	-1277
1042.640	-1913
1042.701	-2361
1042.763	-1410
1042.824	-1438
1042.885	-1540
1042.946	-1680
1043.007	-1875
1043.068	-2057
1043.129	-1821
1043.190	-1711
1043.251	-1160
1043.312	-2291
1043.373	-1362
1043.434	-1810
1043.495	-1313
1043.556	-1406
1043.616	-2005
1043.677	-1872
1043.738	-1409
1043.799	-2115
1043.859	-407
1043.920	-1610
1043.981	-1334
1044.041	-1475
1044.102	-1962
1044.162	-1675
1044.223	-1652
1044.284	-1592
1044.344	-1552
1044.405	-1711
1044.465	-1440
1044.525	-2168
1044.586	-1294
1044.646	-2162
1044.707	-1230
1044.767	-1826
1044.827	-1607
1044.887	-1740
1044.948	-1262
1045.008	-1925
1045.068	-1634
1045.128	-1042
1045.188	-2090
1045.249	-1175
1045.309	-1302
1045.369	-1736
1045.429	-827
1045.489	-1891
1045.549	-1354
1045.609	-1820
1045.669	-1670
1045.729	-2005
1045.789	-1337
1045.848	-1236
1045.908	-1456
1045.968	-1248
1046.028	-1173
1046.088	-1758
1046.147	-1008
1046.207	-1392
1046.267	-1287
1046.326	-1578
1046.386	-585
1046.446	-428
1046.505	-598
1046.565	-807
1046.624	-583
1046.684	230
1046.743	-887
1046.803	351
1046.862	887
1046.922	0
