'Start Wavelength	183.907
'End Wavelength	1046.922
'Gate Delay	5.000
'Gate Width (ms)	1.050
'Laser Output Level	0.000
'X Position	0.000
'Y Position	0.000
'Z Position	0.000
'Grid Point Number	1.000
'Shot Number	100.000
183.907	444.000
183.977	425.000
184.047	-124
184.116	873
184.186	379
184.256	53
184.325	-299
184.395	-1031
184.465	831
184.534	798
184.604	370
184.674	387
184.743	35
184.813	505
184.883	50
184.952	-224
185.022	503
185.092	498
185.161	190
185.231	20
185.301	-300
185.370	737
185.440	151
185.509	-131
185.579	275
185.649	522
185.718	1052
185.788	526
185.857	490
185.927	-427
185.996	560
186.066	378
186.136	291
186.205	119
186.275	-591
186.344	310
186.414	-273
186.483	-132
186.553	1284
186.622	449
186.692	110
186.761	662
186.831	128
186.900	264
186.970	907
187.039	882
187.109	282
187.178	106
187.248	433
187.317	564
187.387	542
187.456	1126
187.526	360
187.595	225
187.664	-32
187.734	602
187.803	-3
187.873	458
187.942	-282
188.012	-132
188.081	92
188.150	-57
188.220	450
188.289	1147
188.358	-439
188.428	809
188.497	81
188.567	591
188.636	148
188.705	256
188.775	269
188.844	-751
188.913	818
188.983	152
189.052	-534
189.121	-166
189.191	96
189.260	833
189.329	134
189.399	-163
189.468	-296
189.537	-320
189.606	6
189.676	720
189.745	180
189.814	474
189.883	-58
189.953	62
190.022	526
190.091	129
190.161	-199
190.230	852
190.299	316
190.368	478
190.437	-132
190.507	-124
190.576	-133
190.645	313
190.714	2
190.783	-244
190.853	616
190.922	550
190.991	-17
191.060	1231
191.129	133
191.198	739
191.268	88
191.337	-673
191.406	300
191.475	837
191.544	50
191.613	-318
191.682	33
191.752	13
191.821	-219
191.890	-610
191.959	-192
192.028	537
192.097	193
192.166	-540
192.235	-462
192.304	122
192.373	-155
192.442	159
192.511	-883
192.580	148
192.650	-123
192.719	-125
192.788	-49
192.857	379
192.926	-631
192.995	-162
193.064	557
193.133	-375
193.202	-56
193.271	636
193.340	-267
193.409	-38
193.478	67
193.547	255
193.615	-131
193.684	1131
193.753	-417
193.822	74
193.891	333
193.960	6
194.029	201
194.098	-118
194.167	-180
194.236	947
194.305	-267
194.374	387
194.443	-424
194.512	-128
194.580	88
194.649	757
194.718	650
194.787	-152
194.856	-194
194.925	483
194.994	-385
195.062	493
195.131	-175
195.200	105
195.269	146
195.338	-532
195.407	566
195.475	396
195.544	931
195.613	-50
195.682	564
195.751	-117
195.819	-127
195.888	218
195.957	-247
196.026	-484
196.094	313
196.163	-410
196.232	-590
196.301	597
196.369	11
196.438	-22
196.507	-441
196.576	-352
196.644	258
196.713	-91
196.782	-285
196.850	-112
196.919	-187
196.988	427
197.056	-387
197.125	607
197.194	-58
197.262	-489
197.331	-191
197.400	-195
197.468	-274
197.537	-278
197.606	117
197.674	442
197.743	150
197.812	-231
197.880	321
197.949	-291
198.017	448
198.086	-166
198.155	-354
198.223	37
198.292	-111
198.360	-151
198.429	-338
198.497	71
198.566	-441
198.635	621
198.703	29
198.772	977
198.840	334
198.909	384
198.977	133
199.046	488
199.114	-10
199.183	-541
199.251	-132
199.320	-345
199.388	-671
199.457	-270
199.525	319
199.594	460
199.662	-391
199.731	560
199.799	-531
199.867	486
199.936	-61
200.004	369
200.073	166
200.141	474
200.210	428
200.278	233
200.346	-547
200.415	890
200.483	146
200.552	543
200.620	-334
200.688	537
200.757	-196
200.825	92
200.893	-822
200.962	-171
201.030	-428
201.098	-410
201.167	-229
201.235	148
201.303	-69
201.372	434
201.440	-233
201.508	823
201.577	-224
201.645	416
201.713	-53
201.781	-132
201.850	635
201.918	713
201.986	-83
202.055	397
202.123	114
202.191	146
202.259	531
202.327	-5
202.396	-563
202.464	422
202.532	626
202.600	899
202.669	1360
202.737	315
202.805	369
202.873	-12
202.941	-817
203.009	575
203.078	-302
203.146	576
203.214	8
203.282	-745
203.350	651
203.418	-659
203.487	973
203.555	153
203.623	-373
203.691	136
203.759	212
203.827	-108
203.895	-77
203.963	-152
204.031	-495
204.099	657
204.168	-134
204.236	464
204.304	204
204.372	-243
204.440	-178
204.508	-1065
204.576	-918
204.644	380
204.712	-339
204.780	150
204.848	-711
204.916	-194
204.984	120
205.052	229
205.120	-416
205.188	-160
205.256	-269
205.324	-68
205.392	67
205.460	-223
205.528	-397
205.596	95
205.664	-608
205.732	-416
205.799	777
205.867	582
205.935	-844
206.003	832
206.071	-225
206.139	-527
206.207	-756
206.275	-667
206.343	-1215
206.411	8
206.478	300
206.546	379
206.614	282
206.682	125
206.750	-348
206.818	27
206.885	355
206.953	-1225
207.021	449
207.089	909
207.157	-291
207.225	226
207.292	-598
207.360	-571
207.428	-496
207.496	-442
207.563	-997
207.631	346
207.699	-1108
207.767	215
207.834	-586
207.902	-177
207.970	-573
208.038	-835
208.105	-8
208.173	306
208.241	-423
208.309	394
208.376	-212
208.444	30
208.512	-868
208.579	-107
208.647	428
208.715	1358
208.782	-379
208.850	-59
208.918	-992
208.985	141
209.053	144
209.120	-189
209.188	-818
209.256	253
209.323	-470
209.391	12
209.459	920
209.526	406
209.594	-485
209.661	-250
209.729	198
209.796	139
209.864	-96
209.932	-540
209.999	-20
210.067	438
210.134	-558
210.202	137
210.269	938
210.337	468
210.404	-226
210.472	-273
210.539	147
210.607	-166
210.674	-467
210.742	752
210.809	-151
210.877	675
210.944	577
211.012	-1205
211.079	925
211.146	27
211.214	40
211.281	-165
211.349	190
211.416	29
211.484	-257
211.551	-289
211.618	432
211.686	636
211.753	-820
211.821	503
211.888	-287
211.955	218
212.023	167
212.090	-199
212.157	-746
212.225	26
212.292	405
212.359	831
212.427	1631
212.494	1003
212.561	-352
212.629	283
212.696	-65
212.763	-411
212.831	-1049
212.898	396
212.965	-832
213.032	104
213.100	-55
213.167	-588
213.234	179
213.301	-34
213.369	-473
213.436	-537
213.503	-924
213.570	889
213.638	-252
213.705	-972
213.772	-1092
213.839	-276
213.906	119
213.973	-131
214.041	-763
214.108	479
214.175	-264
214.242	2
214.309	112
214.376	358
214.444	-733
214.511	-50
214.578	-43
214.645	135
214.712	-407
214.779	514
214.846	-909
214.913	719
214.980	144
215.048	545
215.115	1013
215.182	343
215.249	541
215.316	-309
215.383	303
215.450	140
215.517	-869
215.584	481
215.651	-439
215.718	-70
215.785	-467
215.852	-125
215.919	-109
215.986	413
216.053	-201
216.120	-645
216.187	141
216.254	134
216.321	210
216.388	289
216.455	400
216.522	573
216.589	-2
216.656	-30
216.722	514
216.789	-593
216.856	940
216.923	-200
216.990	-252
217.057	-209
217.124	249
217.191	-104
217.258	196
217.324	-345
217.391	175
217.458	-191
217.525	106
217.592	927
217.659	-664
217.725	-280
217.792	661
217.859	625
217.926	-792
217.993	472
218.059	97
218.126	115
218.193	-281
218.260	348
218.327	2
218.393	-389
218.460	-531
218.527	-198
218.594	-623
218.660	139
218.727	955
218.794	-649
218.860	743
218.927	-340
218.994	-89
219.061	-569
219.127	209
219.194	-739
219.261	-498
219.327	-532
219.394	80
219.461	-310
219.527	-38
219.594	-434
219.661	-327
219.727	-412
219.794	265
219.860	-919
219.927	601
219.994	671
220.060	3074
220.127	2183
220.193	823
220.260	407
220.326	300
220.393	618
220.460	62
220.526	-551
220.593	-853
220.659	1647
220.726	-193
220.792	1382
220.859	375
220.925	1289
220.992	1190
221.058	1545
221.125	1115
221.191	319
221.258	-707
221.324	697
221.391	-123
221.457	-401
221.524	-829
221.590	819
221.657	1270
221.723	726
221.789	-137
221.856	764
221.922	-611
221.989	612
222.055	-437
222.121	-442
222.188	1576
222.254	138
222.321	-456
222.387	-577
222.453	48
222.520	-275
222.586	-368
222.652	168
222.719	-446
222.785	551
222.851	-294
222.918	71
222.984	84
223.050	409
223.116	-1161
223.183	664
223.249	-420
223.315	-69
223.382	-891
223.448	-716
223.514	-947
223.580	-140
223.647	-960
223.713	-1126
223.779	-850
223.845	-570
223.911	-86
223.978	-1144
224.044	-163
224.110	-801
224.176	-757
224.242	-526
224.309	-840
224.375	22
224.441	199
224.507	-440
224.573	-1016
224.639	169
224.705	-1237
224.772	149
224.838	-1155
224.904	-81
224.970	-260
225.036	-530
225.102	-930
225.168	422
225.234	308
225.300	-173
225.366	-1036
225.432	259
225.499	-387
225.565	-432
225.631	-589
225.697	-600
225.763	101
225.829	74
225.895	-381
225.961	709
226.027	374
226.093	-167
226.159	743
226.225	36
226.291	774
226.357	2493
226.423	1059
226.489	942
226.554	51
226.620	117
226.686	-138
226.752	236
226.818	1194
226.884	4448
226.950	4290
227.016	1019
227.082	1086
227.148	150
227.214	193
227.279	-344
227.345	31
227.411	553
227.477	1390
227.543	4117
227.609	3940
227.674	2535
227.740	423
227.806	417
227.872	-547
227.938	63
228.003	-114
228.069	-309
228.135	-902
228.201	14
228.267	-319
228.332	-147
228.398	-1678
228.464	-46
228.530	-894
228.595	-733
228.661	-1068
228.727	-721
228.792	539
228.858	-143
228.924	-1456
228.990	527
229.055	-1569
229.121	222
229.187	-420
229.252	-1066
229.318	-1126
229.384	133
229.449	-633
229.515	-1913
229.581	-1499
229.646	1811
229.712	-388
229.777	-112
229.843	278
229.909	130
229.974	535
230.040	-392
230.105	-314
230.171	-844
230.236	462
230.302	-368
230.368	-693
230.433	-743
230.499	-742
230.564	725
230.630	-1143
230.695	-452
230.761	794
230.826	-1268
230.892	877
230.957	-438
231.023	-990
231.088	107
231.154	-333
231.219	558
231.284	-773
231.350	-283
231.415	-1435
231.481	613
231.546	-406
231.612	584
231.677	-1134
231.742	-1923
231.808	459
231.873	-780
231.939	-2000
232.004	669
232.069	30
232.135	-325
232.200	-1175
232.265	480
232.331	-1121
232.396	-57
232.461	-420
232.527	-409
232.592	-1421
232.657	361
232.723	-472
232.788	-601
232.853	507
232.918	237
232.984	-1147
233.049	96
233.114	-1065
233.179	-194
233.245	145
233.310	131
233.375	-2255
233.440	113
233.506	-1066
233.571	-442
233.636	-852
233.701	-257
233.766	-370
233.832	-375
233.897	-956
233.962	-2587
234.027	236
234.092	-454
234.157	-793
234.222	-247
234.288	-328
234.353	-280
234.418	498
234.483	460
234.548	-42
234.613	-210
234.678	263
234.743	-1529
234.808	459
234.873	-1331
234.938	441
235.004	-146
235.069	-1013
235.134	-846
235.199	152
235.264	100
235.329	-1597
235.394	-40
235.459	-165
235.524	-1477
235.589	-122
235.654	-146
235.719	-1680
235.784	-102
235.849	-601
235.913	-319
235.978	-720
236.043	-657
236.108	-537
236.173	-1410
236.238	227
236.303	-347
236.368	-512
236.433	226
236.498	-850
236.563	-42
236.627	376
236.692	5788
236.757	4975
236.822	889
236.887	-645
236.952	1063
237.017	-1250
237.081	1314
237.146	265
237.211	1869
237.276	5691
237.341	12274
237.405	3294
237.470	1063
237.535	458
237.600	253
237.664	22
237.729	-879
237.794	-1208
237.859	1394
237.923	-401
237.988	-327
238.053	378
238.118	1
238.182	-187
238.247	2170
238.312	-1043
238.376	-371
238.441	-1461
238.506	128
238.570	-334
238.635	730
238.700	-941
238.764	-736
238.829	-859
238.893	-349
238.958	340
239.023	-940
239.087	-999
239.152	906
239.216	-955
239.281	7
239.346	-38
239.410	-208
239.475	-1420
239.539	839
239.604	-1154
239.668	987
239.733	450
239.797	3005
239.862	8305
239.926	5708
239.991	2599
240.055	1228
240.120	-635
240.184	407
240.249	-1157
240.313	91
240.378	-402
240.442	-676
240.507	132
240.571	-595
240.635	-801
240.700	49
240.764	-214
240.829	-60
240.893	-987
240.957	328
241.022	32
241.086	306
241.151	-1147
241.215	-1132
241.279	574
241.344	-1029
241.408	-400
241.472	-1264
241.537	453
241.601	-179
241.665	-1201
241.730	-717
241.794	95
241.858	-996
241.922	-715
241.987	260
242.051	-573
242.115	-978
242.179	235
242.244	-1250
242.308	800
242.372	-281
242.436	-1060
242.501	-40
242.565	-1073
242.629	-555
242.693	36
242.757	-747
242.822	-812
242.886	-237
242.950	260
243.014	-1064
243.078	-253
243.142	-439
243.206	-962
243.271	64
243.335	-566
243.399	-268
243.463	1729
243.527	7228
243.591	1357
243.655	568
243.719	-648
243.783	701
243.847	388
243.911	539
243.975	-682
244.040	-1440
244.104	940
244.168	-603
244.232	-365
244.296	288
244.360	519
244.424	-789
244.488	-278
244.552	-358
244.615	-1900
244.679	-556
244.743	-1107
244.807	-1093
244.871	103
244.935	-61
244.999	-2013
245.063	-734
245.127	26
245.191	239
245.255	-474
245.319	142
245.383	-2269
245.446	815
245.510	-1703
245.574	-230
245.638	-51
245.702	-1025
245.766	-258
245.829	559
245.893	-1146
245.957	-1092
246.021	-191
246.085	-99
246.149	-353
246.212	728
246.276	1269
246.340	667
246.404	-394
246.467	-82
246.531	-1961
246.595	347
246.659	598
246.722	-1119
246.786	110
246.850	-494
246.913	-445
246.977	-414
247.041	-146
247.104	-559
247.168	318
247.232	371
247.295	2689
247.359	1147
247.423	-400
247.486	102
247.550	413
247.614	-414
247.677	-590
247.741	-645
247.804	40
247.868	168
247.932	-232
247.995	1812
248.059	-180
248.122	-1655
248.186	937
248.249	165
248.313	3678
248.376	4867
248.440	2186
248.503	-1499
248.567	768
248.630	-534
248.694	566
248.757	1974
248.821	3691
248.884	2738
248.948	1052
249.011	2977
249.075	4818
249.138	5229
249.202	434
249.265	-297
249.328	-271
249.392	-395
249.455	270
249.519	144
249.582	89
249.645	844
249.709	63
249.772	-61
249.835	461
249.899	1168
249.962	5
250.025	-415
250.089	785
250.152	2311
250.215	275
250.279	-373
250.342	1286
250.405	309
250.468	-484
250.532	558
250.595	1305
250.658	5322
250.721	13318
250.785	3320
250.848	2059
250.911	554
250.974	290
251.038	311
251.101	3005
251.164	209
251.227	763
251.290	306
251.354	1212
251.417	9983
251.480	10955
251.543	6175
251.606	19522
251.669	14587
251.732	3703
251.795	2779
251.859	4407
251.922	11407
251.985	7128
252.048	1727
252.111	1134
252.174	268
252.237	2509
252.300	5947
252.363	4384
252.426	16915
252.489	5027
252.552	1732
252.615	820
252.678	1500
252.741	4013
252.804	4579
252.867	16019
252.930	8450
252.993	2859
253.056	1453
253.119	298
253.182	72
253.245	590
253.308	1053
253.371	-669
253.434	-177
253.497	427
253.559	1621
253.622	368
253.685	834
253.748	1064
253.811	-3
253.874	348
253.937	-447
254.000	-35
254.062	474
254.125	2279
254.188	1838
254.251	515
254.314	-310
254.376	-186
254.439	619
254.502	894
254.565	752
254.628	3427
254.690	786
254.753	-611
254.816	-256
254.878	44
254.941	1207
255.004	1145
255.067	1214
255.129	-895
255.192	-298
255.255	-1354
255.317	-278
255.380	58
255.443	-145
255.505	-174
255.568	-1274
255.631	-899
255.693	-2
255.756	-432
255.819	1103
255.881	-526
255.944	21
256.006	-1176
256.069	-705
256.132	-753
256.194	-214
256.257	-216
256.319	-1017
256.382	-635
256.444	1475
256.507	772
256.569	-460
256.632	-120
256.694	-132
256.757	3156
256.819	10678
256.882	2976
256.944	877
257.007	450
257.069	-1095
257.132	-332
257.194	737
257.257	-478
257.319	-638
257.381	-781
257.444	1646
257.506	11388
257.569	13303
257.631	3211
257.693	1203
257.756	-373
257.818	-28
257.880	177
257.943	806
258.005	-515
258.067	-853
258.130	134
258.192	859
258.254	-452
258.317	-338
258.379	-410
258.441	682
258.503	261
258.566	-54
258.628	717
258.690	-1237
258.753	658
258.815	167
258.877	-332
258.939	-351
259.001	527
259.064	-278
259.126	-210
259.188	-666
259.250	-144
259.312	2
259.375	459
259.437	-517
259.499	-486
259.561	-123
259.623	357
259.685	-601
259.747	-301
259.809	145
259.872	359
259.934	2033
259.996	2545
260.058	607
260.120	-444
260.182	-151
260.244	-133
260.306	-386
260.368	628
260.430	-731
260.492	87
260.554	750
260.616	-1164
260.678	765
260.740	565
260.802	-248
260.864	396
260.926	-1077
260.988	248
261.050	-370
261.112	-268
261.174	1557
261.236	992
261.298	287
261.359	50
261.421	525
261.483	-555
261.545	815
261.607	-650
261.669	-153
261.731	187
261.793	863
261.854	-1515
261.916	457
261.978	-769
262.040	-739
262.102	439
262.164	-489
262.225	677
262.287	-63
262.349	-706
262.411	567
262.472	817
262.534	-450
262.596	-254
262.658	142
262.719	-983
262.781	256
262.843	-982
262.904	742
262.966	237
263.028	-7
263.090	1606
263.151	6404
263.213	2102
263.275	641
263.336	-102
263.398	233
263.459	-298
263.521	223
263.583	962
263.644	87
263.706	-667
263.767	-511
263.829	572
263.891	231
263.952	-597
264.014	-740
264.075	-355
264.137	545
264.198	454
264.260	-742
264.321	51
264.383	458
264.444	1158
264.506	46
264.567	-213
264.629	762
264.690	-212
264.752	322
264.813	-17
264.875	-408
264.936	837
264.998	60
265.059	-322
265.120	-70
265.182	189
265.243	2645
265.305	4644
265.366	279
265.427	-580
265.489	769
265.550	-2212
265.611	-300
265.673	-536
265.734	-119
265.795	762
265.857	-522
265.918	-475
265.979	1727
266.040	7840
266.102	6920
266.163	1907
266.224	269
266.286	-309
266.347	-442
266.408	560
266.469	330
266.530	-145
266.592	132
266.653	-366
266.714	-317
266.775	53
266.836	848
266.898	-535
266.959	-305
267.020	-389
267.081	1008
267.142	-188
267.203	97
267.264	-110
267.326	356
267.387	-810
267.448	-264
267.509	1172
267.570	762
267.631	295
267.692	268
267.753	-399
267.814	-216
267.875	103
267.936	829
267.997	186
268.058	-447
268.119	-415
268.180	239
268.241	-440
268.302	69
268.363	-751
268.424	60
268.485	-545
268.546	-983
268.607	-222
268.668	-377
268.729	-1179
268.790	-295
268.851	-1088
268.912	153
268.972	423
269.033	-75
269.094	-621
269.155	-338
269.216	-121
269.277	247
269.338	-160
269.398	135
269.459	-448
269.520	-872
269.581	-725
269.642	253
269.702	-406
269.763	-107
269.824	-760
269.885	-717
269.945	290
270.006	-23
270.067	-1376
270.128	-610
270.188	-319
270.249	-203
270.310	-998
270.370	-206
270.431	-542
270.492	-610
270.553	142
270.613	-223
270.674	638
270.734	-267
270.795	-135
270.856	35
270.916	-748
270.977	-338
271.038	-80
271.098	1037
271.159	-71
271.219	-66
271.280	301
271.340	252
271.401	-287
271.462	187
271.522	-234
271.583	144
271.643	-180
271.704	-20
271.764	565
271.825	607
271.885	3804
271.946	6250
272.006	1832
272.066	2120
272.127	5402
272.187	5084
272.248	1735
272.308	412
272.369	3233
272.429	1668
272.489	-151
272.550	1071
272.610	1358
272.671	-22
272.731	69
272.791	337
272.852	342
272.912	574
272.972	237
273.033	511
273.093	-17
273.153	688
273.214	1416
273.274	1240
273.334	1925
273.394	5381
273.455	1640
273.515	2733
273.575	4077
273.635	1821
273.696	3091
273.756	6206
273.816	2043
273.876	1751
273.936	1238
273.997	2464
274.057	654
274.117	318
274.177	1582
274.237	5110
274.297	4358
274.358	2322
274.418	3193
274.478	1916
274.538	1111
274.598	324
274.658	573
274.718	1530
274.778	-672
274.838	453
274.898	-432
274.958	1182
275.018	4130
275.078	2584
275.138	860
275.198	165
275.258	-470
275.318	-534
275.378	813
275.438	203
275.498	602
275.558	111
275.618	1572
275.678	2515
275.738	1145
275.798	1165
275.858	-367
275.918	-172
275.978	21
276.038	194
276.098	126
276.157	1161
276.217	2112
276.277	1031
276.337	221
276.397	313
276.457	1002
276.517	-212
276.576	360
276.636	203
276.696	642
276.756	620
276.815	966
276.875	891
276.935	205
276.995	808
277.055	758
277.114	1262
277.174	218
277.234	2044
277.293	708
277.353	248
277.413	192
277.472	1805
277.532	422
277.592	650
277.651	8136
277.711	16864
277.771	5805
277.830	16310
277.890	15013
277.950	10672
278.009	30348
278.069	13587
278.128	11311
278.188	18994
278.248	7671
278.307	19285
278.367	13049
278.426	3526
278.486	2794
278.545	1245
278.605	646
278.664	1203
278.724	770
278.783	2592
278.843	5252
278.902	3139
278.962	981
279.021	809
279.081	3367
279.140	3145
279.199	2647
279.259	2570
279.318	3506
279.378	4837
279.437	7131
279.496	20709
279.556	60178
279.615	56367
279.675	18129
279.734	9482
279.793	8203
279.853	12731
279.912	6396
279.971	4544
280.031	4287
280.090	6197
280.149	11391
280.208	10324
280.268	39825
280.327	48044
280.386	13078
280.445	6387
280.505	4232
280.564	3560
280.623	1897
280.682	2315
280.742	3295
280.801	2066
280.860	1749
280.919	1627
280.978	298
281.037	1159
281.097	1122
281.156	2093
281.215	1426
281.274	1036
281.333	3676
281.392	3362
281.451	1067
281.510	236
281.569	784
281.628	1044
281.688	582
281.747	1503
281.806	1160
281.865	747
281.924	74
281.983	1296
282.042	-21
282.101	1432
282.160	494
282.219	1099
282.278	748
282.337	1627
282.396	1107
282.454	736
282.513	451
282.572	2649
282.631	1215
282.690	203
282.749	-795
282.808	769
282.867	520
282.926	1114
282.985	990
283.043	1934
283.102	742
283.161	1138
283.220	2323
283.279	3967
283.338	962
283.396	1009
283.455	1564
283.514	1623
283.573	2202
283.631	1930
283.690	1876
283.749	1381
283.808	1956
283.866	3175
283.925	2943
283.984	3221
284.043	2244
284.101	3545
284.160	2639
284.219	4176
284.277	3781
284.336	3785
284.395	6978
284.453	6421
284.512	5563
284.570	7112
284.629	7886
284.688	9411
284.746	11901
284.805	14070
284.863	17833
284.922	24635
284.981	30391
285.039	42200
285.098	62570
285.156	87070
285.215	67144
285.273	60760
285.332	86473
285.390	72511
285.449	51928
285.507	36547
285.566	26432
285.624	21129
285.683	15724
285.741	13045
285.799	10686
285.858	9209
285.916	7255
285.975	6543
286.033	5409
286.091	5425
286.150	4196
286.208	4413
286.267	3539
286.325	3660
286.383	3263
286.442	3870
286.500	2774
286.558	2549
286.616	2025
286.675	2304
286.733	2298
286.791	1967
286.850	1499
286.908	1482
286.966	2289
287.024	2326
287.083	1661
287.141	1846
287.199	1854
287.257	1406
287.315	1682
287.374	1635
287.432	1863
287.490	1571
287.548	822
287.606	1429
287.664	454
287.723	1436
287.781	1918
287.839	1371
287.897	1437
287.955	2137
288.013	2107
288.071	3859
288.129	14965
288.187	50209
288.245	24142
288.303	5946
288.361	2973
288.419	2582
288.477	1802
288.535	1986
288.593	1248
288.651	702
288.709	173
288.767	822
288.825	173
288.883	817
288.941	15
288.999	1615
289.057	389
289.115	1124
289.173	193
289.231	1402
289.289	-12
289.346	1213
289.404	142
289.462	1473
289.520	211
289.578	968
289.636	36
289.694	1051
289.751	-218
289.809	1184
289.867	1032
289.925	1415
289.983	785
290.040	1005
290.098	295
290.156	435
290.214	875
290.271	443
290.329	1028
290.387	1242
290.444	-8
290.502	398
290.560	274
290.617	757
290.675	0
290.733	438
290.790	990
290.848	735
290.906	199
290.963	-201
291.021	394
291.078	313
291.136	-297
291.194	726
291.251	2385
291.309	864
291.366	304
291.424	755
291.481	972
291.539	523
291.596	499
291.654	290
291.711	777
291.769	907
291.826	-58
291.884	498
291.941	348
291.999	721
292.056	83
292.114	218
292.171	-223
292.228	190
292.286	1375
292.343	63
292.401	596
292.458	1137
292.515	650
292.573	1244
292.630	926
292.687	587
292.745	196
292.802	652
292.859	1838
292.917	2771
292.974	1764
293.031	543
293.089	530
293.146	622
293.203	-147
293.260	0
293.318	103
293.375	473
293.432	80
293.489	1156
293.546	885
293.604	855
293.661	2576
293.718	8417
293.775	3389
293.832	2807
293.889	3665
293.947	2418
294.004	1160
294.061	1043
294.118	1557
294.175	3094
294.232	5068
294.289	3318
294.346	1229
294.403	1265
294.460	760
294.517	1005
294.574	73
294.631	1011
294.688	246
294.745	1462
294.802	6548
294.859	6802
294.916	1998
294.973	1065
295.030	434
295.087	632
295.144	246
295.201	1622
295.258	13
295.315	1
295.372	1777
295.429	5313
295.486	2107
295.542	1880
295.599	1927
295.656	4060
295.713	2936
295.770	4789
295.827	1394
295.883	914
295.940	1229
295.997	588
296.054	855
296.111	123
296.167	700
296.224	438
296.281	-390
296.338	347
296.394	309
296.451	121
296.508	1587
296.564	3390
296.621	2155
296.678	5267
296.734	8400
296.791	3154
296.848	1288
296.904	1822
296.961	1944
297.018	4897
297.074	4400
297.131	1703
297.187	1198
297.244	1565
297.301	5677
297.357	12231
297.414	4884
297.470	1958
297.527	777
297.583	846
297.640	-461
297.696	416
297.753	654
297.809	312
297.866	164
297.922	761
297.979	176
298.035	-174
298.092	297
298.148	2669
298.204	3200
298.261	958
298.317	2264
298.374	7780
298.430	4709
298.486	2032
298.543	188
298.599	872
298.656	133
298.712	1728
298.768	3284
298.824	3657
298.881	719
298.937	684
298.993	772
299.050	360
299.106	760
299.162	1020
299.218	1496
299.275	1091
299.331	646
299.387	2890
299.443	7348
299.500	16636
299.556	12011
299.612	4573
299.668	3719
299.724	10805
299.780	14576
299.837	6084
299.893	3945
299.949	9343
300.005	15780
300.061	11251
300.117	21027
300.173	9855
300.229	3433
300.285	2958
300.341	2394
300.397	2033
300.453	1460
300.510	1124
300.566	2290
300.622	4465
300.678	16451
300.734	24589
300.790	12405
300.845	11176
300.901	10947
300.957	17093
301.013	9125
301.069	3412
301.125	2100
301.181	1154
301.237	1670
301.293	663
301.349	1432
301.405	1340
301.461	386
301.516	1070
301.572	303
301.628	1119
301.684	514
301.740	973
301.796	3235
301.851	1524
301.907	2955
301.963	2944
302.019	5932
302.074	18012
302.130	19824
302.186	9497
302.242	3681
302.297	1888
302.353	1529
302.409	2754
302.464	1910
302.520	2222
302.576	5074
302.631	7479
302.687	3249
302.743	1543
302.798	753
302.854	78
302.910	752
302.965	741
303.021	1610
303.076	1591
303.132	1074
303.187	1232
303.243	632
303.299	768
303.354	570
303.410	768
303.465	-247
303.521	1263
303.576	360
303.632	988
303.687	1268
303.743	5952
303.798	5832
303.853	1500
303.909	275
303.964	528
304.020	1318
304.075	1680
304.130	537
304.186	1923
304.241	2442
304.297	2184
304.352	531
304.358	551
304.407	714
304.449	740
304.463	749
304.518	621
304.539	686
304.573	770
304.629	1415
304.630	1420
304.684	1781
304.720	3472
304.739	4284
304.794	7984
304.811	6902
304.850	4269
304.902	1925
304.905	1779
304.960	948
304.992	912
305.015	860
305.071	601
305.083	617
305.126	732
305.173	936
305.181	965
305.236	104
305.264	528
305.292	964
305.347	599
305.354	753
305.402	1687
305.445	1288
305.457	1200
305.512	1754
305.535	1410
305.567	847
305.622	1302
305.626	1307
305.678	2085
305.716	4594
305.733	5399
305.788	6291
305.807	5808
305.843	5299
305.897	7297
305.898	7312
305.953	6716
305.988	4825
306.008	3901
306.063	2111
306.078	1840
306.118	1261
306.168	694
306.173	653
306.228	1288
306.259	1268
306.283	1203
306.338	722
306.349	859
306.393	1487
306.440	1339
306.448	1305
306.503	957
306.530	837
306.558	898
306.613	1782
306.620	1911
306.668	3115
306.711	4884
306.723	5065
306.778	4614
306.801	3926
306.833	3145
306.888	1339
306.892	1318
306.943	1700
306.982	1656
306.997	1541
307.052	1753
307.072	1492
307.107	1155
307.162	1100
307.163	1101
307.217	1598
307.253	1698
307.272	1747
307.327	1754
307.343	1837
307.381	1917
307.434	1267
307.436	1285
307.491	2676
307.524	3771
307.546	4105
307.600	4869
307.614	4601
307.655	3379
307.704	2144
307.710	2084
307.765	2161
307.795	2170
307.819	2310
307.874	3388
307.885	3494
307.929	3799
307.975	4231
307.984	4508
308.038	6254
308.065	7605
308.093	14050
308.148	29003
308.156	32686
308.202	51619
308.246	65193
308.257	63153
308.312	32516
308.336	20289
308.366	14387
308.421	8693
308.426	8290
308.475	6577
308.517	5397
308.530	5161
308.585	5069
308.607	5021
308.639	4993
308.694	5256
308.697	5252
308.748	6082
308.787	7282
308.803	7433
308.857	6606
308.877	6532
308.912	7450
308.967	9330
308.967	9354
309.021	14744
309.058	18772
309.076	22114
309.130	34462
309.148	38325
309.185	60491
309.238	98206
309.239	98624
309.293	115449
309.328	113747
309.348	100802
309.402	55623
309.418	43705
309.457	33582
309.508	23761
309.511	23729
309.566	26740
309.598	29485
309.620	37503
309.674	61993
309.688	68413
309.729	66295
309.778	56030
309.783	54646
309.837	34949
309.868	24834
309.892	21757
309.946	16108
309.959	15250
310.001	15452
310.049	15562
310.055	15044
310.109	10048
310.139	7231
310.163	6419
310.218	5238
310.229	5000
310.272	4468
310.319	4265
310.326	4186
310.381	3136
310.409	2756
310.435	2885
310.489	3262
310.499	3316
310.543	3376
310.589	3260
310.598	3184
310.652	2981
310.679	2860
310.706	2917
310.760	2757
310.769	2754
310.814	2951
310.859	3144
310.868	3203
310.923	3362
310.948	3470
310.977	3424
311.031	3366
311.038	3367
311.085	3354
311.128	2990
311.139	2961
311.193	3060
311.218	3068
311.247	2956
311.301	2714
311.308	2679
311.356	2556
311.398	2431
311.410	2572
311.464	3129
311.488	3433
311.518	3088
311.572	2375
311.578	2294
311.626	2776
311.668	3105
311.680	3159
311.734	3404
311.758	3516
311.788	3513
311.842	3475
311.847	3460
311.896	3523
311.937	3576
311.950	3492
312.004	3076
312.027	2899
312.058	3044
312.112	3284
312.117	3300
312.165	3211
312.207	3123
312.297	2912
312.386	2673
312.476	2420
312.566	3377
312.656	3182
312.745	3499
312.835	3130
312.925	3602
313.015	2486
313.104	3408
313.194	3274
313.284	2961
313.374	3876
313.463	4521
313.553	4427
313.643	3537
313.732	4084
313.822	3488
313.912	4532
314.001	5156
314.091	5463
314.180	4952
314.270	5683
314.360	5962
314.449	5050
314.539	3864
314.628	4844
314.718	5110
314.808	6330
314.897	6607
314.987	6852
315.076	6579
315.166	6615
315.255	5848
315.345	6315
315.434	5272
315.524	5557
315.613	6100
315.703	7742
315.792	17252
315.881	61042
315.971	18159
316.060	7232
316.150	6405
316.239	5762
316.328	4236
316.418	4197
316.507	5662
316.597	6399
316.686	6499
316.775	6835
316.865	6754
316.954	5179
317.043	5020
317.133	4405
317.222	4541
317.311	3763
317.400	3062
317.490	5612
317.579	4544
317.668	5249
317.757	8960
317.847	28237
317.936	93888
318.025	26791
318.114	22606
318.203	10926
318.293	6833
318.382	8945
318.471	10191
318.560	9866
318.649	12835
318.738	5810
318.828	4676
318.917	3731
319.006	2984
319.095	4542
319.184	13087
319.273	8262
319.362	4858
319.451	2392
319.540	3340
319.629	4518
319.718	6025
319.807	5136
319.896	6300
319.985	16818
320.074	7310
320.163	3941
320.252	4411
320.341	5056
320.430	4246
320.519	4634
320.608	5055
320.697	6290
320.786	6691
320.875	8875
320.964	8937
321.053	9779
321.142	10789
321.230	11755
321.319	12271
321.408	15616
321.497	14351
321.586	11919
321.675	9690
321.764	9005
321.852	9171
321.941	9814
322.030	9293
322.119	10194
322.207	14978
322.296	14193
322.385	15426
322.474	17856
322.562	22238
322.651	15691
322.740	11974
322.829	10175
322.917	8958
323.006	8319
323.095	7979
323.183	6063
323.272	6203
323.361	7370
323.449	11359
323.538	6147
323.626	8411
323.715	6583
323.804	4759
323.892	7551
323.981	5459
324.069	4922
324.158	6003
324.246	6135
324.335	4657
324.424	5271
324.512	4366
324.601	3692
324.689	4441
324.778	5088
324.866	4960
324.954	3696
325.043	3919
325.131	4066
325.220	5079
325.308	5396
325.397	4867
325.485	3893
325.574	3752
325.662	3937
325.750	3233
325.839	4379
325.927	3411
326.015	4402
326.104	3129
326.192	3481
326.280	3616
326.369	2577
326.457	3046
326.545	3372
326.634	3117
326.722	3079
326.810	3539
326.898	4480
326.987	5420
327.075	4771
327.163	4952
327.251	3712
327.340	4494
327.428	6667
327.516	6523
327.604	5681
327.692	4691
327.781	4224
327.869	4029
327.957	3700
328.045	2801
328.133	3299
328.221	2791
328.309	3207
328.397	3778
328.485	4519
328.574	6977
328.662	11796
328.750	6810
328.838	4012
328.926	4332
329.014	3597
329.102	3655
329.190	4501
329.278	3964
329.366	3230
329.454	3434
329.542	3592
329.630	2479
329.718	3698
329.806	3759
329.893	3634
329.981	3616
330.069	4325
330.157	9014
330.245	21853
330.333	11070
330.421	3359
330.509	3977
330.597	7087
330.684	4956
330.772	2942
330.860	3723
330.948	4008
331.036	3938
331.123	3894
331.211	3550
331.299	2926
331.387	4640
331.475	5369
331.562	4368
331.650	3649
331.738	3766
331.825	2852
331.913	3619
332.001	3317
332.089	3695
332.176	4172
332.264	4500
332.352	3862
332.439	4341
332.527	3830
332.614	3566
332.702	3710
332.790	3693
332.877	5155
332.965	11467
333.052	9156
333.140	10497
333.228	25587
333.315	8735
333.403	5310
333.490	6515
333.578	11120
333.665	38704
333.753	15823
333.840	5311
333.928	6304
334.015	6872
334.103	9856
334.190	20194
334.278	15188
334.365	20432
334.452	19391
334.540	12519
334.627	11462
334.715	15468
334.802	22196
334.889	41296
334.977	55460
335.064	32667
335.151	15581
335.239	12188
335.326	9176
335.413	14759
335.501	16552
335.588	10169
335.675	10617
335.762	14100
335.850	18089
335.937	26304
336.024	42868
336.111	75089
336.199	65079
336.286	28137
336.373	15956
336.460	10896
336.547	8759
336.635	8086
336.722	6866
336.809	5639
336.896	6075
336.983	7862
337.070	13510
337.157	19371
337.245	10116
337.332	9101
337.419	5601
337.506	5536
337.593	4813
337.680	6863
337.767	12007
337.854	6278
337.941	5195
338.028	5833
338.115	3314
338.202	5190
338.289	4950
338.376	8232
338.463	5345
338.550	8897
338.637	7543
338.724	4703
338.811	4732
338.898	3719
338.984	3950
339.071	4249
339.158	3535
339.245	4694
339.332	4435
339.419	4051
339.506	4413
339.593	3085
339.679	4474
339.766	3700
339.853	4081
339.940	5209
340.027	3311
340.113	3414
340.200	3770
340.287	4073
340.374	4164
340.460	4432
340.547	2248
340.634	4249
340.720	7700
340.807	4935
340.894	3640
340.980	4236
341.067	3551
341.154	4037
341.240	3197
341.327	5273
341.414	4076
341.500	2953
341.587	4528
341.674	3986
341.760	3877
341.847	4852
341.933	3462
342.020	2972
342.106	3426
342.193	4541
342.279	3891
342.366	3333
342.452	3880
342.539	3112
342.625	4659
342.712	7134
342.798	4622
342.885	3509
342.971	3341
343.058	3556
343.144	2866
343.230	3889
343.317	3218
343.403	3233
343.490	3194
343.576	3327
343.662	3927
343.749	3733
343.835	3157
343.921	4980
344.008	20921
344.094	42538
344.180	9952
344.267	5682
344.353	10848
344.439	10628
344.525	4727
344.612	5065
344.698	5019
344.784	3133
344.870	4070
344.957	3099
345.043	4486
345.129	3499
345.215	3855
345.301	3808
345.387	3168
345.474	3288
345.560	3167
345.646	3546
345.732	4047
345.818	3302
345.904	4145
345.990	3552
346.076	2935
346.162	3476
346.249	3969
346.335	2447
346.421	3300
346.507	6764
346.593	16916
346.679	4025
346.765	4538
346.851	7605
346.937	4652
347.023	4670
347.108	3927
347.194	4009
347.280	3750
347.366	5676
347.452	15700
347.538	30159
347.624	16246
347.710	11406
347.796	4044
347.882	4152
347.967	3582
348.053	4452
348.139	3464
348.225	3861
348.311	2623
348.397	4700
348.482	4502
348.568	4526
348.654	6335
348.740	19216
348.825	20162
348.911	9685
348.997	11245
349.083	18908
349.168	5261
349.254	3992
349.340	3718
349.425	3110
349.511	4929
349.597	4145
349.682	4750
349.768	11615
349.854	6373
349.939	4669
350.025	3505
350.110	3826
350.196	3552
350.282	3083
350.367	4366
350.453	4268
350.538	3772
350.624	3447
350.709	4009
350.795	3497
350.880	3434
350.966	4575
351.051	4069
351.137	4044
351.222	4043
351.308	4928
351.393	8288
351.479	4254
351.564	3089
351.649	4489
351.735	3569
351.820	3374
351.906	3453
351.991	3122
352.076	6508
352.162	8581
352.247	3155
352.332	4367
352.418	2824
352.503	4534
352.588	10618
352.673	7898
352.759	3656
352.844	3553
352.929	3311
353.014	2923
353.100	3783
353.185	4586
353.270	3569
353.355	5304
353.441	4432
353.526	3986
353.611	3798
353.696	3726
353.781	4529
353.866	2958
353.952	4235
354.037	3839
354.122	6316
354.207	5316
354.292	4154
354.377	4326
354.462	3612
354.547	3783
354.632	4689
354.717	4716
354.802	4370
354.887	4310
354.972	4101
355.057	3086
355.142	2797
355.227	4284
355.312	3803
355.397	4426
355.482	7463
355.567	5079
355.652	5730
355.737	5343
355.822	11504
355.907	9831
355.991	4967
356.076	4028
356.161	4254
356.246	3039
356.331	4891
356.416	5138
356.501	22566
356.585	20107
356.670	4624
356.755	5588
356.840	5820
356.924	14967
357.009	45470
357.094	16984
357.179	4662
357.263	4864
357.348	5872
357.433	4875
357.517	5303
357.602	5079
357.687	4718
357.771	5472
357.856	6469
357.941	6271
358.025	13856
358.110	52151
358.195	21956
358.279	5415
358.364	4718
358.448	8637
358.533	17741
358.617	12651
358.702	14106
358.787	7616
358.871	4815
358.956	5465
359.040	4598
359.125	3313
359.209	4805
359.294	4732
359.378	8050
359.462	7522
359.547	4568
359.631	4552
359.716	2591
359.800	4096
359.885	4657
359.969	4379
360.053	4486
360.138	4290
360.222	4704
360.306	4328
360.391	4717
360.475	5632
360.559	7190
360.644	7386
360.728	5793
360.812	14382
360.896	31007
360.981	11969
361.065	7057
361.149	5547
361.233	4378
361.318	4200
361.402	5123
361.486	6427
361.570	5156
361.654	5265
361.739	6312
361.823	21401
361.907	34575
361.991	9660
362.075	9562
362.159	12507
362.243	20998
362.327	52107
362.411	79135
362.495	30794
362.580	14630
362.664	12829
362.748	13934
362.832	22777
362.916	44540
363.000	133405
363.084	193950
363.168	93574
363.252	27181
363.336	13974
363.420	12985
363.503	18569
363.587	18392
363.671	9380
363.755	8459
363.839	12077
363.923	9072
364.007	13811
364.091	17503
364.175	27386
364.258	69515
364.342	152113
364.426	269794
364.510	142443
364.594	44035
364.677	23032
364.761	35222
364.845	25428
364.929	9914
365.013	8247
365.096	7881
365.180	6595
365.264	9018
365.347	23039
365.431	10837
365.515	4758
365.598	4753
365.682	6236
365.766	4869
365.849	5863
365.933	5267
366.017	7015
366.100	4773
366.184	4959
366.267	5859
366.351	5949
366.435	5417
366.518	4071
366.602	5222
366.685	5012
366.769	5197
366.852	5362
366.936	6360
367.019	5604
367.103	4492
367.186	7289
367.270	5661
367.353	4341
367.436	7093
367.520	5974
367.603	6356
367.687	5087
367.770	6528
367.853	6815
367.937	11253
368.020	14999
368.104	5987
368.187	6685
368.270	6179
368.353	5313
368.437	6366
368.520	7930
368.603	6309
368.687	8809
368.770	14607
368.853	6326
368.936	5861
369.020	6298
369.103	4336
369.186	4290
369.269	4569
369.352	6032
369.436	4480
369.519	4945
369.602	3059
369.685	6622
369.768	3725
369.851	5298
369.934	4239
370.018	4367
370.101	4425
370.184	7139
370.267	5442
370.350	6248
370.433	7007
370.516	21022
370.599	43324
370.682	15972
370.765	11381
370.848	12618
370.931	18743
371.014	10762
371.097	5194
371.180	6475
371.263	5215
371.346	4757
371.429	6328
371.511	4947
371.594	6251
371.677	8408
371.760	9354
371.843	9041
371.926	24074
372.009	46923
372.091	22708
372.174	14914
372.257	24983
372.340	13889
372.423	11197
372.505	12482
372.588	7868
372.671	10207
372.754	19200
372.836	13320
372.919	10959
373.002	14233
373.085	8232
373.167	8884
373.250	11270
373.332	21681
373.415	29835
373.498	57681
373.580	26922
373.663	62223
373.746	67993
373.828	14272
373.911	9246
373.993	8079
374.076	13723
374.159	12138
374.241	8720
374.324	16532
374.406	13384
374.489	20159
374.571	48251
374.654	19769
374.736	12705
374.819	31456
374.901	44271
374.983	44594
375.066	11946
375.148	8662
375.231	13164
375.313	20012
375.395	10750
375.478	8015
375.560	8473
375.643	8361
375.725	12686
375.807	36503
375.890	26556
375.972	8013
376.054	7622
376.136	8810
376.219	6009
376.301	13266
376.383	28370
376.465	13650
376.548	7455
376.630	9996
376.712	24235
376.794	13004
376.877	5317
376.959	4410
377.041	5217
377.123	5303
377.205	5329
377.287	5116
377.369	5264
377.452	4550
377.534	5538
377.616	5087
377.698	4690
377.780	4134
377.862	4396
377.944	6351
378.026	4333
378.108	5927
378.190	4759
378.272	5126
378.354	4832
378.436	5353
378.518	4164
378.600	6686
378.682	6746
378.764	10760
378.846	10180
378.928	5373
379.010	5624
379.091	6084
379.173	5110
379.255	4478
379.337	4283
379.419	7524
379.501	15685
379.583	8429
379.664	4498
379.746	5942
379.828	12468
379.910	12706
379.991	14817
380.073	5438
380.155	5756
380.237	5545
380.318	5363
380.400	5269
380.482	6390
380.564	7229
380.645	7203
380.727	6654
380.809	5999
380.890	5481
380.972	3918
381.053	6013
381.135	7386
381.217	8215
381.298	12826
381.380	8505
381.461	9051
381.543	23788
381.624	28796
381.706	9993
381.787	8046
381.869	8887
381.951	16745
382.032	46439
382.113	31832
382.195	9622
382.276	11806
382.358	15819
382.439	29119
382.521	34959
382.602	49255
382.684	31323
382.765	50195
382.846	118623
382.928	254358
383.009	147394
383.090	111000
383.172	310264
383.253	399761
383.334	141439
383.416	71294
383.497	49255
383.578	49073
383.659	94300
383.741	274055
383.822	506280
383.903	276950
383.984	85870
384.066	62336
384.147	37426
384.228	21882
384.309	17438
384.390	16827
384.471	15023
384.553	13583
384.634	13251
384.715	13406
384.796	11752
384.877	10934
384.958	17923
385.039	17044
385.120	11338
385.201	10861
385.282	10547
385.363	12845
385.444	14349
385.525	15627
385.606	24378
385.687	22129
385.768	12276
385.849	10727
385.930	27555
386.011	42549
386.092	16245
386.173	10860
386.254	9772
386.335	9350
386.416	9057
386.496	12034
386.577	15528
386.658	10112
386.739	8708
386.820	9605
386.901	8837
386.981	10841
387.062	11924
387.143	13124
387.224	17931
387.304	19813
387.385	15692
387.466	13429
387.547	15680
387.627	15592
387.708	18413
387.789	28174
387.869	30457
387.950	17878
388.031	10474
388.111	8316
388.192	12352
388.273	12015
388.353	10297
388.434	8304
388.514	10465
388.595	25124
388.676	27492
388.756	13720
388.837	11900
388.917	9398
388.998	5451
389.078	7294
389.159	7009
389.239	5519
389.320	8424
389.400	4945
389.480	9585
389.561	13983
389.641	9984
389.722	7202
389.802	6167
389.883	9758
389.963	17525
390.043	10986
390.124	5668
390.204	8485
390.284	13403
390.365	9828
390.445	11427
390.525	23668
390.605	21825
390.686	9393
390.766	8408
390.846	8631
390.927	6348
391.007	5421
391.087	7765
391.167	6841
391.247	6041
391.328	7914
391.408	8006
391.488	8640
391.568	6595
391.648	7651
391.728	10586
391.808	9718
391.888	9581
391.969	13273
392.049	17104
392.129	12965
392.209	13939
392.289	22878
392.369	18006
392.449	16461
392.529	16163
392.609	18373
392.689	21758
392.769	30824
392.849	35817
392.929	40184
393.009	59265
393.089	79070
393.169	140308
393.248	331574
393.328	635966
393.408	607968
393.488	318505
393.568	135156
393.648	71715
393.728	45736
393.807	31057
393.887	27221
393.967	21681
394.047	19327
394.127	17380
394.206	18593
394.286	38780
394.366	141796
394.446	146008
394.525	34466
394.605	14557
394.685	12589
394.764	15084
394.844	27286
394.924	31071
395.003	13018
395.083	10455
395.163	10037
395.242	8986
395.322	9629
395.402	7996
395.481	11694
395.561	13224
395.640	38895
395.720	70202
395.799	41307
395.879	21238
395.958	17899
396.038	49260
396.117	183519
396.197	191448
396.276	54377
396.356	26630
396.435	27974
396.515	34011
396.594	50116
396.673	105765
396.753	298503
396.832	569414
396.912	429741
396.991	158305
397.070	65121
397.150	37058
397.229	32105
397.308	55728
397.388	102862
397.467	48873
397.546	18190
397.625	11260
397.705	12038
397.784	10864
397.863	9252
397.942	8376
398.022	7538
398.101	9904
398.180	14719
398.259	10139
398.338	7813
398.417	6482
398.497	5675
398.576	7011
398.655	5161
398.734	6183
398.813	5482
398.892	7836
398.971	14633
399.050	8660
399.129	4061
399.208	5201
399.287	6103
399.366	4575
399.445	4440
399.524	5015
399.603	3685
399.682	5087
399.761	7321
399.840	15033
399.919	12942
399.998	4628
400.077	3238
400.156	3498
400.235	6275
400.313	3945
400.392	3712
400.471	7603
400.550	9110
400.629	3618
400.708	4127
400.786	3535
400.865	4144
400.944	3873
401.023	5280
401.102	3641
401.180	3262
401.259	3743
401.338	2995
401.416	3838
401.495	2603
401.574	4483
401.652	2392
401.731	4484
401.810	2428
401.888	2571
401.967	2530
402.046	2950
402.124	2815
402.203	2863
402.281	3740
402.360	2537
402.438	4243
402.517	1946
402.596	3377
402.674	2951
402.753	2342
402.831	3684
402.910	3986
402.988	6220
403.066	18167
403.145	12413
403.223	7931
403.302	15753
403.380	13175
403.459	12952
403.537	6194
403.615	4998
403.694	3413
403.772	4003
403.850	3345
403.929	3380
404.007	3025
404.085	5883
404.164	4275
404.242	3437
404.320	8059
404.398	18821
404.477	16443
404.555	31088
404.633	26298
404.711	15345
404.789	8952
404.868	4040
404.946	2838
405.024	3057
405.102	2491
405.180	2734
405.258	1426
405.336	2956
405.415	1774
405.493	4264
405.571	4494
405.649	2908
405.727	2617
405.805	4525
405.883	4478
405.961	4729
406.039	2817
406.117	2119
406.195	3755
406.273	6020
406.351	20316
406.429	13593
406.507	2727
406.585	2607
406.663	2202
406.740	2646
406.818	2060
406.896	1903
406.974	3298
407.052	2080
407.130	12073
407.208	17331
407.285	4701
407.363	2341
407.441	2724
407.519	2866
407.596	3233
407.674	7705
407.752	23671
407.830	18748
407.907	5177
407.985	2066
408.063	2312
408.141	1995
408.218	3608
408.296	2084
408.373	3386
408.451	3160
408.529	3766
408.606	3886
408.684	4237
408.762	4207
408.839	4709
408.917	4384
408.994	4552
409.072	4997
409.149	7096
409.227	12556
409.304	17421
409.382	19610
409.459	21374
409.537	28580
409.614	25605
409.692	19728
409.769	19129
409.846	29335
409.924	34683
410.001	24781
410.079	17524
410.156	13411
410.233	9831
410.311	7657
410.388	7616
410.465	7578
410.543	5248
410.620	6788
410.697	5642
410.775	6431
410.852	5699
410.929	7411
411.006	6443
411.083	5467
411.161	5007
411.238	6200
411.315	4346
411.392	4389
411.469	5620
411.547	4623
411.624	2358
411.701	3051
411.778	3696
411.855	4403
411.932	2901
412.009	2384
412.086	4222
412.163	3876
412.240	2978
412.317	4085
412.394	3337
412.471	3306
412.548	2922
412.625	2766
412.702	2973
412.779	3573
412.856	3077
412.933	2434
413.010	2672
413.087	2531
413.164	4495
413.241	6628
413.318	2944
413.395	3864
413.471	3066
413.548	3636
413.625	2953
413.702	2027
413.779	3012
413.855	2976
413.932	1803
414.009	1678
414.086	2430
414.162	2753
414.239	2662
414.316	5432
414.393	9474
414.469	4340
414.546	2026
414.623	2596
414.699	1848
414.776	2559
414.853	1394
414.929	2291
415.006	2360
415.082	2728
415.159	1743
415.236	2035
415.312	2774
415.389	2754
415.465	1955
415.542	2218
415.618	1937
415.695	2875
415.771	2031
415.848	2341
415.924	2219
416.000	2287
416.077	2854
416.153	1059
416.230	1307
416.306	2103
416.383	2037
416.459	2272
416.535	2291
416.612	2634
416.688	2870
416.764	2493
416.841	1637
416.917	2274
416.993	2723
417.069	2456
417.146	1791
417.222	2181
417.298	2620
417.374	1597
417.451	2720
417.527	2341
417.603	1543
417.679	3045
417.755	2538
417.831	1629
417.908	2071
417.984	2590
418.060	1827
418.136	2878
418.212	2913
418.288	3038
418.364	3175
418.440	2151
418.516	2956
418.592	2699
418.668	2523
418.744	3302
418.820	3816
418.896	3153
418.972	1667
419.048	2709
419.124	3342
419.200	2004
419.276	3015
419.352	2522
419.428	2766
419.504	2771
419.579	3275
419.655	3663
419.731	2679
419.807	4054
419.883	4860
419.959	4744
420.034	3822
420.110	3981
420.186	7345
420.262	6823
420.337	3797
420.413	4947
420.489	4922
420.565	5665
420.640	4840
420.716	5982
420.792	4804
420.867	6588
420.943	6057
421.019	7391
421.094	6695
421.170	8041
421.245	8528
421.321	9108
421.397	9013
421.472	14026
421.548	22022
421.623	19404
421.699	14857
421.774	16190
421.850	17774
421.925	22940
422.001	24547
422.076	30981
422.152	39110
422.227	50837
422.302	72736
422.378	107397
422.453	175214
422.529	281101
422.604	336762
422.679	260526
422.755	303010
422.830	281373
422.905	184564
422.981	117768
423.056	81411
423.131	61111
423.207	45771
423.282	35988
423.357	30274
423.432	25301
423.508	22561
423.583	20314
423.658	17312
423.733	15396
423.808	13867
423.883	15299
423.959	14832
424.034	17864
424.109	16366
424.184	11386
424.259	10034
424.334	8245
424.409	7468
424.484	6536
424.559	5839
424.634	6217
424.709	5659
424.784	6524
424.859	5618
424.934	5246
425.009	7280
425.084	9173
425.159	6546
425.234	4719
425.309	4104
425.384	4930
425.459	3912
425.534	4810
425.609	3505
425.683	3866
425.758	3826
425.833	3877
425.908	4619
425.983	4588
426.058	7909
426.132	5177
426.207	3213
426.282	4624
426.357	2788
426.431	3394
426.506	3678
426.581	2868
426.655	3205
426.730	3082
426.805	1655
426.879	3522
426.954	2868
427.029	2581
427.103	8480
427.178	16845
427.253	8908
427.327	3335
427.402	2255
427.476	3399
427.551	3160
427.625	2639
427.700	3249
427.774	2939
427.849	3296
427.923	3434
427.998	3514
428.072	4372
428.147	9993
428.221	43017
428.296	126240
428.370	68195
428.444	11514
428.519	4930
428.593	5179
428.667	5237
428.742	6697
428.816	16268
428.890	76410
428.965	114138
429.039	28623
429.113	6710
429.188	3668
429.262	3057
429.336	3513
429.410	4872
429.485	3706
429.559	4866
429.633	4152
429.707	4925
429.781	14590
429.855	74802
429.930	103457
430.004	29589
430.078	20596
430.152	52171
430.226	166625
430.300	157060
430.374	35378
430.448	11478
430.522	8458
430.596	13608
430.670	26504
430.744	101471
430.818	107735
430.892	21205
430.966	4668
431.040	3355
431.114	1978
431.188	2632
431.262	2227
431.336	1432
431.410	2751
431.484	3047
431.557	3607
431.631	2864
431.705	6787
431.779	33687
431.853	119563
431.927	78961
432.000	12218
432.074	4158
432.148	2577
432.222	2583
432.295	1581
432.369	1104
432.443	1398
432.516	6224
432.590	17072
432.664	6015
432.737	986
432.811	1085
432.885	1487
432.958	1595
433.032	660
433.106	883
433.179	1030
433.253	816
433.326	631
433.400	597
433.473	1382
433.547	343
433.620	966
433.694	1110
433.767	1437
433.841	1062
433.914	1144
433.988	976
434.061	1042
434.134	458
434.208	695
434.281	398
434.355	645
434.428	1776
434.501	267
434.575	1190
434.648	948
434.721	1113
434.795	1104
434.868	629
434.941	1905
435.014	1714
435.088	1759
435.161	3881
435.234	4808
435.307	4883
435.381	5443
435.454	8759
435.527	13593
435.600	16294
435.673	12529
435.746	8963
435.819	6196
435.892	4917
435.966	3832
436.039	3004
436.112	1840
436.185	1878
436.258	2069
436.331	1201
436.404	1503
436.477	1220
436.550	1809
436.623	1533
436.696	1675
436.769	1127
436.842	969
436.915	811
436.987	1159
437.060	1260
437.133	1459
437.206	1490
437.279	1359
437.352	869
437.425	651
437.498	899
437.570	1614
437.643	1497
437.716	846
437.789	1045
437.861	842
437.934	1906
438.007	920
438.080	852
438.152	841
438.225	2333
438.298	9712
438.370	27331
438.443	9707
438.516	1869
438.588	1109
438.661	1038
438.734	1187
438.806	1418
438.879	1476
438.951	1057
439.024	2180
439.096	451
439.169	1050
439.241	603
439.314	452
439.386	826
439.459	1864
439.531	847
439.604	1396
439.676	1613
439.749	860
439.821	-114
439.893	2391
439.966	825
440.038	157
440.110	1364
440.183	1415
440.255	1406
440.327	2835
440.400	3184
440.472	13413
440.544	9079
440.617	1913
440.689	2916
440.761	770
440.833	1622
440.905	1378
440.978	1901
441.050	784
441.122	1726
441.194	939
441.266	1256
441.338	1272
441.411	2057
441.483	4283
441.555	6180
441.627	2304
441.699	2260
441.771	1735
441.843	2086
441.915	2418
441.987	2912
442.059	2000
442.131	3125
442.203	3878
442.275	5282
442.347	8452
442.419	21386
442.491	96943
442.563	197416
442.635	80145
442.706	17887
442.778	8841
442.850	5677
442.922	5153
442.994	4685
443.066	5160
443.137	6737
443.209	8812
443.281	14058
443.353	31026
443.425	111289
443.496	294279
443.568	302412
443.640	128605
443.711	29910
443.783	12467
443.855	8375
443.926	6106
443.998	4633
444.070	4358
444.141	4507
444.213	3788
444.285	4281
444.356	3568
444.428	3537
444.499	3155
444.571	3997
444.642	4116
444.714	4315
444.785	3822
444.857	4185
444.928	5488
445.000	6256
445.071	6986
445.143	10497
445.214	13805
445.285	24952
445.357	63376
445.428	205533
445.500	342297
445.571	279353
445.642	188066
445.714	65200
445.785	21864
445.856	10778
445.928	7352
445.999	6280
446.070	4317
446.141	4070
446.213	3400
446.284	2845
446.355	2736
446.426	2144
446.497	2284
446.569	1975
446.640	2052
446.711	2256
446.782	1704
446.853	1291
446.924	1998
446.995	1097
447.066	1174
447.138	2014
447.209	1336
447.280	694
447.351	576
447.422	1233
447.493	93
447.564	1611
447.635	1136
447.706	1521
447.777	569
447.847	1423
447.918	-11
447.989	1411
448.060	1028
448.131	1460
448.202	1171
448.273	1417
448.344	1416
448.414	724
448.485	367
448.556	1928
448.627	326
448.698	1605
448.768	588
448.839	-49
448.910	177
448.981	1738
449.051	480
449.122	932
449.193	990
449.263	1443
449.334	291
449.405	790
449.475	1425
449.546	1669
449.616	1492
449.687	2358
449.758	1033
449.828	46
449.899	509
449.969	90
450.040	467
450.110	1423
450.181	1269
450.251	929
450.322	591
450.392	1074
450.463	21
450.533	543
450.604	476
450.674	676
450.744	1345
450.815	1416
450.885	1442
450.955	2243
451.026	1817
451.096	1469
451.166	1773
451.237	2402
451.307	3373
451.377	2927
451.447	1010
451.518	1620
451.588	966
451.658	343
451.728	672
451.799	2429
451.869	2773
451.939	1348
452.009	309
452.079	669
452.149	779
452.219	1498
452.289	2837
452.360	2031
452.430	1653
452.500	2655
452.570	4572
452.640	13164
452.710	32057
452.780	35466
452.850	18011
452.920	8241
452.990	4169
453.060	3150
453.129	1858
453.199	1148
453.269	3827
453.339	5978
453.409	8161
453.479	8873
453.549	11053
453.619	11067
453.688	3890
453.758	1644
453.828	1157
453.898	917
453.968	900
454.037	1107
454.087	858
454.107	748
454.168	202
454.177	107
454.247	727
454.249	740
454.316	926
454.330	833
454.386	386
454.411	707
454.456	1195
454.492	1383
454.525	1542
454.574	893
454.595	598
454.655	604
454.665	595
454.734	622
454.736	661
454.804	1719
454.817	1961
454.873	2768
454.898	2724
454.943	2651
454.979	2155
455.013	1675
455.060	1441
455.082	1369
455.141	1609
455.152	1669
455.221	2519
455.222	2573
455.291	5021
455.303	5570
455.360	7229
455.384	10520
455.430	15382
455.465	10844
455.499	6910
455.546	4553
455.569	3526
455.627	2087
455.638	1797
455.707	1127
455.708	1137
455.777	1105
455.789	1147
455.846	1189
455.869	1143
455.916	1065
455.950	1352
455.985	1660
456.031	1732
456.054	1679
456.112	1555
456.124	1544
456.193	1097
456.193	1085
456.262	1728
456.274	1787
456.332	1818
456.355	1823
456.401	1882
456.436	1639
456.470	1295
456.516	1357
456.540	1389
456.597	1444
456.609	1473
456.678	1983
456.678	1974
456.747	1422
456.759	1365
456.817	1127
456.840	1186
456.886	1366
456.920	1863
456.955	2321
457.001	2054
457.024	1864
457.082	2554
457.093	2689
457.162	2811
457.163	2825
457.232	2528
457.243	2447
457.301	2201
457.324	2201
457.370	2061
457.405	2520
457.439	3135
457.485	3183
457.508	3302
457.566	4408
457.577	4838
457.646	7401
457.647	7462
457.715	17704
457.727	20323
457.784	36910
457.808	49325
457.853	63172
457.889	73043
457.922	73375
457.969	46912
457.991	45683
458.050	56850
458.060	59147
458.129	105944
458.130	107298
458.198	106626
458.211	94289
458.267	49417
458.292	33740
458.336	21069
458.372	19846
458.405	28326
458.453	45623
458.474	57668
458.533	103891
458.543	106847
458.611	166164
458.614	166666
458.680	100908
458.694	78509
458.749	32299
458.775	22268
458.818	12391
458.855	10063
458.887	8380
458.936	6403
458.955	5854
459.016	5071
459.024	4954
459.093	4597
459.097	4594
459.162	4321
459.177	4201
459.230	3889
459.257	3956
459.299	3967
459.338	3950
459.368	3751
459.418	3116
459.437	3124
459.499	3421
459.505	3379
459.574	3049
459.579	3026
459.643	3193
459.659	3288
459.711	3351
459.740	3140
459.780	2781
459.820	3126
459.849	3478
459.900	3602
459.917	3608
459.981	3875
459.986	3853
460.054	3127
460.061	3094
460.123	3381
460.141	3406
460.191	3199
460.222	3110
460.260	3201
460.302	3341
460.328	3336
460.382	3740
460.397	3897
460.462	3995
460.465	4100
460.534	7367
460.543	7675
460.602	18623
460.623	23248
460.671	35920
460.703	48582
460.739	45078
460.783	34772
460.808	29893
460.864	8482
460.876	6402
460.944	3975
460.945	3947
461.013	3581
461.024	3422
461.081	2699
461.104	2877
461.150	3281
461.184	3516
461.218	3884
461.264	3868
461.286	3589
461.345	2836
461.355	2751
461.423	2837
461.425	2832
461.491	3374
461.505	3545
461.559	4139
461.585	4274
461.628	4691
461.665	5210
461.696	5443
461.745	6393
461.764	6192
461.825	4087
461.832	3985
461.901	3512
461.905	3497
461.969	3065
461.985	2991
462.037	4025
462.065	4465
462.105	3995
462.145	3655
462.173	4090
462.225	4595
462.241	4490
462.305	4800
462.310	4803
462.378	4310
462.385	4248
462.446	3953
462.465	3862
462.514	3681
462.545	3733
462.582	3827
462.625	3737
462.650	3865
462.705	4123
462.718	3975
462.785	3433
462.786	3437
462.854	3472
462.865	3432
462.922	3734
462.945	4041
462.990	4030
463.025	3980
463.058	3808
463.104	3201
463.126	3080
463.184	3146
463.194	3258
463.262	3842
463.264	3859
463.330	4031
463.344	4107
463.398	3904
463.424	3649
463.466	3309
463.504	3324
463.533	3638
463.583	3823
463.601	3783
463.663	3875
463.669	3888
463.737	3582
463.743	3589
463.805	4527
463.823	4830
463.873	5667
463.903	6112
463.940	6317
463.982	6576
464.008	6085
464.062	4739
464.076	4460
464.142	3138
464.144	3136
464.211	3127
464.221	3089
464.279	3549
464.301	3803
464.347	3753
464.381	3729
464.414	3844
464.461	4069
464.482	4248
464.540	4417
464.550	4247
464.617	3101
464.620	3061
464.685	3765
464.699	3905
464.753	4679
464.779	5040
464.820	4799
464.859	4699
464.888	4703
464.938	4433
464.956	4652
465.018	5673
465.023	5649
465.091	4993
465.098	4938
465.158	5064
465.177	5126
465.226	5195
465.257	5167
465.293	4934
465.336	4484
465.361	4819
465.416	5832
465.428	5822
465.495	5590
465.496	5605
465.563	6718
465.575	6893
465.631	7385
465.654	7679
465.698	6300
465.734	4932
465.765	4992
465.813	5161
465.833	5095
465.893	4982
465.900	5018
465.968	5146
465.972	5147
466.035	4509
466.052	4372
466.102	4157
466.131	3933
466.170	4051
466.210	4276
466.237	4447
466.290	4647
466.304	4696
466.369	4840
466.372	4853
466.439	5129
466.449	5149
466.506	5432
466.528	5533
466.573	6621
466.607	7399
466.641	7742
466.687	8239
466.708	8799
466.766	10284
466.775	9846
466.842	6429
466.845	6257
466.909	5423
466.925	5222
466.977	5296
467.004	5320
467.044	5514
467.083	5698
467.111	6060
467.163	6740
467.178	6773
467.242	6834
467.245	6831
467.312	6585
467.321	6544
467.379	6494
467.400	6460
467.446	6736
467.480	6919
467.559	6890
467.638	6174
467.717	6269
467.796	7080
467.875	7677
467.955	7741
468.034	8673
468.113	13051
468.192	16749
468.271	14686
468.350	20327
468.429	30489
468.508	34218
468.588	18999
468.667	11749
468.746	8690
468.825	7340
468.904	6650
468.983	6682
469.062	8083
469.141	8168
469.220	6346
469.299	6109
469.378	5839
469.456	8022
469.535	6989
469.614	5563
469.693	6505
469.772	7373
469.851	7949
469.930	7260
470.009	7768
470.088	9348
470.166	15415
470.245	27990
470.324	35953
470.403	18138
470.482	11025
470.560	7705
470.639	7156
470.718	6880
470.797	6294
470.875	6564
470.954	6243
471.033	6510
471.111	5440
471.190	5154
471.269	5187
471.347	4988
471.426	5734
471.505	5570
471.583	6941
471.662	5933
471.740	5894
471.819	5309
471.898	5828
471.976	5356
472.055	5448
472.133	5867
472.212	7356
472.290	5696
472.369	5361
472.447	5257
472.526	5838
472.604	5796
472.683	6532
472.761	5600
472.839	6279
472.918	6727
472.996	5488
473.075	6222
473.153	6475
473.231	6315
473.310	6010
473.388	6277
473.466	6145
473.545	6252
473.623	7060
473.701	5932
473.780	6910
473.858	4851
473.936	7617
474.014	5840
474.093	7123
474.171	7187
474.249	7481
474.327	5677
474.405	5974
474.484	6228
474.562	5402
474.640	5555
474.718	6179
474.796	6281
474.874	5989
474.952	5209
475.030	5531
475.108	5840
475.187	6479
475.265	6844
475.343	7982
475.421	7927
475.499	6221
475.577	6301
475.655	6780
475.733	7416
475.811	10095
475.889	8764
475.966	7730
476.044	5442
476.122	6460
476.200	7449
476.278	6364
476.356	5353
476.434	6340
476.512	6003
476.590	7427
476.667	6862
476.745	5189
476.823	5533
476.901	6485
476.979	5689
477.056	6327
477.134	5366
477.212	5442
477.290	5699
477.367	5438
477.445	5449
477.523	5651
477.601	4540
477.678	5733
477.756	5561
477.834	5407
477.911	5171
477.989	5345
478.066	5523
478.144	5048
478.222	5661
478.299	7391
478.377	7408
478.454	6231
478.532	4346
478.609	5804
478.687	6180
478.764	5279
478.842	5051
478.919	6008
478.997	6190
479.074	5621
479.152	4351
479.229	6617
479.307	5486
479.384	5475
479.461	5712
479.539	5148
479.616	5054
479.694	4577
479.771	5912
479.848	5300
479.926	4272
480.003	7063
480.080	5046
480.157	5735
480.235	4277
480.312	5691
480.389	5781
480.467	6124
480.544	7197
480.621	6987
480.698	6585
480.775	7037
480.853	6287
480.930	5834
481.007	5715
481.084	6611
481.161	8001
481.238	7173
481.315	5149
481.392	6124
481.470	5026
481.547	5597
481.624	5147
481.701	5542
481.778	5578
481.855	6770
481.932	7394
482.009	9424
482.086	7962
482.163	10512
482.240	12694
482.317	13105
482.393	9585
482.470	8975
482.547	7470
482.624	6924
482.701	6402
482.778	6813
482.855	6521
482.932	6995
483.009	6430
483.085	9116
483.162	10449
483.239	12517
483.316	11219
483.393	11989
483.469	9361
483.546	8146
483.623	7348
483.699	6533
483.776	6448
483.853	7199
483.930	6494
484.006	8610
484.083	13527
484.160	10436
484.236	14239
484.313	12048
484.389	10981
484.466	12070
484.543	12399
484.619	17688
484.696	21761
484.772	14798
484.849	10826
484.925	9444
485.002	9469
485.078	9375
485.155	8736
485.231	8124
485.308	7727
485.384	8511
485.461	9404
485.537	9914
485.614	10461
485.690	7445
485.766	8312
485.843	7597
485.919	8077
485.995	8504
486.072	7335
486.148	6978
486.224	7453
486.301	7162
486.377	6951
486.453	7852
486.530	9344
486.606	10078
486.682	10357
486.758	9718
486.835	10980
486.911	9786
486.987	13660
487.063	13180
487.139	14746
487.215	15094
487.292	16736
487.368	16616
487.444	20642
487.520	28033
487.596	41422
487.672	109969
487.748	361024
487.824	523046
487.900	142747
487.976	37208
488.052	20285
488.128	16646
488.204	12148
488.280	11464
488.356	10581
488.432	12915
488.508	13872
488.584	9396
488.660	8326
488.736	8353
488.812	7218
488.888	8953
488.964	8088
489.039	11047
489.115	13754
489.191	10480
489.267	7214
489.343	7422
489.418	7189
489.494	7199
489.570	5880
489.646	8269
489.722	6421
489.797	7038
489.873	8996
489.949	12800
490.024	10031
490.100	7224
490.176	7170
490.251	7760
490.327	7183
490.403	7410
490.478	7980
490.554	7062
490.629	6835
490.705	7186
490.781	7365
490.856	6439
490.932	7049
491.007	6553
491.083	6475
491.158	6228
491.234	7298
491.309	10001
491.385	9242
491.460	5935
491.536	7349
491.611	6110
491.686	5773
491.762	7593
491.837	8018
491.913	11348
491.988	14017
492.063	14659
492.139	9186
492.214	6952
492.289	6423
492.365	5933
492.440	7511
492.515	5987
492.590	6109
492.666	5845
492.741	6710
492.816	7176
492.891	6339
492.967	7077
493.042	6180
493.117	6564
493.192	7586
493.267	13741
493.342	32724
493.418	42483
493.493	8190
493.568	6472
493.643	7088
493.718	7426
493.793	6572
493.868	6850
493.943	6244
494.018	6612
494.093	5937
494.168	6311
494.243	5350
494.318	5795
494.393	6361
494.468	6478
494.543	5628
494.618	6078
494.693	6152
494.768	7664
494.842	6413
494.917	6458
494.992	6246
495.067	6334
495.142	5777
495.217	5561
495.292	6413
495.366	6077
495.441	5986
495.516	8213
495.591	8026
495.665	13137
495.740	24121
495.815	12224
495.890	6384
495.964	4265
496.039	9298
496.114	7991
496.188	10265
496.263	8816
496.338	6742
496.412	6569
496.487	7343
496.561	6837
496.636	7410
496.710	6674
496.785	6705
496.860	7242
496.934	5695
497.009	7045
497.083	6751
497.158	7835
497.232	7903
497.307	8766
497.381	9436
497.455	8885
497.530	8559
497.604	7159
497.679	7138
497.753	9426
497.827	9012
497.902	8923
497.976	11191
498.050	19657
498.125	58713
498.199	50704
498.273	12069
498.348	10896
498.422	9840
498.496	11245
498.570	11547
498.645	7597
498.719	5915
498.793	7617
498.867	8296
498.941	9922
499.016	25741
499.090	57661
499.164	19009
499.238	8078
499.312	7949
499.386	8868
499.460	8527
499.534	9604
499.609	11795
499.683	10486
499.757	7910
499.831	12614
499.905	37512
499.979	31138
500.053	8166
500.127	8323
500.201	6947
500.275	7812
500.349	7952
500.422	8331
500.496	9295
500.570	14474
500.644	28176
500.718	40904
500.792	10089
500.866	6246
500.940	6522
501.013	6432
501.087	5387
501.161	6066
501.235	6211
501.309	14954
501.382	30856
501.456	24266
501.530	8768
501.603	11227
501.677	6156
501.751	3868
501.825	7119
501.898	6701
501.972	12375
502.046	8359
502.119	4423
502.193	9031
502.266	13179
502.340	7252
502.413	7477
502.487	12815
502.561	7660
502.634	5588
502.708	5663
502.781	4993
502.855	5577
502.928	3978
503.002	5278
503.075	4310
503.149	4734
503.222	5154
503.295	5262
503.369	5895
503.442	6482
503.516	13848
503.589	23619
503.662	16357
503.736	12166
503.809	21145
503.882	21026
503.956	35574
504.029	67744
504.102	200183
504.175	285432
504.249	92994
504.322	30266
504.395	16042
504.468	11037
504.542	8376
504.615	6173
504.688	6462
504.761	3658
504.834	6379
504.907	5304
504.980	6328
505.053	3876
505.127	2871
505.200	6928
505.273	4652
505.346	3872
505.419	3843
505.492	5261
505.565	3639
505.638	3287
505.711	3080
505.784	2330
505.857	3089
505.930	4995
506.003	2611
506.076	5353
506.149	3221
506.221	2245
506.294	5366
506.367	5168
506.440	16985
506.513	8872
506.586	4013
506.659	2579
506.731	3436
506.804	3258
506.877	3117
506.950	3571
507.022	4560
507.095	821
507.168	4740
507.241	4278
507.313	3060
507.386	2077
507.459	4427
507.531	2987
507.604	2614
507.677	3512
507.749	1961
507.822	4556
507.894	4028
507.967	6493
508.040	4543
508.112	4374
508.185	4206
508.257	1968
508.330	5843
508.402	3455
508.475	4009
508.547	4641
508.620	4943
508.692	4690
508.765	4388
508.837	2762
508.909	4648
508.982	3867
509.054	3958
509.127	3747
509.199	3238
509.271	2529
509.344	4259
509.416	3030
509.488	3157
509.560	3792
509.633	3370
509.705	3676
509.777	3498
509.849	4521
509.922	2762
509.994	3643
510.066	4726
510.138	2566
510.210	7983
510.283	5651
510.355	5374
510.427	5107
510.499	4071
510.571	3957
510.643	3183
510.715	5809
510.787	2538
510.859	4951
510.931	4181
511.003	4354
511.076	5529
511.148	3763
511.219	4231
511.291	5529
511.363	5961
511.435	5013
511.507	3485
511.579	5185
511.651	5234
511.723	3164
511.795	4115
511.867	2743
511.939	4271
512.010	5084
512.082	5151
512.154	2985
512.226	4573
512.298	5364
512.369	5912
512.441	6246
512.513	5213
512.585	3624
512.656	5241
512.728	4094
512.800	4224
512.871	4636
512.943	5001
513.015	3292
513.086	4335
513.158	4996
513.230	3464
513.301	5079
513.373	5439
513.444	3837
513.516	4488
513.588	3809
513.659	5049
513.731	4642
513.802	3926
513.874	7257
513.945	6532
514.016	3369
514.088	4864
514.159	3646
514.231	5824
514.302	6139
514.374	5989
514.445	4155
514.516	7936
514.588	4564
514.659	5152
514.730	4857
514.802	6985
514.873	2762
514.944	6878
515.016	5623
515.087	4574
515.158	5150
515.229	6719
515.301	4364
515.372	6534
515.443	4836
515.514	5247
515.585	3857
515.656	5780
515.728	6784
515.799	5582
515.870	6167
515.941	6374
516.012	5709
516.083	8706
516.154	7955
516.225	11568
516.296	13307
516.367	14644
516.438	17648
516.509	22682
516.580	40262
516.651	161631
516.722	505930
516.793	156781
516.864	30108
516.935	29311
517.006	34939
517.077	49144
517.148	132281
517.219	632023
517.289	804057
517.360	107816
517.431	28227
517.502	17025
517.573	16203
517.643	14516
517.714	15053
517.785	17060
517.856	19291
517.926	25580
517.997	30234
518.068	37920
518.138	55306
518.209	102414
518.280	409426
518.350	1247012
518.421	408955
518.492	63516
518.562	39326
518.633	42315
518.703	56948
518.774	133177
518.845	370011
518.915	327026
518.986	81602
519.056	33103
519.127	22847
519.197	20844
519.268	24762
519.338	16550
519.408	9301
519.479	8602
519.549	6340
519.620	9028
519.690	5734
519.760	5451
519.831	5098
519.901	4469
519.971	5225
520.042	5857
520.112	4514
520.182	5843
520.253	5060
520.323	4526
520.393	4510
520.463	7305
520.534	1979
520.604	7479
520.674	6139
520.744	4847
520.814	4769
520.885	6684
520.955	8695
521.025	20945
521.095	8336
521.165	5918
521.235	4056
521.305	3724
521.375	4214
521.445	5568
521.515	3936
521.585	5714
521.655	2865
521.725	6479
521.795	5067
521.865	2517
521.935	6653
522.005	4630
522.075	3989
522.145	6094
522.215	3432
522.285	5367
522.355	5610
522.424	8996
522.494	5712
522.564	5669
522.634	6810
522.704	12934
522.774	5795
522.843	6073
522.913	4070
522.983	4715
523.053	1982
523.122	4789
523.192	4631
523.262	7690
523.331	6759
523.401	5985
523.471	4230
523.540	6154
523.610	4162
523.680	5394
523.749	5292
523.819	5803
523.888	5552
523.958	4869
524.027	4741
524.097	4950
524.166	5430
524.236	4107
524.305	7070
524.375	4084
524.444	3494
524.514	7359
524.583	4555
524.653	3970
524.722	6350
524.791	4301
524.861	5942
524.930	4065
524.999	4614
525.069	7988
525.138	5773
525.207	6279
525.277	7464
525.346	6882
525.415	8768
525.484	9124
525.554	10170
525.623	14545
525.692	16681
525.761	20527
525.830	24668
525.900	32955
525.969	53557
526.038	107140
526.107	243077
526.176	678261
526.245	495623
526.314	141471
526.383	334668
526.452	440142
526.522	651977
526.591	545709
526.660	82862
526.729	48082
526.797	54394
526.867	84980
526.935	273877
527.004	973323
527.073	544500
527.142	66024
527.211	26091
527.280	18222
527.349	13737
527.418	10151
527.487	10148
527.555	7531
527.624	7746
527.693	6297
527.762	8077
527.831	5815
527.899	7275
527.968	5960
528.037	4406
528.106	5546
528.174	7306
528.243	6942
528.312	6141
528.380	5781
528.449	5357
528.518	6990
528.586	4460
528.655	7238
528.723	4766
528.792	4607
528.861	3533
528.929	4567
528.998	5448
529.066	5613
529.135	5781
529.203	5204
529.272	6470
529.340	8106
529.409	9790
529.477	6726
529.545	6113
529.614	9344
529.682	7916
529.751	9267
529.819	11497
529.887	10040
529.956	9459
530.024	10324
530.092	7575
530.161	9560
530.229	8674
530.297	9546
530.365	11141
530.434	10500
530.502	10051
530.570	10679
530.638	7720
530.707	9349
530.775	9097
530.843	8140
530.911	9036
530.979	9463
531.047	9361
531.115	10521
531.183	8686
531.252	9651
531.320	8277
531.388	8909
531.456	9852
531.524	8540
531.592	10499
531.660	13346
531.728	9472
531.796	8890
531.864	10315
531.932	9895
532.000	9033
532.067	10829
532.135	11870
532.203	12789
532.271	13082
532.339	14305
532.407	15515
532.475	13379
532.542	12343
532.610	11990
532.678	11941
532.746	20745
532.814	31276
532.881	15412
532.949	13309
533.017	12136
533.084	11274
533.152	11465
533.220	10848
533.287	10848
533.355	11501
533.423	12496
533.490	11809
533.558	11957
533.625	11553
533.693	11379
533.761	12233
533.828	13648
533.896	10564
533.963	14360
534.031	14346
534.098	17846
534.166	16540
534.233	15669
534.300	17838
534.368	17788
534.435	17280
534.503	18035
534.570	19926
534.637	22081
534.705	26176
534.772	33231
534.840	67454
534.907	302233
534.974	343323
535.041	42609
535.109	19499
535.176	14945
535.243	15164
535.310	16328
535.378	13603
535.445	14204
535.512	14562
535.579	14243
535.646	13644
535.714	14238
535.781	15252
535.848	16175
535.915	15711
535.982	14938
536.049	14626
536.116	14706
536.183	13947
536.250	12634
536.317	12761
536.384	14884
536.451	15400
536.518	15614
536.585	14016
536.652	16569
536.719	16271
536.786	12950
536.853	14304
536.920	15917
536.987	14672
537.053	14313
537.120	24304
537.187	22135
537.254	14791
537.321	15068
537.388	15371
537.454	14767
537.521	14599
537.588	13862
537.654	15443
537.721	16069
537.788	16905
537.855	14196
537.921	15436
537.988	14662
538.055	14930
538.121	12614
538.188	12625
538.254	12359
538.321	14641
538.388	15231
538.454	15022
538.521	16094
538.587	16107
538.654	16350
538.720	14620
538.787	15517
538.853	15156
538.920	14327
538.986	13309
539.053	13108
539.119	13852
539.185	12901
539.252	15507
539.318	14976
539.385	18087
539.451	14728
539.517	15492
539.583	15895
539.650	16815
539.716	19832
539.782	15123
539.849	13505
539.915	15173
539.981	14798
540.047	13350
540.114	14307
540.180	15142
540.246	15603
540.312	16316
540.378	16342
540.444	16954
540.510	18119
540.576	22181
540.643	16127
540.709	13097
540.775	14759
540.841	13822
540.907	14988
540.973	15766
541.039	14483
541.105	16097
541.171	14983
541.237	16254
541.303	17275
541.369	16847
541.435	16228
541.500	15711
541.566	14059
541.632	13604
541.698	14106
541.764	15349
541.830	14945
541.896	14643
541.961	15044
542.027	14477
542.093	16864
542.159	16756
542.224	13805
542.290	16789
542.356	14750
542.421	16095
542.487	14630
542.553	13897
542.618	14802
542.684	13475
542.750	15543
542.815	14842
542.881	15055
542.947	20900
543.012	19049
543.078	13478
543.143	13808
543.209	13962
543.274	14970
543.340	14051
543.405	16268
543.471	17502
543.536	15832
543.602	15258
543.667	14199
543.732	15151
543.798	15129
543.863	15758
543.928	15024
543.994	14571
544.059	15608
544.124	15521
544.190	16319
544.255	17038
544.320	17445
544.386	15969
544.451	17612
544.516	17317
544.581	17211
544.646	20031
544.712	22529
544.777	18525
544.842	17601
544.907	16894
544.972	17410
545.037	17224
545.102	19186
545.168	19173
545.233	19824
545.298	19323
545.363	19178
545.428	20426
545.493	22399
545.558	23087
545.623	21033
545.688	20180
545.753	21813
545.818	22300
545.883	23385
545.947	23352
546.012	25355
546.077	24817
546.142	27997
546.207	27316
546.272	30981
546.337	30059
546.401	32828
546.466	32283
546.531	33709
546.596	36035
546.661	38865
546.725	41213
546.790	43008
546.855	46858
546.919	50081
546.984	56701
547.049	61490
547.113	69953
547.178	78485
547.243	89183
547.307	104488
547.372	115081
547.436	114262
547.501	119344
547.565	131652
547.630	119639
547.695	114245
547.759	114944
547.823	116397
547.888	117574
547.952	123825
548.017	126077
548.081	128871
548.146	127824
548.210	132380
548.274	143183
548.339	139349
548.403	127155
548.468	119739
548.532	118080
548.596	121481
548.660	120165
548.725	132282
548.789	144354
548.853	141618
548.917	133546
548.982	130198
549.046	117649
549.110	105132
549.174	108428
549.238	128405
549.303	139851
549.367	144900
549.431	135764
549.495	128154
549.559	129393
549.623	148686
549.687	164266
549.751	160640
549.815	191959
549.879	194783
549.943	187253
550.007	196487
550.071	195012
550.135	174989
550.199	164645
550.263	162548
550.327	151916
550.391	156873
550.455	173521
550.519	183727
550.582	193712
550.646	222333
550.710	224721
550.774	219997
550.838	223517
550.901	229866
550.965	242781
551.029	252293
551.093	270324
551.156	294010
551.220	332183
551.284	365766
551.347	282495
551.411	242661
551.475	231689
551.538	241259
551.602	225970
551.666	211501
551.729	200565
551.793	195013
551.856	191231
551.920	188640
551.983	189367
552.047	185877
552.110	186926
552.174	188804
552.237	194728
552.301	181144
552.364	171830
552.428	167749
552.491	171840
552.554	176244
552.618	175334
552.681	181499
552.745	177609
552.808	201067
552.871	221367
552.934	191373
552.998	179577
553.061	174599
553.124	167814
553.187	164844
553.251	170094
553.314	170080
553.377	172758
553.440	186353
553.503	204298
553.567	215830
553.630	185971
553.693	184117
553.756	184330
553.819	179978
553.882	173700
553.945	173453
554.008	175707
554.071	177104
554.134	178233
554.197	167718
554.260	163852
554.323	166231
554.386	168250
554.449	176705
554.512	176969
554.575	170402
554.638	165631
554.701	165853
554.764	163700
554.827	157862
554.889	151596
554.952	143261
555.015	139010
555.078	142266
555.141	145744
555.203	141828
555.266	140631
555.329	141340
555.391	134215
555.454	133189
555.517	128792
555.580	122916
555.642	118950
555.705	116617
555.768	115384
555.830	113418
555.893	106138
555.955	104937
556.018	101486
556.080	102795
556.143	106574
556.206	106084
556.268	101105
556.330	99680
556.393	96740
556.455	94983
556.518	90963
556.580	89229
556.643	85899
556.705	84027
556.767	82279
556.830	80757
556.892	78906
556.955	79372
557.017	76717
557.079	76444
557.142	74754
557.204	72609
557.266	74635
557.328	68074
557.391	64052
557.453	61888
557.515	61763
557.577	64857
557.639	64776
557.701	64479
557.764	62712
557.826	64895
557.888	67565
557.950	70240
558.012	76966
558.074	100029
558.136	215304
558.198	458563
558.260	161583
558.322	71630
558.384	71114
558.446	71777
558.508	79242
558.570	88153
558.632	100861
558.694	132139
558.756	220899
558.818	607954
558.880	1159953
558.942	469660
559.003	484674
559.065	222821
559.127	90849
559.189	87376
559.251	98676
559.312	144267
559.374	335851
559.436	907113
559.498	423680
559.559	103132
559.621	86718
559.683	103833
559.744	168979
559.806	512081
559.868	674008
559.929	149908
559.991	98852
560.052	167830
560.114	447166
560.176	271746
560.237	265476
560.299	394916
560.360	85996
560.422	38663
560.483	34165
560.545	31451
560.606	29141
560.667	28543
560.729	27355
560.790	26040
560.852	25227
560.913	24896
560.974	24017
561.036	23878
561.097	23667
561.158	23218
561.220	22895
561.281	22576
561.342	20551
561.403	21391
561.465	21284
561.526	23519
561.587	25614
561.648	19901
561.709	19904
561.771	20070
561.832	19789
561.893	18122
561.954	18358
562.015	18509
562.076	18106
562.137	17770
562.198	17612
562.259	18514
562.320	18029
562.381	18598
562.442	17863
562.503	16956
562.564	16605
562.625	16534
562.686	16313
562.747	16057
562.808	17176
562.869	16453
562.930	16197
562.991	16924
563.051	16071
563.112	15905
563.173	16060
563.234	14463
563.294	15242
563.355	15519
563.416	15344
563.477	15185
563.537	14901
563.598	15215
563.659	14891
563.720	15009
563.780	14197
563.841	14818
563.901	14599
563.962	14780
564.023	14417
564.083	13979
564.144	14128
564.204	13291
564.265	14606
564.325	13911
564.386	14744
564.446	14013
564.507	13624
564.567	13493
564.628	12697
564.688	12714
564.749	12687
564.809	13804
564.869	13896
564.930	12904
564.990	13460
565.050	12671
565.111	12648
565.171	12514
565.231	12796
565.292	14412
565.352	11935
565.412	12059
565.472	12868
565.532	13281
565.593	12205
565.653	13548
565.713	11623
565.773	13302
565.833	13897
565.893	15818
565.953	12972
566.013	12027
566.074	11568
566.134	12792
566.194	12342
566.254	12700
566.314	11990
566.374	11426
566.434	12776
566.494	11923
566.554	11423
566.614	12277
566.673	13111
566.733	13096
566.793	13588
566.853	13435
566.913	13156
566.973	13049
567.033	13254
567.092	12890
567.152	12827
567.212	14566
567.272	13460
567.331	15269
567.391	13868
567.451	14517
567.511	16129
567.570	14543
567.630	14004
567.690	13967
567.749	13262
567.809	13294
567.868	12881
567.928	13762
567.988	13792
568.047	14886
568.107	15593
568.166	16829
568.226	18584
568.285	22588
568.345	19943
568.404	18677
568.464	17880
568.523	16283
568.582	17014
568.642	16475
568.701	18244
568.761	21556
568.820	27844
568.879	27092
568.939	22695
568.998	19727
569.057	17605
569.116	15965
569.176	14440
569.235	14477
569.294	14458
569.353	12916
569.413	14141
569.472	13198
569.531	12444
569.590	12886
569.649	12146
569.708	12456
569.767	14186
569.827	12351
569.886	11809
569.945	12922
570.004	12373
570.063	12631
570.122	13495
570.181	13479
570.240	12785
570.299	12898
570.358	13747
570.417	13821
570.475	12805
570.534	13457
570.593	13063
570.652	14491
570.711	13414
570.770	13773
570.829	13098
570.887	13218
570.946	13334
571.005	14189
571.064	14994
571.122	16654
571.181	13749
571.240	13329
571.299	11830
571.357	12545
571.416	12439
571.475	11989
571.533	13136
571.592	14188
571.650	13510
571.709	13835
571.768	16167
571.826	17001
571.885	14684
571.943	14143
572.002	12801
572.060	13369
572.119	11673
572.177	12495
572.236	12997
572.294	14882
572.352	14388
572.411	14019
572.469	12270
572.528	12668
572.586	12176
572.644	12029
572.703	11952
572.761	11866
572.819	12299
572.877	11106
572.936	11053
572.994	11386
573.052	10981
573.110	11832
573.169	12421
573.227	12753
573.285	11332
573.343	11860
573.401	11732
573.459	11593
573.517	11774
573.576	12552
573.634	12661
573.692	12905
573.750	11970
573.808	11537
573.866	11875
573.924	11812
573.982	10776
574.040	11907
574.098	11422
574.155	11261
574.213	11233
574.271	11704
574.329	13161
574.387	11352
574.445	10351
574.503	10043
574.560	10524
574.618	10176
574.676	10397
574.734	11334
574.792	10640
574.849	9589
574.907	8950
574.965	10250
575.022	8318
575.080	8621
575.138	8150
575.195	8677
575.253	7927
575.311	9539
575.368	8014
575.426	8418
575.483	9336
575.541	9811
575.598	9090
575.656	9312
575.713	8343
575.771	9619
575.828	8836
575.886	8390
575.943	8560
576.001	8943
576.058	7480
576.115	8179
576.173	8250
576.230	8289
576.287	9479
576.345	9340
576.402	9686
576.459	10426
576.517	8510
576.574	9166
576.631	8153
576.688	8730
576.746	8411
576.803	8318
576.860	7160
576.917	8129
576.974	8040
577.031	8890
577.089	8416
577.146	8094
577.203	6899
577.260	9014
577.317	7564
577.374	6900
577.431	7531
577.488	7880
577.545	7354
577.602	7629
577.659	7269
577.716	8408
577.773	8786
577.830	8549
577.886	7649
577.943	7881
578.000	7867
578.057	8204
578.114	7812
578.171	9101
578.227	9128
578.284	8723
578.341	8393
578.398	7941
578.454	8109
578.511	8293
578.568	7204
578.625	8042
578.681	6747
578.738	7031
578.794	7636
578.851	7665
578.908	8195
578.964	7117
579.021	8277
579.077	7315
579.134	8435
579.190	8308
579.247	7886
579.303	8054
579.360	7601
579.416	7485
579.473	7592
579.529	8034
579.586	7946
579.642	8650
579.698	7956
579.755	8759
579.811	7271
579.867	7946
579.924	8070
579.980	9262
580.036	9418
580.093	10237
580.149	12410
580.205	12968
580.261	10448
580.317	10933
580.374	9150
580.430	10566
580.486	9261
580.542	8440
580.598	9463
580.619	9446
580.654	9427
580.692	9359
580.710	9339
580.765	9235
580.767	9240
580.823	9519
580.838	9658
580.879	10026
580.911	9628
580.935	9349
580.984	9568
580.991	9606
581.047	9924
581.057	9901
581.103	9893
581.130	9894
581.159	9858
581.203	10439
581.215	10617
581.270	9884
581.276	9849
581.326	9508
581.349	9174
581.382	8741
581.422	9324
581.438	9550
581.494	8876
581.494	8873
581.550	9085
581.567	8863
581.606	8282
581.640	9171
581.661	9803
581.713	9710
581.717	9690
581.773	9985
581.786	9770
581.829	9126
581.859	9947
581.885	10700
581.932	9769
581.940	9609
581.996	10278
582.004	10279
582.052	10094
582.077	10052
582.107	10137
582.150	9984
582.163	9911
582.219	10482
582.223	10450
582.274	10090
582.296	10165
582.330	10354
582.368	9739
582.386	9464
582.441	10216
582.441	10217
582.497	10082
582.514	10227
582.552	10734
582.587	10388
582.608	10109
582.659	9647
582.663	9620
582.719	10999
582.732	11022
582.774	11155
582.805	10970
582.830	10787
582.877	11455
582.885	11534
582.941	11787
582.950	11754
582.996	11935
583.023	12172
583.052	12370
583.095	13276
583.107	13550
583.162	13869
583.168	13922
583.218	13913
583.240	13013
583.273	11889
583.313	11610
583.328	11480
583.384	10994
583.385	10970
583.439	10424
583.458	10416
583.494	10166
583.531	10461
583.549	10829
583.603	11021
583.605	11017
583.660	10388
583.676	10409
583.715	10544
583.748	11059
583.770	11291
583.820	10231
583.825	10158
583.881	11069
583.893	11049
583.936	10943
583.965	11003
583.991	10996
584.038	11055
584.046	11063
584.101	10531
584.110	10667
584.156	11565
584.183	11361
584.211	11084
584.255	11104
584.266	11121
584.321	12466
584.328	12442
584.376	12114
584.400	12260
584.431	12649
584.472	12836
584.486	12797
584.541	13458
584.545	13446
584.596	13456
584.617	13660
584.651	14085
584.689	14123
584.706	14030
584.761	15138
584.762	15135
584.816	15308
584.834	15433
584.871	15584
584.906	15770
584.926	15821
584.978	16895
584.980	16956
585.035	19304
585.051	19783
585.090	21161
585.123	22019
585.145	22621
585.195	24802
585.200	25063
585.254	29121
585.267	30234
585.309	34611
585.340	38240
585.364	40791
585.412	46131
585.419	47297
585.473	60451
585.484	64092
585.528	82966
585.556	103302
585.583	141455
585.628	230656
585.637	262090
585.692	536164
585.700	579755
585.747	729136
585.772	623828
585.801	391292
585.845	143240
585.856	112245
585.910	55531
585.917	50260
585.965	38392
585.989	33755
586.019	30584
586.061	27756
586.074	27088
586.128	25577
586.133	25355
586.183	24056
586.205	23899
586.237	23251
586.277	22239
586.292	22211
586.346	22314
586.349	22330
586.401	22454
586.421	22554
586.455	22735
586.493	22869
586.509	23118
586.564	22540
586.565	22581
586.618	26335
586.637	27220
586.672	29249
586.709	32434
586.727	33844
586.781	36459
586.781	36465
586.835	28261
586.853	26341
586.889	24763
586.925	23513
586.944	22983
586.996	22305
586.998	22330
587.052	23119
587.068	23121
587.106	22909
587.140	23033
587.161	23379
587.212	23694
587.215	23700
587.269	23949
587.284	24148
587.323	25158
587.356	25402
587.377	25428
587.427	25958
587.431	26041
587.485	27065
587.499	27137
587.539	27231
587.571	27899
587.593	28970
587.643	30696
587.648	30757
587.702	31154
587.715	31272
587.755	32148
587.786	32555
587.810	32707
587.858	33186
587.864	33340
587.917	34758
587.930	34960
587.971	35729
588.001	36783
588.025	37596
588.073	38363
588.079	38556
588.133	40458
588.145	40923
588.187	43542
588.217	45380
588.241	47198
588.288	50597
588.295	51177
588.348	56743
588.360	57834
588.402	61970
588.431	64781
588.456	68211
588.503	75837
588.510	77156
588.564	88043
588.575	90537
588.617	104091
588.646	114780
588.671	126852
588.718	152865
588.725	160499
588.778	227458
588.789	243615
588.832	366956
588.861	461468
588.886	581038
588.932	827223
588.939	841188
588.993	869419
589.004	861590
589.047	647137
589.075	491699
589.100	384636
589.147	220825
589.154	211978
589.207	159571
589.218	149974
589.261	142574
589.290	140161
589.314	146643
589.361	163301
589.368	171311
589.421	244755
589.433	262577
589.475	414033
589.504	534189
589.528	631398
589.576	799944
589.582	782895
589.635	538067
589.647	482563
589.689	287962
589.718	170427
589.742	141834
589.790	94002
589.795	91824
589.849	74113
589.861	70172
589.902	63567
589.932	58772
589.955	56257
590.004	50835
590.009	50650
590.062	48840
590.075	48238
590.115	45504
590.146	43497
590.168	43167
590.218	42247
590.222	42215
590.275	41275
590.289	41002
590.328	41545
590.360	41728
590.381	41352
590.431	40188
590.435	40254
590.488	40598
590.503	40665
590.541	40315
590.574	40057
590.594	40530
590.645	41244
590.647	41317
590.700	41810
590.716	41914
590.753	42897
590.787	43703
590.806	43729
590.859	43590
590.859	43667
590.912	44604
590.930	44866
590.965	45052
591.001	45219
591.018	45182
591.071	44435
591.072	44358
591.124	43630
591.143	43182
591.177	43419
591.214	43848
591.230	44280
591.283	45306
591.285	45273
591.336	44735
591.356	44408
591.389	44054
591.427	43465
591.442	43574
591.495	43807
591.498	43747
591.547	43464
591.569	43329
591.600	44070
591.640	44827
591.653	45014
591.706	45451
591.711	45434
591.759	46959
591.782	47617
591.811	48548
591.853	49680
591.864	49715
591.917	49439
591.924	49318
591.969	49269
591.995	49069
592.022	49663
592.066	50562
592.075	50802
592.127	51727
592.137	51804
592.180	52813
592.208	53300
592.233	53320
592.279	53194
592.285	53499
592.338	55319
592.350	55636
592.390	55146
592.421	54609
592.443	55634
592.491	57631
592.495	57710
592.548	57419
592.562	57245
592.600	57498
592.633	57534
592.653	57379
592.704	56406
592.705	56775
592.775	59171
592.846	60002
592.916	60443
592.987	61801
593.058	62113
593.128	62003
593.199	63092
593.270	62471
593.341	64669
593.411	67106
593.482	68759
593.553	70073
593.623	71426
593.694	73118
593.764	75151
593.835	72417
593.906	74579
593.976	75444
594.047	77443
594.117	81262
594.188	84289
594.258	83133
594.329	83043
594.399	84385
594.470	89311
594.540	89696
594.611	92008
594.681	91864
594.751	93768
594.822	95686
594.892	99365
594.963	101358
595.033	104771
595.103	107654
595.174	109407
595.244	111845
595.314	116051
595.384	117159
595.455	119572
595.525	124269
595.595	128761
595.665	127197
595.736	125974
595.806	126984
595.876	131626
595.946	130832
596.016	137081
596.087	141317
596.157	140740
596.227	142273
596.297	150405
596.367	159804
596.437	170718
596.507	168340
596.577	170568
596.647	174217
596.717	182564
596.787	185118
596.857	184042
596.927	185690
596.997	186630
597.067	188536
597.137	192321
597.207	193083
597.277	194908
597.347	186759
597.417	180810
597.487	180996
597.557	185422
597.626	188479
597.696	192031
597.766	190722
597.836	180619
597.906	172386
597.975	168486
598.045	170845
598.115	179185
598.185	191409
598.254	213443
598.324	233148
598.394	237872
598.464	228454
598.533	224945
598.603	210404
598.672	202852
598.742	207929
598.812	210433
598.881	215126
598.951	213828
599.020	217002
599.090	225186
599.159	227671
599.229	219872
599.299	215718
599.368	223971
599.437	218995
599.507	203119
599.576	195686
599.646	193986
599.715	191501
599.785	188711
599.854	183273
599.924	180874
599.993	181165
600.062	185974
600.132	190176
600.201	203197
600.270	233424
600.340	245420
600.409	240230
600.478	239626
600.547	242807
600.617	221773
600.686	178881
600.755	163895
600.824	155566
600.894	150797
600.963	152177
601.032	152196
601.101	147699
601.170	140358
601.239	138006
601.308	138756
601.378	138181
601.447	140264
601.516	140848
601.585	142794
601.654	146206
601.723	147861
601.792	150394
601.861	155547
601.930	161655
601.999	165705
602.068	161183
602.137	166058
602.206	166615
602.275	168573
602.343	170415
602.412	171969
602.481	174026
602.550	175987
602.619	179158
602.688	182210
602.756	184266
602.825	185684
602.894	188567
602.963	193841
603.032	196608
603.100	197722
603.169	194810
603.238	199154
603.307	198556
603.375	200508
603.444	203886
603.513	206336
603.581	207066
603.650	211116
603.719	202008
603.787	206665
603.856	212669
603.924	217587
603.993	224637
604.061	234691
604.130	242493
604.198	248631
604.267	252309
604.335	255999
604.404	259155
604.472	267380
604.541	267784
604.609	270628
604.678	270821
604.746	274317
604.815	283042
604.883	285769
604.951	283022
605.020	290107
605.088	291806
605.156	295507
605.225	298724
605.293	299564
605.361	300469
605.429	301638
605.498	307214
605.566	317617
605.634	333128
605.702	343799
605.771	351918
605.839	356015
605.907	344910
605.975	335294
606.043	327955
606.111	329072
606.180	331625
606.248	325298
606.316	322416
606.384	321583
606.452	317425
606.520	322224
606.588	332595
606.656	332836
606.724	328879
606.792	308399
606.860	278916
606.928	255257
606.996	244800
607.064	241141
607.132	246874
607.200	262050
607.267	269807
607.335	275312
607.403	281117
607.471	272299
607.539	265892
607.607	263811
607.674	233133
607.742	234246
607.810	231040
607.878	233991
607.946	238951
608.013	248283
608.081	253472
608.149	256614
608.216	263815
608.284	274827
608.352	274598
608.419	270483
608.487	264691
608.555	260288
608.622	269247
608.690	287161
608.757	315260
608.825	320659
608.893	309553
608.960	291955
609.028	278568
609.095	281085
609.163	279386
609.230	252083
609.298	228817
609.365	242069
609.432	261217
609.500	285848
609.567	325501
609.635	372352
609.702	389336
609.769	368550
609.837	287698
609.904	249953
609.971	255632
610.039	278909
610.106	342302
610.173	577271
610.241	1136442
610.308	693347
610.375	318086
610.442	271146
610.509	258995
610.577	261095
610.644	264055
610.711	270944
610.778	278636
610.845	291930
610.912	307290
610.980	322700
611.047	323654
611.114	315168
611.181	305144
611.248	304456
611.315	321878
611.382	329672
611.449	341486
611.516	346874
611.583	339855
611.650	343952
611.717	347431
611.784	354728
611.851	364041
611.918	381835
611.984	429866
612.051	549776
612.118	900951
612.185	1708310
612.252	1199651
612.319	529452
612.386	445288
612.452	412501
612.519	391142
612.586	383783
612.653	389842
612.719	402843
612.786	386126
612.853	359289
612.919	355678
612.986	359247
613.053	338311
613.120	317757
613.186	306237
613.253	311326
613.319	309101
613.386	310793
613.453	318950
613.519	317936
613.586	312534
613.652	320369
613.719	314909
613.785	321032
613.852	322550
613.918	317911
613.985	326330
614.051	339316
614.118	344969
614.184	330372
614.250	319761
614.317	326246
614.383	322759
614.449	329870
614.516	325486
614.582	329074
614.648	320356
614.715	322380
614.781	313140
614.847	311549
614.914	309600
614.980	303030
615.046	305703
615.112	314808
615.179	313545
615.245	319895
615.311	313963
615.377	321433
615.443	324638
615.509	326535
615.575	334588
615.642	333389
615.708	340527
615.774	352926
615.840	368889
615.906	388054
615.972	447674
616.038	608014
616.104	1050434
616.170	1858513
616.236	1583834
616.302	690598
616.368	556988
616.434	429073
616.500	391040
616.565	429853
616.631	526517
616.697	441797
616.763	452975
616.829	631785
616.895	1039627
616.961	969603
617.026	477435
617.092	355914
617.158	337596
617.224	329259
617.289	305038
617.355	292490
617.421	289152
617.487	288694
617.552	276082
617.618	272092
617.684	272250
617.749	275991
617.815	264381
617.880	259126
617.946	259210
618.012	263306
618.077	269548
618.143	258928
618.208	259706
618.274	281571
618.339	280538
618.405	234829
618.470	232464
618.536	233638
618.601	227495
618.667	214725
618.732	203666
618.798	202619
618.863	200749
618.928	198703
618.994	202870
619.059	201471
619.124	202212
619.190	200548
619.255	199643
619.320	199565
619.386	201391
619.451	196976
619.516	192948
619.581	195599
619.647	201658
619.712	202422
619.777	190892
619.842	196170
619.907	199631
619.972	201243
620.038	198876
620.103	194690
620.168	193592
620.233	199745
620.298	199220
620.363	202660
620.428	206299
620.493	211525
620.558	215041
620.623	217287
620.688	215938
620.753	214274
620.818	218943
620.883	218564
620.948	219181
621.013	215583
621.078	212520
621.143	214325
621.207	218507
621.272	213769
621.337	206847
621.402	206200
621.467	203710
621.532	206426
621.596	204555
621.661	197914
621.726	196752
621.791	199509
621.855	199118
621.920	196160
621.985	200317
622.049	205771
622.114	203785
622.179	207680
622.243	210176
622.308	218677
622.373	226825
622.437	222325
622.502	209412
622.566	209539
622.631	206784
622.695	211794
622.760	209122
622.824	209720
622.889	209897
622.953	210252
623.018	224871
623.082	224151
623.147	220102
623.211	217731
623.276	217418
623.340	207061
623.404	202780
623.469	202186
623.533	205651
623.597	202118
623.662	197803
623.726	185817
623.790	175551
623.854	171926
623.919	174003
623.983	175961
624.047	179921
624.111	179887
624.176	183127
624.240	183569
624.304	191251
624.368	183099
624.432	182845
624.496	188755
624.560	195270
624.625	198487
624.689	197059
624.753	204986
624.817	196805
624.881	191393
624.945	173036
625.009	167861
625.073	170523
625.137	175983
625.201	184487
625.265	183328
625.329	176444
625.393	177509
625.456	179527
625.520	184243
625.584	186620
625.648	190913
625.712	196436
625.776	199079
625.839	187958
625.903	158567
625.967	148363
626.031	157481
626.095	185746
626.158	170703
626.222	135554
626.286	127231
626.349	122032
626.413	114233
626.477	113934
626.540	116062
626.604	113808
626.668	113140
626.731	110587
626.795	110731
626.858	110109
626.922	108048
626.986	106853
627.049	108003
627.113	111405
627.176	108794
627.240	105169
627.303	105134
627.366	104018
627.430	105912
627.493	104385
627.557	101227
627.620	104591
627.684	110530
627.747	108319
627.810	100470
627.874	90181
627.937	87065
628.000	90997
628.064	87763
628.127	78395
628.190	78900
628.253	74097
628.317	72364
628.380	68816
628.443	67889
628.506	67247
628.569	64390
628.632	60654
628.696	61216
628.759	61526
628.822	58930
628.885	58115
628.948	57784
629.011	54295
629.074	54222
629.137	51720
629.200	50386
629.263	50817
629.326	49649
629.389	49079
629.452	49587
629.515	47850
629.578	48246
629.641	49352
629.704	48092
629.767	48358
629.830	46861
629.892	46069
629.955	44669
630.018	47183
630.081	45134
630.144	45990
630.207	43843
630.269	46277
630.332	43185
630.395	43391
630.458	41668
630.520	40018
630.583	41622
630.646	42719
630.708	42788
630.771	42431
630.834	46401
630.896	44113
630.959	44728
631.021	42171
631.084	42487
631.146	43442
631.209	44044
631.272	42173
631.334	44334
631.397	44220
631.459	45212
631.522	46981
631.584	48257
631.646	51325
631.709	54292
631.771	53186
631.834	52738
631.896	47723
631.958	45196
632.021	45287
632.083	43169
632.145	41113
632.208	42171
632.270	41747
632.332	40880
632.395	40256
632.457	42051
632.519	39586
632.581	41480
632.643	37814
632.706	40511
632.768	38102
632.830	41224
632.892	41031
632.954	40540
633.016	41199
633.078	41000
633.141	40471
633.203	41164
633.265	40373
633.327	40381
633.389	39893
633.451	41825
633.513	39601
633.575	42253
633.637	40212
633.698	42420
633.760	44793
633.822	46527
633.884	45968
633.946	46773
634.008	48283
634.070	50658
634.132	53322
634.193	57749
634.255	61594
634.317	62983
634.379	61599
634.441	54754
634.502	49667
634.564	47612
634.626	42979
634.687	41657
634.749	39939
634.811	41223
634.873	38166
634.934	39735
634.996	38947
635.057	40034
635.119	39166
635.181	42148
635.242	41218
635.304	40253
635.365	42402
635.427	40263
635.488	40241
635.550	39593
635.611	40548
635.673	39350
635.734	43984
635.796	46063
635.857	50280
635.918	54482
635.980	59953
636.041	63427
636.102	66953
636.164	67097
636.225	64485
636.286	53765
636.348	49310
636.409	45177
636.470	41899
636.531	41264
636.593	39340
636.654	38838
636.715	36172
636.776	37864
636.838	35054
636.899	35900
636.960	34385
637.021	33620
637.082	32155
637.143	34398
637.204	31562
637.265	31803
637.326	33970
637.387	34432
637.448	32559
637.509	34659
637.570	33162
637.631	34139
637.692	31237
637.753	30645
637.814	31718
637.875	30947
637.936	30521
637.997	30618
638.058	30678
638.119	31653
638.179	30026
638.240	30215
638.301	30865
638.362	29099
638.423	29443
638.483	30376
638.544	27376
638.605	29387
638.666	28306
638.726	29401
638.787	29322
638.848	29020
638.908	28458
638.969	27317
639.030	26888
639.090	26648
639.151	26825
639.211	28607
639.272	28230
639.332	29863
639.393	28815
639.453	31141
639.514	31304
639.574	28562
639.635	26568
639.695	26796
639.756	24834
639.816	26704
639.877	24943
639.937	27827
639.997	27334
640.058	25868
640.118	24895
640.178	26615
640.239	25611
640.299	26234
640.359	25558
640.420	28587
640.480	31926
640.540	36250
640.600	35122
640.661	31671
640.721	29686
640.781	31388
640.841	26061
640.901	26812
640.961	25981
641.021	28143
641.082	28348
641.142	27973
641.202	26613
641.262	23396
641.322	25050
641.382	24498
641.442	24478
641.502	24416
641.562	25059
641.622	26510
641.682	27737
641.742	31525
641.802	28790
641.861	25875
641.921	23449
641.981	24844
642.041	22854
642.101	22915
642.161	21358
642.221	23429
642.280	23303
642.340	22233
642.400	22250
642.460	24743
642.519	23510
642.579	23847
642.639	24473
642.698	22482
642.758	26120
642.818	25049
642.877	23517
642.937	24261
642.997	24473
643.056	25467
643.116	22460
643.175	26011
643.235	24294
643.294	25469
643.354	26957
643.414	29569
643.473	33416
643.532	39292
643.592	51522
643.651	78166
643.711	128939
643.770	241723
643.830	548575
643.889	983934
643.948	298752
644.008	74413
644.067	45575
644.126	35895
644.186	30039
644.245	28300
644.304	24756
644.363	27387
644.423	23693
644.482	24643
644.541	26413
644.600	26344
644.659	33612
644.719	42182
644.778	61353
644.837	102744
644.896	204307
644.955	445727
645.014	147873
645.073	41356
645.132	30291
645.191	28748
645.250	26829
645.309	29509
645.368	31979
645.427	43804
645.486	70828
645.545	119832
645.604	37025
645.663	25977
645.722	25007
645.781	26886
645.840	29836
645.898	36404
645.957	49287
646.016	71802
646.075	122653
646.134	232517
646.192	578453
646.251	770663
646.310	154749
646.369	54076
646.427	43618
646.486	33388
646.545	25983
646.603	25263
646.662	23553
646.721	23536
646.779	21839
646.838	23418
646.896	30043
646.955	40860
647.014	62983
647.072	120178
647.131	311091
647.189	145402
647.248	27551
647.306	23217
647.365	20121
647.423	17261
647.481	17835
647.540	15679
647.598	17064
647.657	16268
647.715	17403
647.773	15706
647.832	15853
647.890	15110
647.948	14477
648.007	16004
648.065	12938
648.123	13850
648.181	15929
648.240	14882
648.298	14091
648.356	14726
648.414	14131
648.472	14410
648.531	13403
648.589	12897
648.647	12781
648.705	13585
648.763	13262
648.821	15935
648.879	14069
648.937	16952
648.995	20074
649.053	25481
649.111	36877
649.169	59228
649.227	104613
649.285	218976
649.343	570596
649.401	271154
649.459	44985
649.516	27049
649.574	21053
649.632	27854
649.690	30707
649.748	31364
649.806	45463
649.863	87319
649.921	228619
649.979	146251
650.037	22435
650.094	13525
650.152	13682
650.210	12229
650.268	11587
650.325	11417
650.383	10635
650.440	9485
650.498	10416
650.556	9854
650.613	9078
650.671	10740
650.728	9547
650.786	11732
650.843	15635
650.901	10984
650.958	9022
651.016	9086
651.073	8099
651.131	7879
651.188	7065
651.246	8747
651.303	6606
651.360	8603
651.418	6401
651.475	7815
651.532	6434
651.590	8408
651.647	6224
651.704	7307
651.762	7179
651.819	7480
651.876	6457
651.933	7393
651.990	7065
652.048	6413
652.105	6397
652.162	7430
652.219	6738
652.276	6964
652.333	6701
652.390	5904
652.448	7405
652.505	7183
652.562	5723
652.619	6517
652.676	8120
652.733	9064
652.790	6281
652.847	4716
652.904	6483
652.961	5484
653.017	4483
653.074	6791
653.131	6064
653.188	5727
653.245	6321
653.302	6989
653.359	5748
653.415	6990
653.472	5817
653.529	6624
653.586	4837
653.642	5909
653.699	5231
653.756	5641
653.813	5351
653.869	7083
653.926	5107
653.983	5654
654.039	5148
654.096	5011
654.152	5507
654.209	5154
654.266	5871
654.322	5455
654.379	5580
654.435	5749
654.492	5012
654.548	5862
654.605	4703
654.661	6778
654.717	5320
654.774	5265
654.830	5306
654.887	5371
654.943	5255
655.000	6161
655.056	6634
655.112	5981
655.168	4052
655.225	6198
655.281	5275
655.337	6293
655.394	5391
655.450	6393
655.506	5132
655.562	5841
655.618	5828
655.675	4921
655.731	4261
655.787	5099
655.843	5162
655.899	4927
655.955	5224
656.011	6057
656.067	4159
656.123	5446
656.179	4352
656.235	6049
656.291	3357
656.347	6723
656.403	4161
656.459	5335
656.515	5090
656.571	4564
656.627	5069
656.683	4697
656.739	4711
656.795	4907
656.850	4373
656.906	5522
656.962	5080
657.018	5476
657.074	7757
657.129	10915
657.185	15043
657.241	37578
657.297	18800
657.352	6387
657.408	4391
657.464	6177
657.519	3447
657.575	3574
657.630	4410
657.686	4117
657.742	4225
657.797	4092
657.853	3932
657.908	5026
657.964	3469
658.019	4369
658.075	3968
658.130	4944
658.186	2353
658.241	5064
658.297	2687
658.352	4384
658.407	4119
658.463	3382
658.518	4395
658.573	4253
658.629	2983
658.684	3716
658.739	3814
658.795	3290
658.850	4057
658.905	3103
658.960	3997
659.016	3183
659.071	3185
659.126	4166
659.181	3535
659.236	5974
659.291	4386
659.346	4184
659.401	3966
659.457	5147
659.512	4043
659.567	4722
659.622	3461
659.677	4478
659.732	3359
659.787	4765
659.842	3233
659.897	4328
659.952	3785
660.007	4464
660.061	3905
660.116	3624
660.171	2681
660.226	4655
660.281	4518
660.336	3342
660.391	3344
660.445	2992
660.500	3078
660.555	4550
660.610	2732
660.664	4446
660.719	3249
660.774	3925
660.828	4150
660.883	4282
660.938	3175
660.992	2863
661.047	3289
661.101	3720
661.156	2892
661.211	3922
661.265	3207
661.320	3698
661.374	3689
661.429	2697
661.483	3792
661.538	2190
661.592	2939
661.647	3283
661.701	3170
661.755	3797
661.810	3296
661.864	3413
661.919	3515
661.973	4276
662.027	2224
662.081	3612
662.136	2626
662.190	3934
662.244	2869
662.299	2404
662.353	3303
662.407	3946
662.461	1929
662.515	3703
662.569	2493
662.624	3265
662.678	2824
662.732	3426
662.786	3062
662.840	2862
662.894	2806
662.948	2727
663.002	2949
663.056	3662
663.110	2526
663.164	3077
663.218	2569
663.272	4036
663.326	3240
663.380	2903
663.434	2771
663.488	3015
663.542	3291
663.595	3324
663.649	2551
663.703	3597
663.757	3161
663.811	2337
663.864	2221
663.918	3966
663.972	3135
664.026	3327
664.079	2756
664.133	4002
664.187	3579
664.240	3403
664.294	2955
664.348	3653
664.401	2875
664.455	2555
664.508	2551
664.562	3275
664.615	2925
664.669	2422
664.722	2590
664.776	3540
664.829	2756
664.883	2861
664.936	2809
664.990	2571
665.043	3518
665.097	2298
665.150	3310
665.203	2831
665.257	2096
665.310	3312
665.363	2698
665.417	3222
665.470	2961
665.523	4061
665.576	2852
665.630	3713
665.683	3446
665.736	3389
665.789	3710
665.842	4276
665.895	2993
665.949	3702
666.002	2712
666.055	3270
666.108	3587
666.161	3852
666.214	3361
666.267	3976
666.320	3167
666.373	4542
666.426	3320
666.479	3533
666.532	4063
666.585	3259
666.638	3721
666.691	4292
666.744	3820
666.796	4095
666.849	2505
666.902	4136
666.955	3461
667.008	3445
667.060	2704
667.113	4001
667.166	3114
667.219	4806
667.271	3971
667.324	4233
667.377	3539
667.430	4098
667.482	4041
667.535	4028
667.587	3452
667.640	4353
667.693	3227
667.745	4070
667.798	4150
667.850	4262
667.903	2957
667.955	4389
668.008	3755
668.060	3395
668.113	3130
668.165	3803
668.218	3614
668.270	4001
668.322	3241
668.375	3935
668.427	3192
668.479	3364
668.532	3649
668.584	3828
668.636	2846
668.689	3664
668.741	2584
668.793	3881
668.845	2811
668.898	3733
668.950	3015
669.002	4262
669.054	3063
669.106	3514
669.158	3291
669.211	3367
669.263	2497
669.315	3703
669.367	3101
669.419	3496
669.471	3452
669.523	3566
669.575	3677
669.627	3130
669.679	3196
669.731	4079
669.783	3320
669.835	3534
669.886	2598
669.938	3340
669.990	3253
670.042	3086
670.094	3132
670.146	3864
670.197	3236
670.249	4978
670.301	3459
670.353	5001
670.404	6121
670.456	7519
670.508	11450
670.560	20010
670.611	30115
670.663	53258
670.715	125131
670.766	191577
670.818	51070
670.869	10851
670.921	7442
670.972	6075
671.024	4571
671.075	3889
671.127	3635
671.178	4731
671.230	4286
671.281	5276
671.333	4398
671.384	6377
671.436	8681
671.487	13696
671.538	18837
671.590	31223
671.641	51461
671.692	93496
671.744	172864
671.795	115787
671.846	37889
671.897	18343
671.949	10532
672.000	8437
672.051	5893
672.102	5734
672.153	3796
672.204	3912
672.256	4136
672.307	3557
672.358	3337
672.409	3082
672.460	3005
672.511	2752
672.562	2601
672.613	2365
672.664	1858
672.715	2513
672.766	2559
672.817	2410
672.868	2299
672.919	2851
672.970	2449
673.021	2610
673.071	1589
673.122	2673
673.173	1778
673.224	1671
673.275	1831
673.326	1898
673.376	2454
673.427	2088
673.478	1697
673.528	3281
673.579	1800
673.630	2728
673.680	2631
673.731	2513
673.782	2024
673.832	2037
673.883	1756
673.934	1927
673.984	2156
674.035	1583
674.085	1773
674.136	3114
674.186	2462
674.237	1957
674.287	1676
674.338	2229
674.388	2184
674.438	2431
674.489	2973
674.539	3364
674.589	1885
674.640	2740
674.690	2068
674.740	3226
674.791	1498
674.841	2402
674.891	754
674.942	1701
674.992	1593
675.042	1558
675.092	1487
675.142	2150
675.193	1180
675.243	1527
675.293	2437
675.343	1715
675.393	1952
675.443	2508
675.493	1491
675.543	1820
675.593	600
675.643	2407
675.693	2114
675.743	2002
675.793	696
675.843	1148
675.893	1612
675.943	1467
675.993	846
676.043	1152
676.093	1489
676.142	989
676.192	1992
676.242	602
676.292	1010
676.341	1685
676.391	1441
676.441	1592
676.491	-89
676.540	1274
676.590	708
676.640	1361
676.689	272
676.739	-207
676.789	634
676.838	1113
676.888	587
676.937	909
676.987	70
677.037	1208
677.086	822
677.136	915
677.185	126
677.235	688
677.284	462
677.333	2080
677.383	207
677.432	760
677.482	381
677.531	921
677.580	290
677.630	760
677.679	124
677.728	589
677.778	1096
677.827	1384
677.876	857
677.925	1278
677.975	692
678.024	1522
678.073	943
678.122	1186
678.171	1185
678.220	1536
678.269	2036
678.319	2439
678.368	2209
678.417	1967
678.466	1281
678.515	1553
678.564	-51
678.613	383
678.662	-148
678.711	762
678.760	533
678.809	1606
678.857	446
678.906	1371
678.955	544
679.004	1249
679.053	224
679.102	708
679.151	763
679.199	769
679.248	1005
679.297	1704
679.346	512
679.394	993
679.443	433
679.492	780
679.540	736
679.589	1353
679.638	144
679.686	1033
679.735	1051
679.784	1688
679.832	1276
679.881	1931
679.929	582
679.978	1267
680.026	120
680.075	790
680.123	21
680.172	677
680.220	278
680.268	1060
680.317	-799
680.365	238
680.414	1
680.462	839
680.510	241
680.559	695
680.607	315
680.655	937
680.703	318
680.752	1272
680.800	-480
680.848	833
680.896	-191
680.945	521
680.993	-236
681.041	610
681.089	295
681.137	867
681.185	-808
681.233	714
681.258	214
681.281	-292
681.329	685
681.377	-437
681.380	-313
681.425	1338
681.473	1281
681.502	1516
681.521	1619
681.569	1045
681.617	2006
681.624	1878
681.665	776
681.713	1915
681.745	478
681.761	-253
681.809	1220
681.857	1786
681.867	1965
681.904	2439
681.952	1051
681.989	1800
682.000	1981
682.048	1415
682.096	2155
682.111	2060
682.143	1745
682.191	1292
682.233	2125
682.239	2217
682.286	1667
682.334	1097
682.354	1414
682.382	1780
682.430	2084
682.476	2687
682.477	2670
682.525	1995
682.572	2486
682.598	2228
682.620	1968
682.667	1947
682.715	1377
682.720	1580
682.763	3137
682.810	2079
682.841	2525
682.857	2710
682.905	1641
682.952	3290
682.963	3113
683.000	2382
683.047	3263
683.085	3162
683.095	3105
683.142	3565
683.190	3545
683.206	3383
683.237	2975
683.284	3216
683.328	3473
683.332	3475
683.379	3353
683.426	3663
683.449	3537
683.473	3365
683.521	4092
683.568	3908
683.571	3938
683.615	3876
683.662	3674
683.693	3680
683.709	3682
683.757	3490
683.804	3564
683.814	3516
683.851	3207
683.898	4530
683.936	4150
683.945	4043
683.992	4457
684.039	4147
684.057	4314
684.086	4476
684.133	3857
684.179	4142
684.180	4134
684.227	4154
684.274	5296
684.300	5074
684.321	4894
684.368	5369
684.415	4920
684.422	5037
684.462	5426
684.509	3856
684.543	4462
684.556	4708
684.603	5108
684.649	5215
684.665	5114
684.696	4827
684.743	5975
684.786	5406
684.790	5338
684.837	6146
684.883	5007
684.908	5453
684.930	5890
684.977	6378
685.023	5890
685.029	5954
685.070	6113
685.117	5782
685.150	5482
685.164	5370
685.210	6573
685.257	6128
685.272	6285
685.303	6561
685.350	6212
685.393	5999
685.396	5962
685.443	5609
685.490	6080
685.514	5677
685.536	5400
685.583	5712
685.629	6200
685.636	6190
685.675	6054
685.722	6719
685.757	6678
685.768	6620
685.815	5806
685.861	6880
685.878	6766
685.908	6674
685.954	7402
686.000	6285
686.000	6258
686.047	7374
686.093	6889
686.121	7422
686.139	7743
686.185	7146
686.232	7561
686.242	7498
686.278	7120
686.324	7595
686.363	6975
686.370	6888
686.416	7744
686.463	8114
686.484	8005
686.509	7807
686.555	6991
686.601	7380
686.606	7394
686.647	7511
686.693	7607
686.727	7260
686.739	7162
686.785	7914
686.831	7877
686.848	8126
686.877	8466
686.923	7491
686.969	8218
686.969	8222
687.015	7720
687.061	8533
687.090	8979
687.107	9134
687.153	8940
687.199	9013
687.211	8882
687.245	8467
687.291	7346
687.332	8848
687.336	9029
687.382	8455
687.428	9050
687.453	9135
687.474	9078
687.520	9401
687.565	9005
687.574	9055
687.611	9495
687.657	9387
687.695	10084
687.702	10229
687.748	10650
687.794	11283
687.816	11380
687.839	11053
687.885	10849
687.931	9384
687.937	9464
687.976	10346
688.022	9409
688.058	9993
688.067	10150
688.113	9750
688.158	9833
688.179	9812
688.204	9772
688.249	10080
688.295	10231
688.300	10195
688.340	10075
688.386	9979
688.421	9962
688.431	9979
688.477	10208
688.522	10992
688.542	10716
688.567	10511
688.613	11411
688.658	11479
688.663	11568
688.703	11793
688.749	10812
688.784	10924
688.794	11033
688.839	10816
688.884	11252
688.905	10981
688.930	10604
688.975	11235
689.020	10229
689.026	10281
689.065	10859
689.110	10318
689.146	10910
689.155	11101
689.201	10998
689.246	11629
689.267	11496
689.291	11177
689.336	11502
689.381	10723
689.388	10702
689.426	10948
689.471	11215
689.509	10904
689.516	10862
689.561	11329
689.606	11451
689.630	11292
689.651	11098
689.696	11421
689.741	11492
689.750	11554
689.785	12140
689.830	11879
689.871	12487
689.875	12497
689.920	12017
689.965	11668
689.992	11230
690.010	11201
690.054	11617
690.099	11582
690.112	11635
690.144	11668
690.189	11255
690.233	11754
690.233	11775
690.278	11807
690.323	12131
690.354	12066
690.367	12095
690.412	12894
690.457	12184
690.474	12711
690.501	13336
690.546	12771
690.590	12782
690.595	12681
690.635	12194
690.680	12523
690.716	12554
690.724	12721
690.769	13888
690.813	15096
690.836	15352
690.857	16679
690.902	19902
690.946	23069
690.957	23747
690.991	29479
691.035	38126
691.077	45586
691.080	45483
691.124	41079
691.168	36799
691.198	34012
691.213	31947
691.257	25461
691.301	19832
691.318	17253
691.346	16464
691.390	15718
691.434	14985
691.439	14849
691.478	14619
691.522	14398
691.559	14324
691.567	14399
691.611	14556
691.655	15267
691.680	14919
691.699	14461
691.743	14446
691.787	13839
691.800	13660
691.831	13631
691.875	13752
691.919	13798
691.921	13771
691.964	13685
692.008	13706
692.041	13302
692.052	13205
692.096	13677
692.139	13452
692.162	13388
692.183	13384
692.227	13422
692.271	13447
692.282	13310
692.315	13122
692.359	13667
692.402	13447
692.403	13472
692.447	13668
692.490	13424
692.523	13606
692.534	13734
692.578	13614
692.622	13704
692.643	13517
692.666	13295
692.709	13423
692.753	13075
692.763	13033
692.797	13148
692.840	13371
692.884	13762
692.884	13797
692.928	13837
692.971	14293
693.004	14493
693.015	14484
693.059	14795
693.102	14436
693.124	14340
693.146	14408
693.189	14647
693.233	14666
693.245	14654
693.276	15021
693.320	15923
693.363	16284
693.365	16268
693.407	17033
693.450	17609
693.485	18321
693.493	18788
693.537	20566
693.580	22731
693.605	23885
693.624	26621
693.667	33126
693.710	39461
693.725	41829
693.753	54423
693.797	73382
693.840	93242
693.845	95271
693.883	85642
693.926	74742
693.966	64788
693.970	63532
694.013	49878
694.056	35457
694.086	25700
694.099	25012
694.142	22326
694.185	19834
694.206	18666
694.229	18454
694.272	17937
694.315	17200
694.326	17087
694.358	17072
694.401	16389
694.444	16282
694.446	16219
694.487	16133
694.530	16236
694.566	16154
694.573	16182
694.616	15940
694.659	15959
694.686	16078
694.702	16330
694.745	16428
694.787	16901
694.806	16909
694.830	16646
694.873	16320
694.916	16012
694.926	15895
694.959	16123
695.002	16277
695.044	16571
695.046	16540
695.087	17113
695.130	17577
695.166	17977
695.172	18007
695.215	18067
695.258	17873
695.286	17808
695.301	17994
695.343	18165
695.386	18801
695.406	18864
695.428	19282
695.471	20151
695.514	21001
695.526	21212
695.556	22563
695.599	24269
695.641	26410
695.646	26503
695.684	25013
695.726	23731
695.766	22349
695.769	22363
695.811	21808
695.854	21212
695.886	20742
695.896	20932
695.938	21418
695.981	22131
696.005	22405
696.023	22986
696.065	24132
696.108	25662
696.125	26114
696.150	26447
696.192	26846
696.235	27425
696.245	27449
696.277	27421
696.319	27492
696.361	27458
696.365	27394
696.404	27093
696.446	26501
696.485	26122
696.488	26210
696.530	26272
696.572	26430
696.604	26441
696.614	26409
696.656	26153
696.698	25792
696.724	25494
696.740	25830
696.783	26565
696.825	27434
696.844	27638
696.867	27473
696.909	27090
696.951	26732
696.964	26583
696.992	26827
697.034	26998
697.076	27214
697.083	27169
697.118	28024
697.160	29030
697.202	30026
697.203	29976
697.244	29536
697.286	28965
697.323	28442
697.327	28535
697.369	28595
697.411	28796
697.442	28741
697.453	28793
697.494	28808
697.536	28785
697.562	28754
697.578	28856
697.620	28817
697.661	28879
697.682	28772
697.703	29293
697.744	30250
697.786	31231
697.801	31498
697.828	31329
697.869	30922
697.911	30497
697.921	30314
697.952	30454
697.994	30508
698.035	30578
698.040	30520
698.077	30560
698.118	30336
698.160	30222
698.160	30141
698.201	30914
698.243	31699
698.279	32268
698.284	32459
698.325	33495
698.367	34464
698.399	35171
698.408	35386
698.449	35936
698.491	36478
698.518	36712
698.532	36704
698.573	36437
698.614	36159
698.638	35916
698.656	36101
698.697	36281
698.738	36476
698.757	36461
698.779	36381
698.820	36076
698.862	35733
698.877	35524
698.903	35746
698.944	35920
698.985	36119
698.996	36075
699.026	36225
699.067	36308
699.116	36311
699.235	34964
699.354	33973
699.474	32053
699.593	33106
699.713	33838
699.832	32997
699.951	35429
700.070	34324
700.190	31461
700.309	31356
700.428	30590
700.547	30124
700.667	29909
700.786	30137
700.905	29572
701.024	30254
701.143	28366
701.262	30738
701.381	32060
701.500	30468
701.619	29982
701.738	30708
701.857	31298
701.976	28961
702.095	30048
702.214	31058
702.333	29101
702.452	31160
702.571	30745
702.690	31240
702.809	30698
702.928	28875
703.047	26934
703.165	28559
703.284	28033
703.403	27619
703.522	26882
703.640	25677
703.759	26079
703.878	26096
703.997	26420
704.115	27190
704.234	27102
704.353	26776
704.471	23796
704.590	23855
704.708	25058
704.827	23488
704.946	23322
705.064	24212
705.183	24231
705.301	24585
705.420	24294
705.538	23876
705.656	22472
705.775	22403
705.893	28638
706.012	30857
706.130	22823
706.249	23774
706.367	22124
706.485	21650
706.604	22265
706.722	22103
706.840	23838
706.958	26564
707.077	22300
707.195	20751
707.313	20308
707.431	19878
707.549	20445
707.668	19488
707.786	22451
707.904	20691
708.022	21206
708.140	19231
708.258	19377
708.376	21133
708.494	19082
708.612	21321
708.730	21726
708.848	20246
708.966	20821
709.084	21651
709.202	20263
709.320	18605
709.438	19408
709.556	19277
709.674	17497
709.791	18735
709.909	18044
710.027	18194
710.145	17892
710.263	16996
710.380	16623
710.498	16660
710.616	17836
710.733	16454
710.851	17028
710.969	17459
711.086	17227
711.204	17514
711.322	16101
711.439	16430
711.557	15466
711.674	16687
711.792	16243
711.909	16562
712.027	17445
712.144	15908
712.262	15946
712.379	15709
712.497	17355
712.614	16683
712.732	17021
712.849	15940
712.966	16683
713.084	16998
713.201	15370
713.318	16219
713.436	17418
713.553	17205
713.670	17713
713.787	16966
713.905	16910
714.022	17281
714.139	18926
714.256	23572
714.373	31839
714.490	60494
714.608	162492
714.725	639667
714.842	550312
714.959	58082
715.076	25667
715.193	21201
715.310	19014
715.427	15673
715.544	17544
715.661	15921
715.778	14600
715.895	16286
716.011	15240
716.128	15329
716.245	15302
716.362	14996
716.479	12587
716.596	14172
716.713	13716
716.829	12762
716.946	13484
717.063	12082
717.180	12498
717.296	13192
717.413	13266
717.530	12232
717.646	11132
717.763	12163
717.880	11632
717.996	10778
718.113	12211
718.229	11745
718.346	10689
718.462	11200
718.579	11597
718.695	12183
718.812	12420
718.928	12504
719.045	12102
719.161	11526
719.277	12484
719.394	11923
719.510	11864
719.626	13726
719.743	17108
719.859	27304
719.975	56810
720.092	235996
720.208	463842
720.324	53639
720.440	17834
720.557	14476
720.673	13862
720.789	12453
720.905	15307
721.021	11835
721.137	10518
721.253	10432
721.369	10274
721.486	10781
721.602	10725
721.718	9882
721.834	9720
721.950	10529
722.066	9526
722.181	8746
722.297	10135
722.413	10508
722.529	9284
722.645	9996
722.761	9398
722.877	9837
722.993	10344
723.108	12880
723.224	10939
723.340	9465
723.456	9543
723.571	9103
723.687	8115
723.803	8919
723.918	8937
724.034	8491
724.150	9463
724.265	8196
724.381	9611
724.497	10100
724.612	8310
724.728	8656
724.843	8124
724.959	8960
725.074	9490
725.190	9977
725.305	8116
725.421	8381
725.536	7666
725.651	8956
725.767	7898
725.882	8753
725.997	7531
726.113	9312
726.228	7562
726.343	8106
726.459	8478
726.574	8052
726.689	7652
726.804	7931
726.920	7640
727.035	7883
727.150	8486
727.265	8031
727.380	8270
727.495	8004
727.610	8164
727.725	7915
727.841	8550
727.956	11715
728.071	10245
728.186	7002
728.301	7345
728.416	7937
728.531	7943
728.645	7036
728.760	8025
728.875	7815
728.990	8164
729.105	7096
729.220	7764
729.335	7703
729.449	7872
729.564	7607
729.679	6995
729.794	7841
729.908	8097
730.023	7712
730.138	8369
730.253	7983
730.367	7432
730.482	7741
730.596	8004
730.711	9782
730.826	12102
730.940	11818
731.055	10495
731.169	10239
731.284	10118
731.398	9488
731.513	10610
731.627	12539
731.742	16149
731.856	18663
731.970	18198
732.085	22259
732.199	32736
732.313	55115
732.428	149224
732.542	426481
732.656	220530
732.771	44764
732.885	27084
732.999	24122
733.113	25519
733.227	24904
733.342	22961
733.456	22126
733.570	22013
733.684	21215
733.798	20246
733.912	20713
734.026	20675
734.140	19735
734.254	20095
734.368	19433
734.482	20545
734.596	19442
734.710	18477
734.824	17661
734.938	18947
735.052	17469
735.166	18349
735.280	18308
735.393	17503
735.507	17766
735.621	17577
735.735	17628
735.849	19041
735.962	16661
736.076	17777
736.190	17512
736.303	16420
736.417	17012
736.531	16100
736.644	16553
736.758	16432
736.872	16124
736.985	15968
737.099	15521
737.212	15216
737.326	15490
737.439	16599
737.553	14140
737.666	15198
737.780	14635
737.893	15770
738.007	14503
738.120	14959
738.233	14085
738.347	15121
738.460	13712
738.573	15601
738.687	13799
738.800	14627
738.913	15305
739.026	14618
739.140	14401
739.253	14162
739.366	13288
739.479	13981
739.592	13209
739.705	12846
739.818	15174
739.932	12946
740.045	13810
740.158	13662
740.271	13078
740.384	13022
740.497	11479
740.610	14190
740.723	11859
740.836	11578
740.949	12221
741.062	14582
741.174	12298
741.287	12207
741.400	13158
741.513	11461
741.626	13270
741.739	11633
741.851	11810
741.964	12672
742.077	11877
742.189	10602
742.302	12601
742.415	12193
742.527	11548
742.640	12726
742.753	10506
742.865	11814
742.978	11657
743.090	9728
743.203	11583
743.316	10447
743.428	11345
743.541	11317
743.653	10428
743.766	10676
743.878	10356
743.990	9605
744.103	11039
744.215	10945
744.327	9655
744.440	12604
744.552	10794
744.664	10098
744.777	10537
744.889	10148
745.001	10088
745.113	11103
745.226	9677
745.338	9632
745.450	11147
745.562	9548
745.674	8145
745.786	11288
745.898	10635
746.010	9376
746.122	9831
746.234	9937
746.347	9087
746.459	10331
746.570	8723
746.682	10765
746.794	10222
746.906	8917
747.018	9485
747.130	10373
747.242	8311
747.354	9204
747.466	9466
747.577	9166
747.689	9351
747.801	9492
747.913	8850
748.024	7893
748.136	7421
748.248	8883
748.359	8633
748.471	9187
748.583	7723
748.694	8468
748.806	9433
748.918	8786
749.029	8294
749.141	8530
749.252	9509
749.364	7526
749.475	8138
749.587	8011
749.698	8180
749.809	8255
749.921	8785
750.032	8163
750.144	8345
750.255	6952
750.366	7866
750.478	7314
750.589	8373
750.700	7243
750.811	7820
750.923	7426
751.034	7566
751.145	9029
751.256	7676
751.367	7457
751.479	8202
751.590	7345
751.701	7389
751.812	6846
751.923	6920
752.034	8528
752.145	7374
752.256	7741
752.367	7112
752.478	7115
752.589	8176
752.700	7687
752.811	6385
752.922	6599
753.032	8225
753.143	8467
753.254	7570
753.365	8751
753.476	7505
753.586	7509
753.697	7028
753.808	7229
753.919	6861
754.029	8005
754.140	7034
754.251	7474
754.361	7021
754.472	7437
754.582	6774
754.693	7043
754.804	7972
754.914	7527
755.025	6539
755.135	5963
755.246	7780
755.356	6681
755.466	6282
755.577	6706
755.687	6921
755.798	6622
755.908	6100
756.018	6725
756.129	7427
756.239	7228
756.349	6744
756.460	6515
756.570	7767
756.680	6341
756.790	6544
756.900	7861
757.011	6870
757.121	6514
757.231	6659
757.341	6805
757.451	6600
757.561	6017
757.671	7479
757.781	6880
757.891	6881
758.001	6154
758.111	7650
758.221	7010
758.331	7862
758.441	7284
758.551	7399
758.661	7726
758.771	8539
758.880	7450
758.990	6985
759.100	7127
759.210	7417
759.320	7210
759.429	9013
759.539	8420
759.649	9222
759.758	9361
759.868	9968
759.978	9278
760.087	11114
760.197	9956
760.307	9624
760.416	9245
760.526	9210
760.635	10173
760.745	10416
760.854	11762
760.964	12389
761.073	12330
761.182	11115
761.292	10743
761.401	9987
761.511	8322
761.620	8909
761.729	8943
761.839	8210
761.948	8383
762.057	8134
762.166	9328
762.276	7618
762.385	9870
762.494	8975
762.603	8262
762.712	9034
762.822	9451
762.931	8666
763.040	8495
763.149	10137
763.258	9992
763.367	10380
763.476	10036
763.585	10559
763.694	10394
763.803	11923
763.912	12111
764.021	12648
764.130	13742
764.238	14956
764.347	14758
764.456	15649
764.565	16368
764.674	16599
764.783	18676
764.891	20547
765.000	22574
765.109	25162
765.217	28240
765.326	33220
765.435	39141
765.543	47918
765.652	59748
765.761	78423
765.869	108463
765.978	161329
766.086	253418
766.195	432943
766.303	733240
766.412	757996
766.520	679059
766.629	625917
766.737	361782
766.846	217219
766.954	144538
767.062	103295
767.171	79631
767.279	61791
767.387	49539
767.496	42572
767.604	35909
767.712	32798
767.820	28313
767.928	27354
768.037	25234
768.145	23350
768.253	22079
768.361	21449
768.469	21293
768.577	20852
768.685	23433
768.793	25930
768.901	26974
769.009	30423
769.117	36962
769.225	47454
769.333	65961
769.441	102919
769.549	178136
769.657	350425
769.765	665156
769.873	640495
769.981	550162
770.088	285507
770.196	150583
770.304	94833
770.412	67020
770.519	50861
770.627	40643
770.735	33355
770.842	27827
770.950	25319
771.058	23458
771.165	23979
771.273	22680
771.380	21144
771.488	23012
771.595	23582
771.703	21408
771.810	19017
771.918	18422
772.025	21554
772.133	22913
772.240	21353
772.348	23093
772.455	21695
772.562	20454
772.670	19079
772.777	19385
772.884	18832
772.991	17546
773.099	18361
773.206	17164
773.313	18282
773.420	17567
773.528	16216
773.635	16139
773.742	17454
773.849	16047
773.956	16456
774.063	15228
774.170	15859
774.277	16684
774.384	14768
774.491	14778
774.598	16057
774.705	13985
774.812	15094
774.919	15309
775.026	14652
775.133	13914
775.239	14882
775.346	14429
775.453	14154
775.560	14286
775.667	13548
775.773	13102
775.880	12944
775.987	13127
776.093	13551
776.200	14445
776.307	11411
776.413	12476
776.520	13862
776.627	12122
776.733	11404
776.840	10899
776.946	15147
777.053	11693
777.159	10500
777.266	10664
777.372	11681
777.478	12648
777.585	11737
777.691	10765
777.798	12566
777.904	11078
778.010	11577
778.117	11274
778.223	10770
778.329	10753
778.435	9089
778.542	11671
778.648	9690
778.754	9289
778.860	10311
778.966	10695
779.072	9800
779.178	10531
779.284	9135
779.391	10421
779.497	11157
779.603	12647
779.708	11634
779.815	17374
779.920	51099
780.026	87872
780.132	17112
780.238	9907
780.344	8394
780.450	12564
780.556	7374
780.661	8610
780.767	10523
780.873	6541
780.979	9063
781.085	9252
781.190	8260
781.296	7885
781.402	9259
781.507	8504
781.613	6912
781.719	8203
781.824	9682
781.930	7954
782.035	8075
782.141	9301
782.246	6906
782.352	7112
782.457	7830
782.563	8128
782.668	8490
782.773	6920
782.879	7317
782.984	8756
783.090	7903
783.195	8253
783.300	9613
783.405	6867
783.511	6455
783.616	7334
783.721	8297
783.826	6344
783.932	6621
784.037	7402
784.142	7250
784.247	6098
784.352	7344
784.457	5455
784.562	7518
784.667	7119
784.772	6579
784.877	5282
784.982	8338
785.087	7262
785.192	6387
785.297	6718
785.402	6649
785.507	6160
785.611	6819
785.716	4676
785.821	5456
785.926	6757
786.031	6584
786.135	6717
786.240	6579
786.345	4823
786.450	5876
786.554	5883
786.659	5866
786.763	5269
786.868	6618
786.973	7049
787.077	5078
787.182	4838
787.286	6681
787.391	7225
787.495	5467
787.600	4634
787.704	5717
787.809	6041
787.913	5883
788.017	5355
788.122	6570
788.226	5116
788.330	2940
788.435	6055
788.539	5960
788.643	4735
788.747	4633
788.852	5096
788.956	5327
789.060	6265
789.164	6047
789.268	4567
789.372	5975
789.476	5770
789.580	4540
789.684	4089
789.788	5849
789.892	4781
789.996	4072
790.100	4632
790.204	5497
790.308	6526
790.412	4671
790.516	4589
790.620	4637
790.724	6053
790.828	5276
790.931	2715
791.035	5870
791.139	4736
791.242	4220
791.346	4588
791.450	4921
791.554	3950
791.657	2912
791.761	5415
791.864	6415
791.968	5634
792.072	4977
792.175	4323
792.279	4479
792.382	4117
792.486	4450
792.589	4612
792.693	5059
792.796	3070
792.899	5081
793.003	4408
793.106	3541
793.209	4256
793.313	4873
793.416	1736
793.519	3683
793.623	4502
793.726	5319
793.829	3658
793.932	3404
794.035	2378
794.138	5211
794.242	5262
794.345	3718
794.448	4582
794.551	7533
794.654	23788
794.757	45415
794.860	8651
794.963	5236
795.066	3314
795.169	4721
795.272	3057
795.375	4741
795.477	3161
795.580	3783
795.683	2607
795.786	4071
795.889	1793
795.991	4249
796.094	4475
796.197	3474
796.300	4065
796.402	3607
796.505	2434
796.608	2720
796.710	3537
796.813	4609
796.915	3628
797.018	4147
797.120	3548
797.223	2710
797.326	5029
797.428	2656
797.530	2145
797.633	3509
797.735	4624
797.838	3350
797.940	4116
798.042	3150
798.145	3092
798.247	3332
798.349	1692
798.452	3983
798.554	3654
798.656	2756
798.758	4574
798.860	3473
798.962	2548
799.065	2199
799.167	1674
799.269	4306
799.371	4255
799.473	4352
799.575	3334
799.677	1746
799.779	3943
799.881	1338
799.983	3836
800.085	2953
800.187	3669
800.289	1482
800.390	2460
800.492	3476
800.594	3634
800.696	2157
800.798	3452
800.899	2114
801.001	2695
801.103	3317
801.205	2812
801.306	3165
801.408	3057
801.509	3004
801.611	3664
801.713	3270
801.814	1406
801.916	1503
802.017	2053
802.119	2196
802.220	2172
802.322	1638
802.423	4187
802.525	1018
802.626	1941
802.727	3027
802.829	3700
802.930	1133
803.031	3212
803.133	2490
803.234	2314
803.335	3173
803.436	2204
803.538	2332
803.639	1320
803.740	3884
803.841	2359
803.942	3747
804.043	2676
804.144	865
804.245	2411
804.346	2104
804.447	2073
804.548	2493
804.649	4079
804.750	2330
804.851	2027
804.952	2292
805.053	2012
805.154	1166
805.255	3493
805.355	2178
805.456	2567
805.557	2249
805.658	1322
805.758	2390
805.859	1999
805.960	2494
806.061	2035
806.161	1889
806.262	2510
806.362	1040
806.463	1772
806.564	3706
806.664	2804
806.765	2072
806.865	2557
806.966	1267
807.066	1894
807.166	3351
807.267	1986
807.367	2021
807.468	2569
807.568	884
807.668	3283
807.769	3562
807.869	1680
807.969	1869
808.069	2280
808.170	2590
808.270	2369
808.370	2716
808.470	2388
808.570	1881
808.670	2043
808.770	1864
808.870	1592
808.970	2696
809.070	1329
809.170	2381
809.271	2520
809.370	1610
809.470	2367
809.570	1427
809.670	1256
809.770	1862
809.870	1876
809.970	2027
810.070	2320
810.169	2822
810.269	522
810.369	2728
810.469	2298
810.568	1674
810.668	1700
810.768	2488
810.867	2771
810.967	992
811.066	1803
811.166	1181
811.265	2227
811.365	1033
811.464	1524
811.564	2269
811.663	1902
811.763	1263
811.862	2458
811.962	2635
812.061	2429
812.160	1485
812.260	1550
812.359	1496
812.458	2099
812.557	3118
812.657	3334
812.756	2376
812.855	2410
812.954	2060
813.053	2893
813.153	1970
813.252	1463
813.351	1790
813.450	2107
813.549	1892
813.648	2601
813.747	2170
813.846	2453
813.945	2033
814.044	2643
814.143	2235
814.242	3064
814.341	2213
814.439	2411
814.538	2803
814.637	2602
814.736	2322
814.835	3684
814.933	2951
815.032	3666
815.131	4792
815.229	9733
815.328	13526
815.427	9467
815.525	9049
815.624	8353
815.722	8273
815.821	9249
815.919	8467
816.018	7727
816.116	8342
816.215	8909
816.313	8984
816.412	11313
816.510	10726
816.609	12060
816.707	12355
816.805	11303
816.904	10797
817.002	11721
817.100	11581
817.198	12684
817.296	10522
817.395	11570
817.493	12010
817.591	11287
817.689	10468
817.787	12691
817.885	13538
817.983	15068
818.081	24356
818.179	44722
818.277	105309
818.375	83050
818.473	25093
818.571	13549
818.669	13463
818.767	14232
818.865	13194
818.963	11123
819.061	15755
819.158	22180
819.256	40534
819.354	81755
819.452	178993
819.549	104867
819.647	31248
819.745	15733
819.842	13406
819.940	12425
820.038	10333
820.135	9136
820.233	11017
820.330	8964
820.428	8285
820.525	10462
820.623	8789
820.720	7252
820.818	9007
820.915	9491
821.012	8775
821.110	7204
821.207	9149
821.304	7584
821.402	8659
821.499	7972
821.596	6807
821.693	7627
821.791	8985
821.888	8370
821.985	9593
822.082	6473
822.179	7754
822.276	8518
822.373	7278
822.470	7515
822.567	8235
822.664	6403
822.761	7595
822.858	6553
822.955	6977
823.052	6494
823.149	7325
823.246	7793
823.343	6084
823.440	6481
823.536	7745
823.633	6647
823.730	5815
823.827	7126
823.923	6779
824.020	6489
824.117	7830
824.213	7120
824.310	6596
824.407	4749
824.503	7017
824.600	6305
824.696	5481
824.793	7181
824.889	7098
824.986	5742
825.082	4092
825.179	5879
825.275	6938
825.371	7656
825.468	5494
825.564	3344
825.660	6350
825.757	8193
825.853	6030
825.949	4025
826.045	4940
826.142	5500
826.238	7230
826.334	6291
826.430	5987
826.526	3773
826.622	3167
826.718	5637
826.814	6910
826.910	6268
827.006	3123
827.102	3579
827.198	5941
827.294	6405
827.390	6178
827.486	3490
827.582	3217
827.678	3816
827.774	6932
827.869	3197
827.965	5322
828.061	3855
828.157	5579
828.252	5694
828.348	4647
828.444	3589
828.539	3335
828.635	5135
828.731	5538
828.826	3554
828.922	5005
829.017	4779
829.113	6484
829.208	3035
829.304	4779
829.399	6276
829.495	4553
829.590	4341
829.685	4988
829.781	5510
829.876	5194
829.971	2388
830.066	2198
830.162	4285
830.257	6344
830.352	4594
830.447	3984
830.543	3482
830.638	5129
830.733	6736
830.828	3575
830.923	4669
831.018	4666
831.113	5413
831.208	2394
831.303	3210
831.398	3278
831.493	4218
831.588	6430
831.683	3704
831.778	3358
831.873	3327
831.967	4209
832.062	4206
832.157	3694
832.252	4039
832.346	2928
832.441	4550
832.536	4409
832.631	4028
832.725	2909
832.820	3968
832.914	3469
833.009	3260
833.104	2212
833.198	3368
833.293	3005
833.387	4680
833.482	3903
833.576	3188
833.670	4010
833.765	4142
833.859	4430
833.954	3577
834.048	4005
834.142	3226
834.237	2063
834.331	3724
834.425	4234
834.519	3404
834.613	3836
834.708	2624
834.802	2733
834.896	2843
834.990	3707
835.084	3159
835.178	2434
835.272	3155
835.366	3353
835.460	4226
835.554	2417
835.648	2291
835.742	1306
835.836	3003
835.930	2370
836.024	3257
836.117	4459
836.211	2334
836.305	2130
836.399	2121
836.493	1542
836.586	4039
836.680	3144
836.774	1756
836.867	3447
836.961	1857
837.055	2257
837.148	2284
837.242	3207
837.335	3524
837.429	2482
837.522	1724
837.616	2534
837.709	2558
837.803	2618
837.896	3198
837.989	2833
838.083	2055
838.176	1764
838.269	1004
838.363	3271
838.456	2020
838.549	3224
838.642	1589
838.735	2963
838.829	2930
838.922	1972
839.015	2175
839.108	1571
839.201	2251
839.294	2596
839.387	2829
839.480	1092
839.573	1711
839.666	2044
839.759	2486
839.852	1198
839.945	3438
840.038	1729
840.131	1109
840.223	2102
840.316	2495
840.409	2482
840.502	2780
840.594	2872
840.687	514
840.780	1067
840.873	582
840.965	1023
841.058	1964
841.150	3461
841.243	1201
841.336	1925
841.428	2368
841.521	1393
841.613	1715
841.706	1969
841.798	1550
841.890	2137
841.983	496
842.075	1343
842.167	2023
842.260	2186
842.352	2966
842.444	2575
842.537	1408
842.629	1291
842.721	1262
842.813	2121
842.905	1580
842.997	2495
843.090	2431
843.182	1757
843.274	1092
843.366	1981
843.458	3661
843.550	3724
843.642	1216
843.734	1623
843.826	1091
843.918	1430
844.009	2049
844.101	1583
844.193	1456
844.285	1902
844.377	2185
844.469	1740
844.560	942
844.652	881
844.744	1795
844.835	1595
844.927	2553
845.019	2501
845.110	1372
845.202	1817
845.293	1459
845.385	732
845.476	1784
845.568	2036
845.659	1201
845.751	2060
845.842	567
845.934	1228
846.025	1562
846.116	2362
846.208	1714
846.299	1979
846.390	430
846.482	1296
846.573	1980
846.664	2180
846.755	633
846.846	2181
846.937	-98
847.029	1612
847.120	1381
847.211	1020
847.302	1736
847.393	-26
847.484	2225
847.575	-19
847.666	463
847.757	638
847.847	1523
847.938	2173
848.029	2236
848.120	719
848.211	1522
848.302	791
848.392	668
848.483	1570
848.574	419
848.664	1504
848.755	1671
848.846	2085
848.936	1178
849.027	2225
849.118	2190
849.208	1860
849.299	2406
849.389	4347
849.480	9507
849.570	17897
849.661	33043
849.751	51863
849.841	17044
849.932	3110
850.022	1506
850.112	2726
850.203	1415
850.293	1167
850.383	1391
850.474	1160
850.564	536
850.654	1106
850.744	1151
850.834	1082
850.924	1466
851.014	1976
851.104	891
851.194	548
851.284	787
851.374	929
851.464	1439
851.554	445
851.644	554
851.734	1472
851.824	1551
851.914	931
852.004	1771
852.094	-20
852.183	1093
852.273	815
852.363	1071
852.452	899
852.542	1727
852.632	547
852.721	1351
852.811	394
852.901	1928
852.990	1211
853.080	1545
853.169	1214
853.259	1727
853.348	1630
853.438	3251
853.527	4258
853.617	5043
853.706	10541
853.795	18422
853.885	39659
853.974	70315
854.063	128201
854.152	169546
854.242	64806
854.331	15303
854.420	7078
854.509	5640
854.598	4008
854.687	2864
854.777	3367
854.866	1841
854.955	2012
855.044	755
855.133	2080
855.222	2022
855.311	1759
855.400	965
855.488	335
855.577	1741
855.666	1626
855.755	1138
855.844	1136
855.933	1446
856.021	1071
856.110	327
856.199	173
856.288	978
856.376	648
856.465	100
856.554	1287
856.642	1648
856.731	1829
856.819	839
856.908	872
856.996	728
857.085	977
857.173	458
857.262	476
857.350	351
857.438	835
857.527	840
857.615	889
857.703	1405
857.792	1499
857.880	282
857.968	823
858.056	767
858.145	715
858.233	661
858.321	531
858.409	1203
858.497	883
858.585	496
858.673	935
858.761	604
858.849	858
858.937	71
859.025	330
859.113	1694
859.201	1014
859.289	2126
859.377	857
859.465	1238
859.552	670
859.640	194
859.728	349
859.816	867
859.903	1640
859.991	-130
860.079	987
860.166	384
860.254	356
860.342	1956
860.429	324
860.517	1267
860.604	1004
860.692	745
860.779	52
860.867	1224
860.954	1232
861.042	1118
861.129	1797
861.216	738
861.304	1599
861.391	548
861.478	1408
861.565	707
861.653	2473
861.740	399
861.827	1986
861.914	2121
862.001	400
862.089	1320
862.176	920
862.263	1203
862.350	1192
862.437	1441
862.524	988
862.611	909
862.698	1195
862.785	1444
862.871	1539
862.958	1830
863.045	1815
863.132	402
863.219	1015
863.306	-69
863.392	1612
863.479	1280
863.566	1117
863.652	1051
863.739	1593
863.826	2434
863.912	1731
863.999	962
864.086	1425
864.172	1667
864.259	1760
864.345	1967
864.432	2305
864.518	2427
864.604	2170
864.691	2202
864.777	2460
864.863	3657
864.950	5483
865.036	6471
865.122	12317
865.209	13384
865.295	12254
865.381	10979
865.467	11294
865.553	11819
865.639	13887
865.726	17465
865.812	28596
865.898	45773
865.984	64621
866.070	112414
866.156	107228
866.242	34880
866.328	15586
866.414	11223
866.499	10519
866.585	9933
866.671	9545
866.757	9873
866.843	9029
866.928	8831
867.014	8544
867.100	9437
867.186	8981
867.271	8044
867.357	7876
867.442	8031
867.528	7966
867.614	8169
867.699	8169
867.785	8654
867.870	8396
867.956	7440
868.041	8057
868.127	7055
868.212	7050
868.297	7829
868.383	7297
868.468	7199
868.553	8240
868.639	7162
868.724	7928
868.809	8062
868.894	7039
868.979	7438
869.065	6846
869.150	5512
869.235	7731
869.320	6700
869.405	7002
869.490	7181
869.575	6686
869.660	6116
869.745	8417
869.830	7817
869.915	6169
870.000	6493
870.085	6138
870.169	8264
870.254	8146
870.339	5103
870.424	4779
870.509	6209
870.593	7647
870.678	6758
870.763	5573
870.847	5428
870.932	6628
871.016	7043
871.101	4195
871.186	6068
871.270	8086
871.355	4522
871.439	5786
871.523	7122
871.608	5748
871.692	5067
871.777	6955
871.861	6468
871.945	5753
872.030	5411
872.114	5865
872.198	5623
872.282	4559
872.367	5327
872.451	5908
872.535	5169
872.619	5734
872.703	5165
872.787	6238
872.871	5226
872.955	4725
873.039	3178
873.123	6275
873.207	6299
873.291	3404
873.375	5438
873.459	6886
873.543	4783
873.627	4085
873.711	4630
873.794	5890
873.878	4022
873.962	3535
874.045	3738
874.129	4616
874.137	4612
874.213	4569
874.245	4501
874.296	4404
874.352	4019
874.380	3829
874.460	4572
874.464	4604
874.547	4246
874.568	4310
874.631	4458
874.676	4618
874.714	4771
874.784	5316
874.798	5424
874.881	4409
874.892	4256
874.965	3259
874.999	4126
875.048	5284
875.107	5164
875.131	5118
875.215	3187
875.215	3187
875.298	3329
875.323	3706
875.381	4568
875.430	5285
875.465	5808
875.538	4256
875.548	4031
875.631	2717
875.646	2717
875.714	2786
875.753	2833
875.798	2936
875.861	3994
875.881	4267
875.964	4083
875.968	4020
876.047	3173
876.076	3670
876.130	4480
876.183	4320
876.213	4281
876.291	4778
876.296	4804
876.379	3797
876.398	3773
876.462	3628
876.506	3315
876.545	3094
876.613	3126
876.628	3166
876.711	3383
876.721	3487
876.794	4115
876.828	4224
876.877	4271
876.935	3412
876.960	3098
877.043	3163
877.043	3163
877.125	3320
877.150	3659
877.208	4171
877.258	3576
877.291	3270
877.365	2565
877.374	2478
877.456	3369
877.472	3268
877.539	2950
877.579	3728
877.622	4331
877.687	3501
877.704	3356
877.787	4185
877.794	4135
877.869	3576
877.901	3626
877.952	3518
878.008	2784
878.034	2504
878.115	2344
878.117	2337
878.199	1977
878.222	2284
878.282	3503
878.329	3929
878.364	3948
878.437	3885
878.447	3913
878.529	2625
878.544	2725
878.611	3048
878.651	3090
878.694	3364
878.758	3765
878.776	3787
878.858	3428
878.865	3346
878.941	2226
878.972	2007
879.023	1850
879.078	2657
879.105	3110
879.185	2775
879.187	2762
879.269	3401
879.292	3533
879.351	3760
879.399	2961
879.433	2532
879.506	2866
879.516	2872
879.598	2713
879.613	2646
879.680	2759
879.720	3216
879.762	3526
879.827	2889
879.844	2711
879.926	2636
879.933	2656
880.007	2937
880.040	3088
880.089	3319
880.147	3961
880.171	4216
880.253	5276
880.254	5286
880.335	6787
880.360	7108
880.417	8598
880.467	11811
880.499	13875
880.574	15620
880.580	15415
880.662	6758
880.680	5675
880.744	3324
880.787	2760
880.825	2610
880.893	2900
880.907	2925
880.989	1921
881.000	1974
881.070	3008
881.106	3214
881.152	2935
881.213	2261
881.233	2224
881.315	2124
881.319	2168
881.396	2452
881.426	2295
881.478	2603
881.532	3513
881.559	3708
881.639	2857
881.641	2834
881.722	2403
881.745	2380
881.803	2792
881.852	2761
881.885	2361
881.958	1731
881.966	1743
882.047	2389
882.064	2373
882.129	1981
882.171	1938
882.210	2040
882.277	1919
882.291	1892
882.372	2400
882.383	2480
882.454	3313
882.489	3226
882.535	2951
882.596	3448
882.616	3516
882.697	2569
882.702	2558
882.778	2312
882.808	2045
882.859	1800
882.914	2174
882.940	2304
883.020	1872
883.021	1874
883.102	2318
883.127	2756
883.183	3434
883.233	3167
883.264	2750
883.339	1776
883.345	1702
883.426	999
883.445	978
883.507	1605
883.551	2010
883.587	2353
883.657	2862
883.668	2922
883.749	3113
883.763	3114
883.830	1998
883.869	1434
883.910	1483
883.975	1883
883.991	2021
884.072	2136
884.081	2204
884.152	3001
884.187	3304
884.233	3660
884.292	3836
884.314	3373
884.394	1393
884.398	1311
884.475	905
884.504	827
884.555	1257
884.610	1741
884.636	1775
884.716	1998
884.716	2007
884.797	3707
884.821	4005
884.877	2872
884.927	1871
884.958	1593
885.033	1151
885.038	1161
885.118	1371
885.139	1491
885.199	1618
885.244	1486
885.279	1645
885.350	2474
885.359	2612
885.439	3653
885.456	3666
885.520	2330
885.561	1795
885.600	1724
885.667	2062
885.680	2151
885.760	2006
885.773	2008
885.840	1802
885.878	1744
885.920	1964
885.984	2207
886.000	2163
886.080	1966
886.089	1955
886.160	2320
886.195	2406
886.240	2080
886.300	1736
886.320	1943
886.400	2770
886.406	2799
886.480	1530
886.511	1173
886.560	1358
886.616	1428
886.640	1477
886.720	1785
886.722	1790
886.800	1661
886.827	1596
886.879	1845
886.932	2101
886.959	2507
887.038	3628
887.039	3618
887.119	2355
887.143	2002
887.198	2165
887.248	2293
887.278	2205
887.354	1846
887.358	1870
887.437	2509
887.459	2643
887.517	2825
887.564	2917
887.596	2448
887.669	1431
887.676	1399
887.755	1030
887.774	955
887.835	1078
887.880	1203
887.914	1468
887.985	1868
887.994	1984
888.073	3106
888.090	3322
888.153	3300
888.195	3260
888.232	2623
888.300	1475
888.311	1493
888.391	1674
888.405	1692
888.470	1823
888.510	1933
888.549	1785
888.615	1585
888.628	1793
888.708	3001
888.720	3188
888.787	2923
888.825	2720
888.866	1934
888.930	764
888.945	953
889.024	2025
889.035	2158
889.103	2526
889.140	2715
889.182	2403
889.245	2005
889.261	2073
889.340	2328
889.349	2358
889.419	1752
889.454	1453
889.498	1620
889.559	1867
889.577	1776
889.656	1374
889.664	1340
889.735	1674
889.768	1833
889.814	2062
889.873	2362
889.978	1397
890.083	1744
890.187	2889
890.292	2284
890.397	1190
890.501	1490
890.606	1485
890.710	2123
890.815	2099
890.919	2695
891.024	1063
891.128	1919
891.233	1444
891.337	3191
891.442	1959
891.546	2071
891.650	726
891.755	1482
891.859	2477
891.963	2567
892.068	1748
892.172	974
892.276	611
892.380	2158
892.484	3299
892.589	2194
892.693	1892
892.797	1374
892.901	551
893.005	1294
893.109	2835
893.213	2251
893.317	940
893.421	2367
893.525	347
893.629	1339
893.733	2252
893.837	1614
893.941	2381
894.045	2036
894.148	1436
894.252	1658
894.356	2858
894.460	2678
894.564	1320
894.667	1169
894.771	571
894.875	384
894.978	1346
895.082	2290
895.186	2055
895.289	2163
895.393	1213
895.496	2437
895.600	1452
895.703	1147
895.807	1106
895.910	1276
896.014	2035
896.117	1512
896.221	2598
896.324	2531
896.427	1856
896.531	1050
896.634	1386
896.737	1385
896.840	2392
896.944	2030
897.047	2243
897.150	1897
897.253	165
897.356	1594
897.460	661
897.563	1118
897.666	2117
897.769	1695
897.872	697
897.975	1093
898.078	635
898.181	709
898.284	1576
898.387	2257
898.490	2164
898.593	431
898.695	960
898.798	837
898.901	1353
899.004	2140
899.107	1228
899.209	1487
899.312	2588
899.415	1466
899.518	1117
899.620	840
899.723	1150
899.826	1300
899.928	755
900.031	1499
900.133	2451
900.236	1099
900.338	916
900.441	459
900.543	1367
900.646	2061
900.748	1395
900.851	1806
900.953	1097
901.055	1202
901.158	1018
901.260	901
901.362	-479
901.465	1373
901.567	1710
901.669	2007
901.771	1012
901.873	1107
901.976	816
902.078	1812
902.180	1159
902.282	1164
902.384	1001
902.486	2337
902.588	849
902.690	639
902.792	394
902.894	1380
902.996	1760
903.098	1616
903.200	736
903.302	1458
903.404	500
903.505	439
903.607	869
903.709	2194
903.811	1513
903.913	927
904.014	781
904.116	154
904.218	595
904.319	1105
904.421	2582
904.523	1119
904.624	667
904.726	1451
904.827	1075
904.929	481
905.030	1033
905.132	2202
905.233	1449
905.335	409
905.436	-48
905.537	-95
905.639	332
905.740	1854
905.841	1025
905.943	715
906.044	1062
906.145	685
906.247	831
906.348	1448
906.449	374
906.550	1783
906.651	1074
906.752	905
906.854	308
906.955	1192
907.056	302
907.157	1573
907.258	1866
907.359	658
907.460	62
907.561	335
907.662	748
907.762	653
907.863	1683
907.964	2129
908.065	916
908.166	838
908.267	358
908.367	497
908.468	236
908.569	1105
908.670	1891
908.770	931
908.871	1066
908.971	778
909.072	337
909.173	1105
909.273	197
909.374	1326
909.474	920
909.575	1089
909.675	327
909.776	1526
909.876	610
909.977	1290
910.077	1442
910.177	1480
910.278	607
910.378	70
910.478	1199
910.579	1226
910.679	1070
910.779	1502
910.879	1192
910.980	1582
911.080	1065
911.180	280
911.280	766
911.380	356
911.480	61
911.580	548
911.680	1051
911.780	975
911.880	1239
911.980	681
912.080	633
912.180	674
912.280	368
912.380	291
912.480	-45
912.580	569
912.679	651
912.779	1984
912.879	518
912.979	436
913.078	-358
913.178	567
913.278	943
913.377	535
913.477	254
913.577	908
913.676	2273
913.776	1163
913.875	29
913.975	953
914.074	199
914.174	975
914.273	134
914.373	1282
914.472	965
914.572	697
914.671	775
914.770	1058
914.870	56
914.969	418
915.068	633
915.167	1822
915.267	-10
915.366	704
915.465	847
915.564	920
915.663	1607
915.763	1206
915.862	1304
915.961	924
916.060	545
916.159	231
916.258	954
916.357	495
916.456	665
916.555	1304
916.654	978
916.752	1546
916.851	767
916.950	1078
917.049	925
917.148	354
917.247	581
917.345	955
917.444	822
917.543	778
917.642	1577
917.740	19
917.839	843
917.937	1614
918.036	1918
918.135	948
918.233	1357
918.332	1322
918.430	256
918.529	539
918.627	100
918.726	1479
918.824	787
918.923	622
919.021	489
919.119	37
919.218	889
919.316	1458
919.414	179
919.512	441
919.611	1730
919.709	1102
919.807	1248
919.905	1358
920.003	1589
920.102	1596
920.200	1709
920.298	1892
920.396	1297
920.494	1553
920.592	1314
920.690	1115
920.788	1866
920.886	2376
920.984	2080
921.082	3001
921.180	3080
921.277	1931
921.375	2419
921.473	4326
921.571	2894
921.669	2619
921.766	2802
921.864	3134
921.962	3147
922.060	3341
922.157	3913
922.255	3223
922.352	2601
922.450	3860
922.548	3983
922.645	4081
922.743	7038
922.840	10689
922.938	11125
923.035	9409
923.133	9417
923.230	11156
923.327	13576
923.425	11950
923.522	12050
923.619	11037
923.717	9729
923.814	10117
923.911	8800
924.008	10801
924.106	8400
924.203	8972
924.300	9501
924.397	9271
924.494	9944
924.591	8504
924.688	8130
924.786	8771
924.883	8954
924.979	9607
925.077	8648
925.173	8912
925.270	9280
925.367	8780
925.464	9345
925.561	9998
925.658	8980
925.755	8542
925.852	9333
925.948	8770
926.045	8787
926.142	9969
926.239	8771
926.335	6609
926.432	9134
926.529	8990
926.625	8940
926.722	7552
926.818	7751
926.915	8872
927.011	7214
927.108	8678
927.204	7361
927.301	6809
927.397	8791
927.494	9115
927.590	6707
927.687	7487
927.783	9272
927.879	9322
927.976	7329
928.072	6779
928.168	8571
928.264	7973
928.361	7151
928.457	7933
928.553	7289
928.649	7810
928.745	7411
928.841	7087
928.937	7769
929.033	7415
929.129	6934
929.225	7876
929.321	6219
929.417	6492
929.513	7523
929.609	6021
929.705	6808
929.801	8323
929.897	5679
929.993	6754
930.089	6594
930.184	6824
930.280	8119
930.376	8767
930.471	4810
930.567	5499
930.663	6314
930.758	5686
930.854	6146
930.950	6853
931.045	5491
931.141	6317
931.236	7729
931.332	5534
931.427	5640
931.523	8715
931.618	6817
931.714	4705
931.809	6478
931.905	6939
932.000	2950
932.095	4511
932.191	7563
932.286	7980
932.381	5881
932.476	5084
932.572	5560
932.667	5383
932.762	4993
932.857	5313
932.952	6815
933.047	5660
933.142	3757
933.237	6760
933.332	6666
933.427	5848
933.522	5849
933.617	4499
933.712	5007
933.807	6820
933.902	6539
933.997	6825
934.092	3805
934.187	5780
934.282	5280
934.376	6821
934.471	5974
934.566	4446
934.661	4934
934.755	6123
934.850	5337
934.945	5196
935.039	3506
935.134	4068
935.228	5670
935.323	6708
935.417	3642
935.512	2904
935.606	3589
935.701	5234
935.795	5233
935.890	5064
935.984	3434
936.079	4059
936.173	4807
936.267	4586
936.362	3861
936.456	5241
936.550	6092
936.644	4637
936.738	3641
936.833	3372
936.927	3085
937.021	3789
937.115	4911
937.209	4890
937.303	4654
937.397	3503
937.491	4444
937.585	5811
937.679	4223
937.773	3959
937.867	3303
937.961	3372
938.055	6000
938.149	4427
938.243	3423
938.337	3307
938.430	4076
938.524	5299
938.618	3502
938.712	3287
938.805	3286
938.899	4669
938.993	4886
939.086	2093
939.180	2173
939.274	3636
939.367	4377
939.461	4887
939.554	2848
939.648	3056
939.741	3902
939.835	5336
939.928	5800
940.022	4958
940.115	3351
940.208	5071
940.302	5451
940.395	5780
940.488	2527
940.582	3425
940.675	2365
940.768	3562
940.861	4895
940.954	5302
941.048	2149
941.141	2198
941.234	2718
941.327	4321
941.420	4356
941.513	3933
941.606	3362
941.699	3730
941.792	3483
941.885	3865
941.978	3706
942.071	3551
942.164	2119
942.257	2550
942.349	3723
942.442	3006
942.535	1642
942.628	3303
942.721	3573
942.813	3066
942.906	3732
942.999	2200
943.091	1689
943.184	2680
943.277	2886
943.369	2167
943.462	1862
943.554	3744
943.647	2593
943.739	4683
943.832	3800
943.924	1576
944.017	2174
944.109	1661
944.201	2738
944.294	3037
944.386	3124
944.478	1854
944.571	1992
944.663	2999
944.755	3277
944.847	2791
944.940	2243
945.032	1108
945.124	1969
945.216	3283
945.308	3156
945.400	2461
945.492	2416
945.584	3771
945.676	3118
945.768	3326
945.860	3122
945.952	3344
946.044	2813
946.136	1624
946.228	2116
946.320	1698
946.412	2819
946.503	3181
946.595	3439
946.687	1264
946.779	1205
946.870	2316
946.962	1498
947.054	2874
947.145	2246
947.237	2319
947.329	2556
947.420	3121
947.512	1309
947.603	184
947.695	2135
947.786	1761
947.878	1859
947.969	3675
948.061	1655
948.152	1909
948.243	1198
948.335	1634
948.426	1993
948.517	2410
948.609	1873
948.700	2550
948.791	2232
948.882	1560
948.973	1374
949.065	2682
949.156	1846
949.247	1772
949.338	1604
949.429	1044
949.520	1576
949.611	1575
949.702	2982
949.793	2175
949.884	2773
949.975	1807
950.066	436
950.157	1253
950.247	1481
950.338	1488
950.429	1060
950.520	1441
950.611	1189
950.701	1986
950.792	1850
950.883	2780
950.973	1206
951.064	2027
951.155	1822
951.245	2687
951.336	2770
951.427	1819
951.517	3026
951.608	2034
951.698	1526
951.788	1076
951.879	1036
951.969	1730
952.060	1343
952.150	1733
952.240	2738
952.331	455
952.421	2741
952.511	691
952.602	553
952.692	1677
952.782	1055
952.872	1000
952.962	1348
953.052	1392
953.143	662
953.233	1642
953.323	931
953.413	2622
953.503	2127
953.593	1941
953.683	2007
953.773	309
953.863	1164
953.953	1775
954.042	1353
954.132	1610
954.222	1746
954.312	1569
954.402	426
954.492	838
954.581	1904
954.671	1489
954.761	1058
954.850	1968
954.940	107
955.030	518
955.119	1038
955.209	599
955.298	397
955.388	1253
955.477	2079
955.567	293
955.656	1589
955.746	1501
955.835	489
955.925	693
956.014	1870
956.103	1681
956.193	2689
956.282	1627
956.371	928
956.461	1015
956.550	269
956.639	924
956.728	652
956.817	1699
956.906	756
956.995	1583
957.085	678
957.174	1285
957.263	1211
957.352	1246
957.441	918
957.530	863
957.619	1102
957.708	505
957.796	1266
957.885	1105
957.974	819
958.063	1653
958.152	-300
958.241	808
958.329	647
958.418	1253
958.507	546
958.596	2625
958.684	-615
958.773	995
958.861	910
958.950	382
959.039	711
959.127	648
959.216	1564
959.304	553
959.393	419
959.481	1693
959.570	676
959.658	596
959.746	1057
959.835	492
959.923	192
960.011	0
960.100	1329
960.188	620
960.276	564
960.365	388
960.453	230
960.541	-455
960.629	582
960.717	-130
960.805	-681
960.893	870
960.981	308
961.069	1653
961.158	1770
961.245	2331
961.333	1033
961.421	926
961.509	1119
961.597	850
961.685	-156
961.773	283
961.861	722
961.949	1160
962.036	269
962.124	1807
962.212	-28
962.299	190
962.387	-64
962.475	1048
962.562	-84
962.650	1465
962.738	804
962.825	43
962.913	-94
963.000	995
963.088	1246
963.175	358
963.263	386
963.350	165
963.438	660
963.525	290
963.612	808
963.700	1159
963.787	1616
963.874	1197
963.962	534
964.049	558
964.136	58
964.223	540
964.310	573
964.398	395
964.485	630
964.572	1158
964.659	154
964.746	-70
964.833	-189
964.920	1126
965.007	353
965.094	603
965.181	667
965.268	258
965.355	522
965.441	333
965.528	127
965.615	1466
965.702	574
965.789	14
965.875	817
965.962	1585
966.049	363
966.136	2005
966.222	823
966.309	1426
966.395	650
966.482	1132
966.569	277
966.655	1189
966.742	299
966.828	67
966.915	-57
967.001	793
967.087	-801
967.174	800
967.260	407
967.347	883
967.433	377
967.519	1179
967.605	725
967.692	1254
967.778	709
967.864	836
967.950	-109
968.036	743
968.123	256
968.209	610
968.295	-303
968.381	1360
968.467	235
968.553	-1210
968.639	1013
968.725	-833
968.811	1266
968.897	1119
968.983	1152
969.069	-394
969.154	390
969.240	1737
969.326	-103
969.412	989
969.497	74
969.583	164
969.669	1378
969.755	1456
969.840	659
969.926	1899
970.012	2138
970.097	2612
970.183	1730
970.268	839
970.354	1115
970.439	-1046
970.525	1609
970.610	-527
970.696	1360
970.781	-167
970.866	-1237
970.952	259
971.037	-333
971.122	844
971.208	701
971.293	1352
971.378	-205
971.463	548
971.549	175
971.634	393
971.719	1213
971.804	170
971.889	992
971.974	1094
972.059	71
972.144	1132
972.229	349
972.314	335
972.399	1084
972.484	115
972.569	604
972.654	-661
972.739	1300
972.824	26
972.908	-110
972.993	112
973.078	306
973.163	510
973.247	731
973.332	-1242
973.417	1753
973.501	-469
973.586	1651
973.671	784
973.755	711
973.840	838
973.924	1693
974.009	1629
974.093	1191
974.178	2167
974.262	1116
974.346	179
974.431	579
974.515	374
974.600	255
974.684	1331
974.768	-65
974.852	2103
974.937	-380
975.021	911
975.105	-283
975.189	-131
975.273	1315
975.358	977
975.442	-27
975.526	906
975.610	-372
975.694	192
975.778	535
975.862	167
975.946	-1197
976.030	2169
976.114	-387
976.198	305
976.281	640
976.365	457
976.449	166
976.533	735
976.617	151
976.700	411
976.784	553
976.868	-401
976.951	316
977.035	1134
977.119	574
977.202	659
977.286	1092
977.369	1564
977.453	1849
977.536	1726
977.620	631
977.703	2042
977.787	-445
977.870	1703
977.953	1484
978.037	95
978.120	809
978.203	541
978.287	859
978.370	538
978.453	164
978.536	76
978.620	1110
978.703	689
978.786	243
978.869	466
978.952	-495
979.035	2346
979.118	516
979.201	657
979.284	544
979.367	1383
979.450	1551
979.533	-668
979.616	799
979.699	-377
979.782	624
979.865	311
979.948	-162
980.030	-420
980.113	304
980.196	312
980.279	1317
980.361	1306
980.444	340
980.526	1088
980.609	1551
980.692	1551
980.774	2626
980.857	4
980.939	2520
981.022	655
981.104	-134
981.187	944
981.269	1000
981.352	137
981.434	600
981.516	443
981.599	1900
981.681	769
981.763	1235
981.846	521
981.928	399
982.010	205
982.092	691
982.174	2351
982.256	808
982.339	624
982.421	-499
982.503	1270
982.585	-450
982.667	840
982.749	-123
982.831	994
982.913	22
982.995	1215
983.077	-47
983.158	1746
983.240	-26
983.322	1592
983.404	2837
983.486	2626
983.568	2834
983.649	1974
983.731	2154
983.813	1003
983.894	896
983.976	1111
984.058	1143
984.139	1914
984.221	582
984.302	2233
984.384	266
984.465	692
984.547	981
984.628	303
984.710	1676
984.791	1455
984.872	729
984.954	1037
985.035	1269
985.116	458
985.198	487
985.279	2117
985.360	1278
985.441	646
985.522	1688
985.604	1102
985.685	-920
985.766	2618
985.847	2764
985.928	273
986.009	1795
986.090	1173
986.171	1328
986.252	715
986.333	1146
986.414	1048
986.495	1234
986.576	1219
986.656	1624
986.737	2302
986.818	2236
986.899	1486
986.980	1364
987.060	1863
987.141	1648
987.222	2426
987.302	2519
987.383	2097
987.464	1682
987.544	2733
987.625	934
987.705	2294
987.786	1767
987.866	2584
987.947	2437
988.027	1609
988.108	1579
988.188	1855
988.268	1833
988.349	2014
988.429	1130
988.509	2641
988.589	1533
988.670	143
988.750	3210
988.830	1570
988.910	1414
988.990	1751
989.070	872
989.151	1508
989.231	700
989.311	1171
989.391	1599
989.471	1283
989.551	1264
989.631	1997
989.711	2749
989.791	1421
989.870	395
989.950	1787
990.030	308
990.110	1686
990.190	321
990.269	977
990.349	1185
990.429	2020
990.509	1395
990.588	702
990.668	1127
990.747	1722
990.827	850
990.907	951
990.986	555
991.066	1478
991.145	123
991.225	1512
991.304	743
991.383	763
991.463	624
991.542	886
991.622	-20
991.701	1173
991.780	593
991.859	1066
991.939	518
992.018	1506
992.097	705
992.176	1142
992.256	790
992.335	216
992.414	1629
992.493	-358
992.572	492
992.651	1437
992.730	229
992.809	1421
992.888	-548
992.967	648
993.046	653
993.125	-213
993.203	-88
993.282	282
993.361	197
993.440	668
993.519	-923
993.597	311
993.676	633
993.755	1118
993.834	73
993.912	-939
993.991	842
994.069	58
994.148	-329
994.226	-41
994.305	564
994.384	547
994.462	1033
994.540	-622
994.619	405
994.697	840
994.776	-462
994.854	666
994.932	-242
995.011	-34
995.089	-378
995.167	323
995.245	191
995.324	211
995.402	237
995.480	-120
995.558	426
995.636	-609
995.714	-362
995.792	1220
995.870	-1012
995.948	144
996.026	332
996.104	-569
996.182	-216
996.260	-507
996.338	574
996.416	-632
996.494	500
996.572	1166
996.649	-552
996.727	-567
996.805	450
996.883	-284
996.960	133
997.038	254
997.116	928
997.193	-666
997.271	193
997.348	-431
997.426	-138
997.504	-163
997.581	451
997.658	533
997.736	-538
997.813	-1608
997.891	416
997.968	-876
998.046	-1059
998.123	355
998.200	477
998.277	-1147
998.355	660
998.432	-1370
998.509	-48
998.586	103
998.663	-608
998.741	403
998.818	-698
998.895	214
998.972	1067
999.049	340
999.126	-944
999.203	-33
999.280	-330
999.357	-494
999.434	-743
999.511	-212
999.587	-815
999.664	-1461
999.741	-325
999.818	178
999.895	-615
999.971	-753
1000.048	-911
1000.125	414
1000.202	-631
1000.278	-320
1000.355	134
1000.431	82
1000.508	-1449
1000.584	-1001
1000.661	-676
1000.738	-927
1000.814	-768
1000.890	-441
1000.967	-1336
1001.043	-255
1001.120	-1594
1001.196	735
1001.272	-935
1001.349	-155
1001.425	159
1001.501	-296
1001.577	-1712
1001.654	249
1001.730	-773
1001.806	94
1001.882	-548
1001.958	324
1002.034	-1034
1002.110	-804
1002.186	-1325
1002.262	-1140
1002.338	-2008
1002.414	425
1002.490	-125
1002.566	-1250
1002.642	-601
1002.718	108
1002.794	-1105
1002.870	-652
1002.945	-938
1003.021	-1008
1003.097	-822
1003.173	-376
1003.248	-1291
1003.324	-247
1003.400	-1147
1003.475	-1033
1003.551	-1065
1003.626	-944
1003.702	-756
1003.777	-1065
1003.853	-609
1003.928	-1017
1004.004	-102
1004.079	-777
1004.155	-603
1004.230	-1125
1004.305	-530
1004.381	-436
1004.456	-1347
1004.531	-490
1004.607	-978
1004.682	-1172
1004.757	-834
1004.832	-737
1004.907	-1707
1004.982	292
1005.057	-887
1005.133	-699
1005.208	-1656
1005.283	-482
1005.358	49
1005.433	-2003
1005.508	-571
1005.583	-1120
1005.657	-605
1005.732	-329
1005.807	-1682
1005.882	-798
1005.957	-1243
1006.032	-6
1006.106	-980
1006.181	-1079
1006.256	-1012
1006.331	-1920
1006.405	-716
1006.480	-1086
1006.554	-1115
1006.629	-599
1006.704	-1524
1006.778	-1047
1006.853	-936
1006.927	-1230
1007.002	-930
1007.076	-1224
1007.150	-563
1007.225	-476
1007.299	-708
1007.373	-1659
1007.448	-1064
1007.522	-748
1007.596	-582
1007.671	-1379
1007.745	-1084
1007.819	-1279
1007.893	-1262
1007.967	-743
1008.041	-1987
1008.115	-347
1008.190	-1147
1008.264	-392
1008.338	-2020
1008.412	-1761
1008.486	-1955
1008.560	-1439
1008.633	-1795
1008.707	-893
1008.781	-1003
1008.855	-1367
1008.929	-1290
1009.003	-1885
1009.076	-1302
1009.150	-643
1009.224	-1415
1009.298	-282
1009.371	-1702
1009.445	-446
1009.519	-809
1009.592	-1666
1009.666	-1702
1009.739	-1210
1009.813	-1792
1009.886	-534
1009.960	-2051
1010.033	-1095
1010.107	-1091
1010.180	-2116
1010.253	-1058
1010.327	-1399
1010.400	-1022
1010.473	-615
1010.547	-173
1010.620	-1173
1010.693	-1257
1010.766	-1324
1010.840	-1616
1010.913	-795
1010.986	-1713
1011.059	-1204
1011.132	-1101
1011.205	-891
1011.278	-748
1011.351	-844
1011.424	-1380
1011.497	-1575
1011.570	-1679
1011.643	-1004
1011.716	-1513
1011.789	-1144
1011.862	-1337
1011.934	-885
1012.007	-2202
1012.080	-926
1012.153	-1756
1012.225	-746
1012.298	-1344
1012.371	-1758
1012.443	-909
1012.516	-1653
1012.588	-557
1012.661	-1161
1012.733	-1502
1012.806	-645
1012.879	-1440
1012.951	-1032
1013.023	-605
1013.096	-802
1013.168	-1273
1013.241	-1021
1013.313	-1702
1013.385	-1512
1013.458	-469
1013.530	-341
1013.602	-1848
1013.674	50
1013.746	-1877
1013.819	-1633
1013.891	-778
1013.963	-2207
1014.035	-1287
1014.107	-1396
1014.179	-471
1014.251	-1813
1014.323	-1039
1014.395	-1549
1014.467	-921
1014.539	-1007
1014.611	-1586
1014.683	-1309
1014.754	-1057
1014.826	-1639
1014.898	-1018
1014.970	-1770
1015.042	-686
1015.113	-26
1015.185	-604
1015.257	-1822
1015.328	-844
1015.400	-1298
1015.471	-946
1015.543	-2127
1015.615	-1530
1015.686	-1387
1015.757	-2044
1015.829	-1069
1015.901	-1075
1015.972	-907
1016.043	-1548
1016.115	-1139
1016.186	-991
1016.257	-1989
1016.328	-1358
1016.400	-762
1016.471	-1589
1016.542	-756
1016.613	-1423
1016.685	-1797
1016.756	-1324
1016.827	-1463
1016.898	-1760
1016.969	-1517
1017.040	-1638
1017.111	-842
1017.182	-1514
1017.253	-662
1017.324	-877
1017.395	-2222
1017.466	-2046
1017.537	-714
1017.608	-1235
1017.678	-1349
1017.749	-2108
1017.820	-1928
1017.891	-1665
1017.961	-1718
1018.032	-1886
1018.103	-1431
1018.173	-1439
1018.244	-1421
1018.315	-1556
1018.385	-537
1018.456	-1789
1018.526	-1818
1018.597	-1673
1018.667	-1717
1018.738	-2407
1018.808	-2255
1018.878	-1161
1018.949	-1103
1019.019	-874
1019.089	-1676
1019.160	-1223
1019.230	-1520
1019.300	-1562
1019.371	-2220
1019.441	-314
1019.511	-1363
1019.581	-1112
1019.651	-765
1019.721	-1601
1019.791	-1406
1019.861	-987
1019.931	-1307
1020.001	-916
1020.071	-1291
1020.141	-1686
1020.211	-1299
1020.281	-1619
1020.351	-1169
1020.421	-1576
1020.491	-469
1020.560	-2795
1020.630	-1850
1020.700	-1296
1020.770	-1611
1020.839	-2342
1020.909	-1502
1020.979	-1924
1021.048	-1832
1021.118	-1356
1021.187	-2490
1021.257	-1050
1021.326	-1529
1021.396	-1670
1021.465	-1289
1021.535	-1436
1021.604	-2411
1021.674	-1381
1021.743	-1308
1021.812	-1980
1021.882	-1442
1021.951	-1323
1022.020	-1995
1022.089	-1126
1022.159	-1615
1022.228	-933
1022.297	-1439
1022.366	-1586
1022.435	-1827
1022.504	-1911
1022.573	-1225
1022.642	-2030
1022.711	-2329
1022.781	-908
1022.849	-1558
1022.918	-2324
1022.987	-1110
1023.056	-2097
1023.125	-1998
1023.194	-1726
1023.263	-1811
1023.331	-1439
1023.400	-1508
1023.469	-2251
1023.538	-2018
1023.606	-2316
1023.675	-1827
1023.744	-2310
1023.812	-1926
1023.881	-2777
1023.949	-1763
1024.018	-1752
1024.086	-1338
1024.155	-1739
1024.223	-1611
1024.292	-1871
1024.360	-2527
1024.429	-1943
1024.497	-1727
1024.565	-1703
1024.634	-1961
1024.702	-1462
1024.770	-1205
1024.838	-1873
1024.907	-1197
1024.975	-1018
1025.043	-1022
1025.111	-2108
1025.179	-873
1025.247	-2158
1025.315	-1227
1025.383	-1632
1025.451	-1222
1025.519	-2122
1025.587	-1742
1025.655	-2174
1025.723	-1466
1025.791	-1635
1025.859	-1433
1025.927	-1094
1025.995	-1633
1026.062	-2398
1026.130	-1887
1026.198	-1923
1026.266	-1611
1026.333	-1704
1026.401	-670
1026.469	-1325
1026.536	-1952
1026.604	-2653
1026.671	-1760
1026.739	-1746
1026.806	-2700
1026.874	-1411
1026.941	-1531
1027.009	-2231
1027.076	-1251
1027.144	-1664
1027.211	-2475
1027.278	-2175
1027.345	-1806
1027.413	-1740
1027.480	-2419
1027.547	-1793
1027.614	-1876
1027.682	-1998
1027.749	-1380
1027.816	-2451
1027.883	-1432
1027.950	-2366
1028.017	-1897
1028.084	-1303
1028.151	-1998
1028.218	-1976
1028.285	-1516
1028.352	-1663
1028.419	-1756
1028.486	-1485
1028.553	-1241
1028.619	-1743
1028.686	-1283
1028.753	-1860
1028.820	-1369
1028.886	-2365
1028.953	-957
1029.020	-2669
1029.086	-1499
1029.153	-1175
1029.220	-1722
1029.286	-1629
1029.353	-1407
1029.419	-1498
1029.486	-1271
1029.552	-2445
1029.619	-1965
1029.685	-1847
1029.751	-1984
1029.818	-1445
1029.884	-2205
1029.951	-1371
1030.017	-1691
1030.083	-1337
1030.149	-1411
1030.216	-1801
1030.282	-1503
1030.348	-2020
1030.414	-1782
1030.480	-1762
1030.546	-1425
1030.612	-2192
1030.678	-1594
1030.744	-1896
1030.810	-875
1030.876	-2242
1030.942	-1753
1031.008	-1332
1031.074	-1888
1031.140	-1408
1031.206	-1570
1031.272	-1888
1031.337	-1057
1031.403	-1871
1031.469	-2529
1031.534	-1974
1031.600	-791
1031.666	-2500
1031.731	-1241
1031.797	-1727
1031.863	-1192
1031.928	-2169
1031.994	-2216
1032.059	-2348
1032.125	-1699
1032.190	-1259
1032.256	-2330
1032.321	-2166
1032.386	-1760
1032.452	-867
1032.517	-791
1032.582	-2585
1032.647	-1975
1032.713	-1740
1032.778	-660
1032.843	-2339
1032.908	-1302
1032.974	-1909
1033.039	-1279
1033.104	-1417
1033.169	-2304
1033.234	-1828
1033.299	-891
1033.364	-1246
1033.429	-1282
1033.494	-2352
1033.559	-1145
1033.624	-1411
1033.688	-681
1033.753	-1575
1033.818	-1914
1033.883	-1457
1033.948	-1218
1034.013	-1155
1034.077	-931
1034.142	-55
1034.207	-192
1034.271	2050
1034.336	1715
1034.400	-201
1034.465	-317
1034.530	-1141
1034.594	-1306
1034.658	-1743
1034.723	-1429
1034.787	-1544
1034.852	-1337
1034.916	-2269
1034.981	-1644
1035.045	-1847
1035.109	-1250
1035.173	-1764
1035.238	-1516
1035.302	-1256
1035.366	-1362
1035.430	-1429
1035.495	-1813
1035.559	-1623
1035.623	-1428
1035.687	-2131
1035.751	-2297
1035.815	-2023
1035.879	-2192
1035.943	-1504
1036.007	-1762
1036.071	-1248
1036.135	-1323
1036.198	-1774
1036.262	-1721
1036.326	-1984
1036.390	-1599
1036.454	-1282
1036.517	-1244
1036.581	-1412
1036.645	-1122
1036.709	-752
1036.772	-797
1036.836	-1649
1036.900	-1222
1036.963	-1997
1037.026	-1986
1037.090	-1702
1037.154	-1809
1037.217	-2155
1037.280	-2142
1037.344	-1697
1037.407	-1686
1037.471	-2072
1037.534	-1394
1037.597	-1086
1037.661	-1078
1037.724	-1457
1037.787	-1168
1037.850	-1935
1037.913	-1247
1037.977	-703
1038.040	-1103
1038.103	-1594
1038.166	-2136
1038.229	-1415
1038.292	-2015
1038.355	-1950
1038.418	-1430
1038.481	-1350
1038.544	-1049
1038.607	-1683
1038.670	-1991
1038.732	-1864
1038.795	-982
1038.858	-1500
1038.921	-914
1038.984	-1362
1039.046	-1663
1039.109	-1695
1039.172	-1145
1039.234	-1903
1039.297	-1367
1039.360	-1709
1039.422	-1707
1039.485	-1207
1039.547	-1846
1039.610	-1416
1039.672	-1624
1039.734	-1364
1039.797	-1954
1039.859	-879
1039.922	-1688
1039.984	-1351
1040.046	-1444
1040.109	-1937
1040.171	-1702
1040.233	-1775
1040.295	-1679
1040.358	-1724
1040.420	-1718
1040.482	-2043
1040.544	-1380
1040.606	-1344
1040.668	-1363
1040.730	-1422
1040.792	-1395
1040.854	-1812
1040.916	-1156
1040.978	-2677
1041.040	-698
1041.102	-838
1041.164	-1801
1041.225	-1811
1041.287	-1911
1041.349	-1347
1041.411	-1068
1041.472	-1287
1041.534	-2160
1041.596	-2117
1041.657	-1029
1041.719	-1210
1041.781	-2442
1041.842	-1362
1041.904	-1307
1041.965	-1766
1042.027	-797
1042.088	-968
1042.150	-880
1042.211	-1817
1042.272	-901
1042.334	-2096
1042.395	-1835
1042.456	-1322
1042.518	-1041
1042.579	-957
1042.640	-1222
1042.701	-1126
1042.763	-1782
1042.824	-1964
1042.885	-1162
1042.946	-1677
1043.007	-1625
1043.068	-1444
1043.129	-1728
1043.190	-1415
1043.251	-716
1043.312	-1426
1043.373	-422
1043.434	-2157
1043.495	-2055
1043.556	-1302
1043.616	-966
1043.677	-1402
1043.738	-771
1043.799	-1345
1043.859	-1036
1043.920	-1172
1043.981	-1541
1044.041	-1377
1044.102	-1462
1044.162	-1304
1044.223	-1019
1044.284	-1721
1044.344	-1628
1044.405	-1646
1044.465	-558
1044.525	-1894
1044.586	-627
1044.646	-1660
1044.707	-2088
1044.767	-1967
1044.827	-942
1044.887	-1556
1044.948	-1556
1045.008	-1067
1045.068	-892
1045.128	-1345
1045.188	-1585
1045.249	-1017
1045.309	-1553
1045.369	-2065
1045.429	-1581
1045.489	-1647
1045.549	-1545
1045.609	-1113
1045.669	-453
1045.729	-1509
1045.789	-338
1045.848	-1756
1045.908	-1780
1045.968	-646
1046.028	-967
1046.088	-770
1046.147	-1273
1046.207	-1196
1046.267	-524
1046.326	-791
1046.386	-1591
1046.446	-627
1046.505	-763
1046.565	-777
1046.624	-55
1046.684	-350
1046.743	-359
1046.803	-304
1046.862	-153
1046.922	0
