'Start Wavelength	183.907
'End Wavelength	1046.922
'Gate Delay	5.000
'Gate Width (ms)	1.050
'Laser Output Level	0.000
'X Position	0.000
'Y Position	0.000
'Z Position	0.000
'Grid Point Number	1.000
'Shot Number	100.000
183.907	291.000
183.977	-417.000
184.047	99
184.116	476
184.186	520
184.256	241
184.325	331
184.395	-861
184.465	322
184.534	391
184.604	55
184.674	662
184.743	-91
184.813	1234
184.883	152
184.952	541
185.022	102
185.092	57
185.161	201
185.231	-281
185.301	-267
185.370	-93
185.440	131
185.509	-21
185.579	-99
185.649	301
185.718	455
185.788	624
185.857	671
185.927	-685
185.996	-107
186.066	-430
186.136	92
186.205	568
186.275	-204
186.344	-47
186.414	-324
186.483	-1284
186.553	1774
186.622	655
186.692	390
186.761	205
186.831	268
186.900	-708
186.970	548
187.039	292
187.109	1102
187.178	88
187.248	250
187.317	391
187.387	-508
187.456	288
187.526	41
187.595	-241
187.664	127
187.734	9
187.803	584
187.873	-109
187.942	-556
188.012	-336
188.081	-57
188.150	-399
188.220	42
188.289	521
188.358	409
188.428	390
188.497	143
188.567	620
188.636	550
188.705	98
188.775	112
188.844	-475
188.913	1208
188.983	-164
189.052	-138
189.121	-123
189.191	63
189.260	434
189.329	-49
189.399	-38
189.468	687
189.537	-252
189.606	150
189.676	201
189.745	600
189.814	164
189.883	-262
189.953	426
190.022	-26
190.091	-39
190.161	1296
190.230	-153
190.299	-268
190.368	-231
190.437	294
190.507	-834
190.576	113
190.645	-73
190.714	237
190.783	-468
190.853	514
190.922	-151
190.991	-105
191.060	-3
191.129	230
191.198	52
191.268	154
191.337	-166
191.406	921
191.475	-114
191.544	516
191.613	-81
191.682	-684
191.752	-211
191.821	347
191.890	-89
191.959	355
192.028	608
192.097	454
192.166	139
192.235	-287
192.304	259
192.373	487
192.442	368
192.511	581
192.580	293
192.650	83
192.719	-511
192.788	513
192.857	78
192.926	145
192.995	58
193.064	-736
193.133	462
193.202	330
193.271	29
193.340	1248
193.409	909
193.478	576
193.547	1163
193.615	1127
193.684	654
193.753	287
193.822	167
193.891	674
193.960	921
194.029	-372
194.098	-228
194.167	-597
194.236	-176
194.305	72
194.374	345
194.443	1082
194.512	151
194.580	134
194.649	-425
194.718	792
194.787	549
194.856	-398
194.925	115
194.994	503
195.062	9
195.131	-280
195.200	-36
195.269	200
195.338	178
195.407	642
195.475	-36
195.544	865
195.613	430
195.682	566
195.751	28
195.819	230
195.888	660
195.957	1342
196.026	955
196.094	1563
196.163	545
196.232	703
196.301	-233
196.369	875
196.438	-297
196.507	524
196.576	-345
196.644	-341
196.713	99
196.782	443
196.850	578
196.919	-376
196.988	416
197.056	-755
197.125	236
197.194	640
197.262	153
197.331	128
197.400	648
197.468	196
197.537	-301
197.606	531
197.674	465
197.743	836
197.812	648
197.880	-46
197.949	186
198.017	927
198.086	466
198.155	-626
198.223	51
198.292	-16
198.360	-213
198.429	-463
198.497	-361
198.566	121
198.635	1224
198.703	674
198.772	792
198.840	160
198.909	178
198.977	-687
199.046	183
199.114	425
199.183	203
199.251	137
199.320	-151
199.388	489
199.457	12
199.525	727
199.594	380
199.662	-30
199.731	184
199.799	668
199.867	311
199.936	92
200.004	1093
200.073	682
200.141	-143
200.210	-143
200.278	-175
200.346	170
200.415	-558
200.483	381
200.552	267
200.620	13
200.688	468
200.757	532
200.825	-120
200.893	184
200.962	273
201.030	158
201.098	-537
201.167	168
201.235	-179
201.303	232
201.372	83
201.440	404
201.508	401
201.577	545
201.645	-23
201.713	424
201.781	551
201.850	665
201.918	213
201.986	284
202.055	875
202.123	89
202.191	189
202.259	341
202.327	-699
202.396	-54
202.464	527
202.532	622
202.600	799
202.669	557
202.737	511
202.805	-479
202.873	47
202.941	-265
203.009	-7
203.078	-90
203.146	-137
203.214	-331
203.282	-346
203.350	458
203.418	215
203.487	857
203.555	234
203.623	238
203.691	353
203.759	260
203.827	-334
203.895	583
203.963	-904
204.031	-321
204.099	81
204.168	-22
204.236	211
204.304	214
204.372	96
204.440	-362
204.508	-344
204.576	-211
204.644	-162
204.712	-528
204.780	18
204.848	193
204.916	-800
204.984	135
205.052	-284
205.120	219
205.188	300
205.256	-316
205.324	620
205.392	-392
205.460	-340
205.528	493
205.596	486
205.664	304
205.732	-338
205.799	727
205.867	-30
205.935	-353
206.003	140
206.071	381
206.139	-272
206.207	438
206.275	-125
206.343	-15
206.411	-356
206.478	695
206.546	371
206.614	1013
206.682	-45
206.750	608
206.818	1097
206.885	894
206.953	-254
207.021	1511
207.089	178
207.157	-402
207.225	263
207.292	429
207.360	-350
207.428	311
207.496	309
207.563	555
207.631	457
207.699	-364
207.767	144
207.834	-373
207.902	-52
207.970	534
208.038	884
208.105	797
208.173	-6
208.241	117
208.309	504
208.376	675
208.444	1002
208.512	-130
208.579	-1400
208.647	-208
208.715	742
208.782	457
208.850	-396
208.918	540
208.985	70
209.053	371
209.120	688
209.188	-251
209.256	73
209.323	-178
209.391	180
209.459	1572
209.526	625
209.594	185
209.661	-410
209.729	835
209.796	527
209.864	1063
209.932	-421
209.999	1380
210.067	1093
210.134	348
210.202	54
210.269	969
210.337	714
210.404	192
210.472	-21
210.539	497
210.607	-520
210.674	513
210.742	-544
210.809	26
210.877	143
210.944	929
211.012	-381
211.079	1785
211.146	182
211.214	456
211.281	768
211.349	1423
211.416	740
211.484	597
211.551	272
211.618	-187
211.686	796
211.753	-208
211.821	652
211.888	1198
211.955	722
212.023	833
212.090	344
212.157	472
212.225	-685
212.292	588
212.359	1322
212.427	3371
212.494	1267
212.561	1202
212.629	795
212.696	331
212.763	1133
212.831	-221
212.898	806
212.965	645
213.032	511
213.100	207
213.167	145
213.234	550
213.301	299
213.369	906
213.436	252
213.503	705
213.570	602
213.638	516
213.705	-654
213.772	358
213.839	40
213.906	1004
213.973	681
214.041	572
214.108	764
214.175	-196
214.242	-133
214.309	390
214.376	165
214.444	156
214.511	660
214.578	865
214.645	730
214.712	337
214.779	252
214.846	-661
214.913	784
214.980	950
215.048	550
215.115	826
215.182	1209
215.249	-46
215.316	70
215.383	778
215.450	1139
215.517	954
215.584	402
215.651	643
215.718	519
215.785	1082
215.852	15
215.919	1209
215.986	1252
216.053	1148
216.120	-68
216.187	295
216.254	-15
216.321	-117
216.388	539
216.455	772
216.522	863
216.589	474
216.656	1421
216.722	1226
216.789	1014
216.856	887
216.923	929
216.990	1350
217.057	38
217.124	964
217.191	483
217.258	1680
217.324	1228
217.391	1922
217.458	1582
217.525	1665
217.592	315
217.659	-273
217.725	529
217.792	1037
217.859	864
217.926	-17
217.993	252
218.059	815
218.126	465
218.193	-231
218.260	300
218.327	-14
218.393	-161
218.460	88
218.527	-769
218.594	697
218.660	715
218.727	1070
218.794	-410
218.860	981
218.927	-368
218.994	205
219.061	439
219.127	897
219.194	936
219.261	866
219.327	-521
219.394	780
219.461	-189
219.527	785
219.594	898
219.661	627
219.727	-475
219.794	713
219.860	-120
219.927	208
219.994	1105
220.060	1226
220.127	715
220.193	757
220.260	-151
220.326	534
220.393	1206
220.460	1579
220.526	926
220.593	1375
220.659	2425
220.726	111
220.792	2940
220.859	2012
220.925	2083
220.992	4454
221.058	3890
221.125	3366
221.191	1482
221.258	513
221.324	1441
221.391	607
221.457	148
221.524	322
221.590	569
221.657	2558
221.723	1365
221.789	1601
221.856	1907
221.922	-162
221.989	894
222.055	137
222.121	-812
222.188	1995
222.254	609
222.321	443
222.387	-456
222.453	-346
222.520	-106
222.586	-737
222.652	480
222.719	-241
222.785	-23
222.851	-109
222.918	383
222.984	-301
223.050	38
223.116	-642
223.183	565
223.249	-286
223.315	-293
223.382	377
223.448	145
223.514	4
223.580	-398
223.647	-293
223.713	-302
223.779	-351
223.845	-11
223.911	1213
223.978	-851
224.044	-297
224.110	-230
224.176	251
224.242	300
224.309	-419
224.375	-78
224.441	428
224.507	-695
224.573	-211
224.639	736
224.705	-880
224.772	21
224.838	-160
224.904	303
224.970	51
225.036	265
225.102	-178
225.168	-68
225.234	689
225.300	-240
225.366	299
225.432	370
225.499	732
225.565	-383
225.631	36
225.697	-571
225.763	229
225.829	841
225.895	518
225.961	1396
226.027	1253
226.093	-120
226.159	1117
226.225	1186
226.291	3276
226.357	6315
226.423	3338
226.489	1105
226.554	871
226.620	1105
226.686	1348
226.752	1756
226.818	2677
226.884	6969
226.950	7610
227.016	2070
227.082	898
227.148	511
227.214	1992
227.279	1167
227.345	803
227.411	1035
227.477	832
227.543	2826
227.609	1957
227.674	2205
227.740	1124
227.806	706
227.872	-26
227.938	55
228.003	2184
228.069	35
228.135	-281
228.201	147
228.267	316
228.332	673
228.398	-450
228.464	-121
228.530	-547
228.595	-295
228.661	-342
228.727	51
228.792	2114
228.858	-1027
228.924	-1303
228.990	939
229.055	-344
229.121	1211
229.187	354
229.252	-101
229.318	-107
229.384	915
229.449	-124
229.515	-1037
229.581	-724
229.646	905
229.712	601
229.777	914
229.843	717
229.909	1195
229.974	1048
230.040	997
230.105	675
230.171	-868
230.236	895
230.302	1121
230.368	1020
230.433	-463
230.499	379
230.564	1096
230.630	-21
230.695	301
230.761	1214
230.826	-827
230.892	2131
230.957	-1088
231.023	595
231.088	723
231.154	902
231.219	44
231.284	218
231.350	1820
231.415	-772
231.481	654
231.546	-264
231.612	266
231.677	168
231.742	-974
231.808	1316
231.873	-490
231.939	-1912
232.004	734
232.069	1724
232.135	-142
232.200	-392
232.265	246
232.331	-492
232.396	94
232.461	-98
232.527	278
232.592	-578
232.657	67
232.723	1089
232.788	-536
232.853	92
232.918	-72
232.984	-434
233.049	-364
233.114	144
233.179	66
233.245	1562
233.310	1252
233.375	-654
233.440	-68
233.506	-452
233.571	86
233.636	112
233.701	54
233.766	534
233.832	1350
233.897	590
233.962	-694
234.027	1450
234.092	579
234.157	-275
234.222	-710
234.288	941
234.353	3315
234.418	2772
234.483	2498
234.548	1038
234.613	672
234.678	578
234.743	-498
234.808	4742
234.873	850
234.938	1544
235.004	-46
235.069	268
235.134	22
235.199	474
235.264	562
235.329	-594
235.394	508
235.459	1182
235.524	-427
235.589	739
235.654	-314
235.719	-802
235.784	280
235.849	870
235.913	1073
235.978	1739
236.043	1042
236.108	-420
236.173	-336
236.238	1588
236.303	52
236.368	-50
236.433	1482
236.498	2090
236.563	1450
236.627	1894
236.692	9124
236.757	7436
236.822	2648
236.887	1244
236.952	2115
237.017	13
237.081	2756
237.146	1471
237.211	3873
237.276	8786
237.341	16139
237.405	7479
237.470	2718
237.535	2181
237.600	1863
237.664	1274
237.729	-80
237.794	738
237.859	3250
237.923	1696
237.988	854
238.053	1436
238.118	1404
238.182	3586
238.247	5656
238.312	1396
238.376	1449
238.441	-875
238.506	1124
238.570	-836
238.635	1704
238.700	228
238.764	138
238.829	1582
238.893	2470
238.958	1166
239.023	630
239.087	406
239.152	785
239.216	219
239.281	4
239.346	424
239.410	-552
239.475	382
239.539	4928
239.604	3466
239.668	630
239.733	572
239.797	1379
239.862	3897
239.926	4596
239.991	2235
240.055	691
240.120	790
240.184	1014
240.249	-2
240.313	50
240.378	548
240.442	2532
240.507	4840
240.571	539
240.635	1557
240.700	2858
240.764	795
240.829	253
240.893	-622
240.957	978
241.022	2146
241.086	5722
241.151	1336
241.215	-313
241.279	1623
241.344	702
241.408	446
241.472	-184
241.537	888
241.601	747
241.665	-615
241.730	-242
241.794	606
241.858	-158
241.922	146
241.987	317
242.051	-117
242.115	-518
242.179	796
242.244	-410
242.308	984
242.372	675
242.436	485
242.501	926
242.565	-190
242.629	-407
242.693	913
242.757	-972
242.822	479
242.886	1005
242.950	342
243.014	-321
243.078	425
243.142	174
243.206	229
243.271	-401
243.335	374
243.399	987
243.463	2205
243.527	11500
243.591	2973
243.655	1609
243.719	-412
243.783	1593
243.847	1525
243.911	1774
243.975	1983
244.040	676
244.104	2183
244.168	-126
244.232	876
244.296	1852
244.360	1574
244.424	246
244.488	356
244.552	844
244.615	-722
244.679	-254
244.743	478
244.807	616
244.871	94
244.935	682
244.999	-1436
245.063	372
245.127	1440
245.191	464
245.255	656
245.319	336
245.383	-458
245.446	1395
245.510	-335
245.574	741
245.638	1042
245.702	-799
245.766	2470
245.829	1728
245.893	-136
245.957	228
246.021	1354
246.085	398
246.149	902
246.212	3598
246.276	4780
246.340	1802
246.404	1208
246.467	2348
246.531	1150
246.595	2136
246.659	2092
246.722	110
246.786	2170
246.850	1117
246.913	2081
246.977	623
247.041	811
247.104	784
247.168	1239
247.232	2794
247.295	6635
247.359	3240
247.423	1142
247.486	2832
247.550	2676
247.614	1054
247.677	1974
247.741	1324
247.804	492
247.868	1216
247.932	1632
247.995	7018
248.059	1492
248.122	668
248.186	2848
248.249	2323
248.313	9581
248.376	11787
248.440	6900
248.503	1267
248.567	3160
248.630	1999
248.694	4327
248.757	5225
248.821	11208
248.884	8087
248.948	6576
249.011	8998
249.075	12258
249.138	11926
249.202	4398
249.265	2344
249.328	3196
249.392	1576
249.455	2282
249.519	1174
249.582	2366
249.645	3307
249.709	1965
249.772	1887
249.835	1347
249.899	1866
249.962	2539
250.025	813
250.089	3196
250.152	6777
250.215	2721
250.279	1138
250.342	1829
250.405	1662
250.468	1249
250.532	2352
250.595	3958
250.658	9084
250.721	18924
250.785	6402
250.848	4292
250.911	1590
250.974	2526
251.038	2933
251.101	6301
251.164	3463
251.227	3798
251.290	2095
251.354	3738
251.417	13826
251.480	16626
251.543	8278
251.606	27062
251.669	20902
251.732	7796
251.795	8853
251.859	9869
251.922	18061
251.985	12022
252.048	4971
252.111	4048
252.174	2068
252.237	6058
252.300	13756
252.363	12186
252.426	26313
252.489	11459
252.552	6371
252.615	4113
252.678	4986
252.741	9711
252.804	10782
252.867	24561
252.930	16840
252.993	9402
253.056	5952
253.119	4300
253.182	2683
253.245	4247
253.308	3915
253.371	3083
253.434	4046
253.497	3795
253.559	7614
253.622	4885
253.685	5308
253.748	7776
253.811	2791
253.874	3831
253.937	2241
254.000	2718
254.062	4213
254.125	7328
254.188	7347
254.251	5979
254.314	2667
254.376	4648
254.439	6191
254.502	5214
254.565	3953
254.628	8685
254.690	4829
254.753	2990
254.816	2159
254.878	2666
254.941	4137
255.004	5713
255.067	2001
255.129	1704
255.192	1372
255.255	669
255.317	1295
255.380	929
255.443	512
255.505	1139
255.568	-285
255.631	416
255.693	1141
255.756	381
255.819	2400
255.881	587
255.944	1315
256.006	-64
256.069	707
256.132	571
256.194	1052
256.257	4193
256.319	2441
256.382	1798
256.444	1099
256.507	1525
256.569	769
256.632	970
256.694	953
256.757	4991
256.819	15293
256.882	5366
256.944	1798
257.007	2480
257.069	1340
257.132	1906
257.194	1790
257.257	944
257.319	186
257.381	254
257.444	3068
257.506	15964
257.569	20802
257.631	11444
257.693	6366
257.756	2096
257.818	1756
257.880	1934
257.943	1779
258.005	825
258.067	588
258.130	1060
258.192	647
258.254	2869
258.317	1649
258.379	1733
258.441	3110
258.503	3772
258.566	4844
258.628	8702
258.690	1392
258.753	2400
258.815	3086
258.877	804
258.939	980
259.001	696
259.064	990
259.126	324
259.188	1720
259.250	1564
259.312	779
259.375	5643
259.437	3696
259.499	1225
259.561	524
259.623	1571
259.685	1211
259.747	1966
259.809	3543
259.872	10359
259.934	13117
259.996	16062
260.058	4274
260.120	1888
260.182	986
260.244	1248
260.306	208
260.368	586
260.430	806
260.492	2872
260.554	7176
260.616	4570
260.678	5393
260.740	11977
260.802	2478
260.864	1856
260.926	779
260.988	1989
261.050	954
261.112	4236
261.174	13026
261.236	9892
261.298	2319
261.359	3651
261.421	7865
261.483	1243
261.545	1624
261.607	228
261.669	448
261.731	1956
261.793	6996
261.854	1630
261.916	2058
261.978	1380
262.040	2719
262.102	2153
262.164	1302
262.225	2163
262.287	336
262.349	2217
262.411	3198
262.472	2275
262.534	2263
262.596	6394
262.658	2093
262.719	453
262.781	1851
262.843	5068
262.904	2443
262.966	2039
263.028	1245
263.090	8018
263.151	23784
263.213	9786
263.275	4840
263.336	2034
263.398	1965
263.459	45
263.521	1068
263.583	2994
263.644	2499
263.706	1447
263.767	159
263.829	937
263.891	528
263.952	132
264.014	-270
264.075	1836
264.137	7187
264.198	2529
264.260	364
264.321	392
264.383	2135
264.444	10615
264.506	3299
264.567	1837
264.629	3812
264.690	7714
264.752	2673
264.813	865
264.875	-18
264.936	963
264.998	980
265.059	685
265.120	247
265.182	660
265.243	5761
265.305	8521
265.366	1517
265.427	620
265.489	1435
265.550	291
265.611	384
265.673	1101
265.734	1320
265.795	859
265.857	-491
265.918	-64
265.979	2085
266.040	11103
266.102	10316
266.163	3833
266.224	2268
266.286	2092
266.347	-299
266.408	743
266.469	812
266.530	818
266.592	-96
266.653	910
266.714	3605
266.775	817
266.836	430
266.898	-264
266.959	1840
267.020	1358
267.081	1091
267.142	-415
267.203	-182
267.264	-1028
267.326	1100
267.387	46
267.448	110
267.509	84
267.570	271
267.631	220
267.692	-604
267.753	697
267.814	-202
267.875	1433
267.936	4495
267.997	2308
268.058	2395
268.119	297
268.180	410
268.241	381
268.302	155
268.363	386
268.424	989
268.485	1247
268.546	-324
268.607	-513
268.668	-837
268.729	284
268.790	-128
268.851	1312
268.912	2537
268.972	3814
269.033	1318
269.094	226
269.155	478
269.216	13
269.277	218
269.338	-114
269.398	310
269.459	64
269.520	578
269.581	1558
269.642	2348
269.702	1214
269.763	-86
269.824	576
269.885	494
269.945	2046
270.006	1138
270.067	-428
270.128	-217
270.188	1055
270.249	295
270.310	-64
270.370	-526
270.431	271
270.492	410
270.553	-145
270.613	2042
270.674	5350
270.734	2449
270.795	976
270.856	1188
270.916	-100
270.977	806
271.038	930
271.098	1002
271.159	1628
271.219	1476
271.280	592
271.340	770
271.401	314
271.462	2335
271.522	1469
271.583	741
271.643	689
271.704	391
271.764	1470
271.825	2998
271.885	10199
271.946	15223
272.006	5166
272.066	5180
272.127	11620
272.187	3358
272.248	1903
272.308	1202
272.369	6786
272.429	5028
272.489	2830
272.550	3626
272.610	4284
272.671	2610
272.731	2622
272.791	4079
272.852	1677
272.912	1893
272.972	1246
273.033	952
273.093	1555
273.153	2113
273.214	1318
273.274	1215
273.334	6908
273.394	12825
273.455	5419
273.515	4450
273.575	11801
273.635	4370
273.696	5884
273.756	12293
273.816	5562
273.876	3228
273.936	4478
273.997	12520
274.057	3108
274.117	1735
274.177	2801
274.237	14701
274.297	15139
274.358	8737
274.418	8782
274.478	7367
274.538	3122
274.598	1300
274.658	7951
274.718	11489
274.778	4746
274.838	1996
274.898	3850
274.958	15371
275.018	12642
275.078	7862
275.138	3330
275.198	1572
275.258	709
275.318	2026
275.378	3618
275.438	4595
275.498	2825
275.558	5525
275.618	14184
275.678	9102
275.738	5259
275.798	4996
275.858	2579
275.918	994
275.978	1210
276.038	995
276.098	800
276.157	2059
276.217	8375
276.277	4071
276.337	2430
276.397	1968
276.457	2527
276.517	1346
276.576	933
276.636	474
276.696	1640
276.756	5002
276.815	4551
276.875	1095
276.935	2193
276.995	1925
277.055	1004
277.114	624
277.174	2017
277.234	7217
277.293	3754
277.353	1552
277.413	1144
277.472	959
277.532	1264
277.592	2193
277.651	6089
277.711	14065
277.771	4160
277.830	14392
277.890	13469
277.950	6759
278.009	26436
278.069	11083
278.128	8453
278.188	14371
278.248	5463
278.307	13680
278.367	9653
278.426	2113
278.486	2126
278.545	951
278.605	1708
278.664	1053
278.724	1477
278.783	3761
278.843	12890
278.902	4019
278.962	1778
279.021	1569
279.081	2529
279.140	2961
279.199	1678
279.259	1907
279.318	2404
279.378	3266
279.437	6198
279.496	19503
279.556	59358
279.615	57989
279.675	15162
279.734	7300
279.793	8898
279.853	16700
279.912	7399
279.971	3037
280.031	4094
280.090	5561
280.149	12927
280.208	9436
280.268	41283
280.327	54281
280.386	11528
280.445	8065
280.505	7677
280.564	4226
280.623	3891
280.682	4546
280.742	7515
280.801	2559
280.860	994
280.919	1417
280.978	1923
281.037	564
281.097	1393
281.156	1522
281.215	549
281.274	1779
281.333	7712
281.392	7038
281.451	2096
281.510	584
281.569	834
281.628	1680
281.688	1422
281.747	1388
281.806	1506
281.865	970
281.924	164
281.983	481
282.042	925
282.101	84
282.160	1322
282.219	860
282.278	1512
282.337	5022
282.396	3526
282.454	1205
282.513	1717
282.572	7932
282.631	6056
282.690	1201
282.749	1103
282.808	1174
282.867	1956
282.926	1628
282.985	1186
283.043	574
283.102	752
283.161	1126
283.220	3618
283.279	9417
283.338	3511
283.396	1232
283.455	1679
283.514	1417
283.573	2428
283.631	1972
283.690	1616
283.749	971
283.808	2457
283.866	4162
283.925	1035
283.984	1712
284.043	1725
284.101	1774
284.160	1209
284.219	3649
284.277	2438
284.336	3246
284.395	10600
284.453	10596
284.512	3750
284.570	4405
284.629	4581
284.688	3866
284.746	3880
284.805	4850
284.863	6242
284.922	7723
284.981	9723
285.039	12405
285.098	20791
285.156	43518
285.215	74862
285.273	76279
285.332	54829
285.390	29111
285.449	18867
285.507	12792
285.566	9382
285.624	7393
285.683	5665
285.741	4922
285.799	3468
285.858	2997
285.916	3237
285.975	1732
286.033	2363
286.091	1937
286.150	1402
286.208	1739
286.267	2571
286.325	2167
286.383	2838
286.442	3547
286.500	1275
286.558	1368
286.616	853
286.675	2481
286.733	1344
286.791	1177
286.850	2273
286.908	1878
286.966	5133
287.024	1472
287.083	887
287.141	1236
287.199	1687
287.257	1996
287.315	2110
287.374	1740
287.432	3242
287.490	3592
287.548	948
287.606	1223
287.664	1225
287.723	2102
287.781	2970
287.839	1878
287.897	2046
287.955	1800
288.013	2084
288.071	5244
288.129	19018
288.187	69568
288.245	32110
288.303	8999
288.361	4777
288.419	3607
288.477	3351
288.535	1675
288.593	1502
288.651	1839
288.709	1202
288.767	1338
288.825	684
288.883	951
288.941	1355
288.999	1076
289.057	549
289.115	251
289.173	1254
289.231	992
289.289	1830
289.346	1120
289.404	1706
289.462	3002
289.520	2768
289.578	1315
289.636	857
289.694	675
289.751	578
289.809	734
289.867	389
289.925	1662
289.983	1079
290.040	798
290.098	775
290.156	711
290.214	1743
290.271	464
290.329	966
290.387	676
290.444	36
290.502	-461
290.560	1183
290.617	1404
290.675	1306
290.733	686
290.790	1416
290.848	1607
290.906	993
290.963	1627
291.021	1183
291.078	2365
291.136	1864
291.194	4900
291.251	16045
291.309	5035
291.366	1709
291.424	812
291.481	1603
291.539	689
291.596	1717
291.654	685
291.711	1194
291.769	1335
291.826	2497
291.884	1454
291.941	601
291.999	439
292.056	1456
292.114	1633
292.171	1075
292.228	675
292.286	2190
292.343	2976
292.401	4741
292.458	2917
292.515	2568
292.573	2429
292.630	2495
292.687	2379
292.745	1618
292.802	1924
292.859	9159
292.917	11968
292.974	7415
293.031	1838
293.089	2212
293.146	1330
293.203	1422
293.260	1610
293.318	2136
293.375	5484
293.432	3830
293.489	1989
293.546	953
293.604	2535
293.661	4914
293.718	16351
293.775	12994
293.832	5844
293.889	3512
293.947	4279
294.004	3003
294.061	3429
294.118	4888
294.175	12680
294.232	21031
294.289	9967
294.346	4348
294.403	2455
294.460	2414
294.517	1634
294.574	1994
294.631	2692
294.688	2978
294.745	5101
294.802	18933
294.859	29683
294.916	13251
294.973	6614
295.030	4849
295.087	3400
295.144	3355
295.201	2009
295.258	1929
295.315	2651
295.372	5755
295.429	13943
295.486	7380
295.542	4429
295.599	11604
295.656	25614
295.713	16921
295.770	16698
295.827	7409
295.883	3804
295.940	3422
295.997	4869
296.054	6149
296.111	3853
296.167	3010
296.224	2289
296.281	2200
296.338	2301
296.394	1847
296.451	2556
296.508	6547
296.564	14496
296.621	12574
296.678	14152
296.734	24631
296.791	12710
296.848	5727
296.904	5364
296.961	10688
297.018	16556
297.074	16499
297.131	7097
297.187	5316
297.244	4940
297.301	12787
297.357	26317
297.414	11717
297.470	5388
297.527	4029
297.583	2623
297.640	3260
297.696	2158
297.753	2146
297.809	2111
297.866	2016
297.922	1727
297.979	2381
298.035	1778
298.092	4241
298.148	8419
298.204	10712
298.261	5193
298.317	8809
298.374	19917
298.430	14182
298.486	6287
298.543	4426
298.599	3157
298.656	4403
298.712	5905
298.768	11802
298.824	8566
298.881	3606
298.937	2761
298.993	3151
299.050	2621
299.106	3662
299.162	3023
299.218	3738
299.275	2634
299.331	2934
299.387	3814
299.443	13870
299.500	20344
299.556	10928
299.612	5449
299.668	4807
299.724	5682
299.780	9117
299.837	5109
299.893	5920
299.949	14627
300.005	22013
300.061	15805
300.117	27325
300.173	15875
300.229	7233
300.285	6785
300.341	9253
300.397	6268
300.453	2841
300.510	3576
300.566	4271
300.622	5070
300.678	10576
300.734	22302
300.790	18070
300.845	19263
300.901	13787
300.957	18512
301.013	15672
301.069	6842
301.125	4936
301.181	4362
301.237	4848
301.293	2459
301.349	3004
301.405	2856
301.461	3504
301.516	3714
301.572	4166
301.628	5495
301.684	6052
301.740	7195
301.796	11909
301.851	9249
301.907	11832
301.963	13895
302.019	15588
302.074	39787
302.130	46747
302.186	24696
302.242	11191
302.297	7193
302.353	6138
302.409	11124
302.464	11042
302.520	8943
302.576	17064
302.631	22736
302.687	14299
302.743	6272
302.798	4968
302.854	3169
302.910	3986
302.965	4641
303.021	7908
303.076	7605
303.132	8135
303.187	10748
303.243	7003
303.299	4551
303.354	3726
303.410	4130
303.465	3172
303.521	3328
303.576	3938
303.632	4629
303.687	5789
303.743	13531
303.798	15488
303.853	6940
303.909	4734
303.964	4392
304.020	5094
304.075	8474
304.130	7548
304.186	11665
304.241	14549
304.297	11179
304.352	7622
304.358	7340
304.407	5051
304.449	5114
304.463	5143
304.518	4991
304.539	5017
304.573	5050
304.629	3937
304.630	3969
304.684	5598
304.720	9261
304.739	11080
304.794	19641
304.811	17307
304.850	11615
304.902	6641
304.905	6331
304.960	4591
304.992	4448
305.015	4359
305.071	4688
305.083	4648
305.126	4376
305.173	3343
305.181	3198
305.236	3359
305.264	3534
305.292	3704
305.347	4148
305.354	4232
305.402	4764
305.445	4510
305.457	4421
305.512	4690
305.535	5308
305.567	6269
305.622	5571
305.626	5707
305.678	8753
305.716	14450
305.733	16441
305.788	21947
305.807	19227
305.843	14468
305.897	16118
305.898	16122
305.953	17935
305.988	13508
306.008	11071
306.063	6921
306.078	6384
306.118	5382
306.168	4200
306.173	4081
306.228	3866
306.259	3388
306.283	3144
306.338	3531
306.349	3552
306.393	3477
306.440	3826
306.448	3941
306.503	5413
306.530	5514
306.558	6438
306.613	12821
306.620	14020
306.668	20746
306.711	22215
306.723	21871
306.778	17404
306.801	13665
306.833	9570
306.888	5483
306.892	5337
306.943	4245
306.982	4042
306.997	4003
307.052	3539
307.072	3892
307.107	4839
307.162	6133
307.163	6169
307.217	9998
307.253	12458
307.272	13049
307.327	14396
307.343	13320
307.381	10969
307.434	8335
307.436	8406
307.491	13646
307.524	20276
307.546	22170
307.600	21626
307.614	19468
307.655	12912
307.704	7086
307.710	6808
307.765	7238
307.795	8722
307.819	10567
307.874	19848
307.885	20160
307.929	16522
307.975	10748
307.984	10351
308.038	10075
308.065	11403
308.093	18442
308.148	35678
308.156	40096
308.202	63513
308.246	83212
308.257	82325
308.312	48742
308.336	34798
308.366	26508
308.421	18252
308.426	17524
308.475	12013
308.517	8393
308.530	7645
308.585	7110
308.607	6828
308.639	7085
308.694	7467
308.697	7616
308.748	14626
308.787	22403
308.803	22698
308.857	19282
308.877	16380
308.912	13135
308.967	10215
308.967	10200
309.021	12327
309.058	14934
309.076	18039
309.130	29470
309.148	33858
309.185	57535
309.238	97554
309.239	97868
309.293	114007
309.328	108910
309.348	95892
309.402	49480
309.418	37536
309.457	26461
309.508	16702
309.511	16416
309.566	15499
309.598	15952
309.620	19445
309.674	29977
309.688	33088
309.729	31619
309.778	25546
309.783	24976
309.837	16930
309.868	13262
309.892	14960
309.946	20073
309.959	22113
310.001	28780
310.049	35435
310.055	34436
310.109	21995
310.139	14239
310.163	11497
310.218	7231
310.229	6604
310.272	5737
310.319	5143
310.326	4997
310.381	4142
310.409	3777
310.435	3954
310.489	4334
310.499	4420
310.543	4496
310.589	4757
310.598	4826
310.652	5263
310.679	5435
310.706	4861
310.760	3407
310.769	3195
310.814	3268
310.859	3653
310.868	3609
310.923	3083
310.948	3010
310.977	3682
311.031	4956
311.038	5143
311.085	4805
311.128	4321
311.139	4284
311.193	4139
311.218	4102
311.247	3942
311.301	3542
311.308	3506
311.356	3505
311.398	3622
311.410	3574
311.464	3259
311.488	3133
311.518	3127
311.572	3137
311.578	3150
311.626	4202
311.668	5154
311.680	5300
311.734	5938
311.758	6275
311.788	5989
311.842	5363
311.847	5315
311.896	7275
311.937	9033
311.950	8830
312.004	8005
312.027	7604
312.058	6350
312.112	4196
312.117	3999
312.165	3584
312.207	3270
312.297	6719
312.386	4889
312.476	4490
312.566	7558
312.656	4407
312.745	3002
312.835	3656
312.925	4198
313.015	4472
313.104	4035
313.194	3368
313.284	3014
313.374	4255
313.463	3665
313.553	3378
313.643	2533
313.732	3365
313.822	2514
313.912	3724
314.001	3949
314.091	5313
314.180	6258
314.270	5625
314.360	5939
314.449	4645
314.539	2755
314.628	3727
314.718	4710
314.808	5621
314.897	3179
314.987	4147
315.076	3869
315.166	5723
315.255	5798
315.345	5955
315.434	4611
315.524	5101
315.613	5468
315.703	6873
315.792	9674
315.881	29148
315.971	9632
316.060	10474
316.150	16276
316.239	16423
316.328	6338
316.418	3574
316.507	3296
316.597	4721
316.686	4793
316.775	7405
316.865	17530
316.954	4840
317.043	3094
317.133	4455
317.222	3041
317.311	3395
317.400	2312
317.490	4844
317.579	5227
317.668	4215
317.757	5761
317.847	15215
317.936	49447
318.025	18275
318.114	12114
318.203	7580
318.293	10720
318.382	22477
318.471	14971
318.560	19506
318.649	35903
318.738	9018
318.828	5941
318.917	6008
319.006	6913
319.095	17876
319.184	42883
319.273	22574
319.362	11503
319.451	4368
319.540	3772
319.629	9026
319.718	14503
319.807	8341
319.896	14142
319.985	51557
320.074	17775
320.163	7144
320.252	9709
320.341	9944
320.430	8577
320.519	9547
320.608	5334
320.697	5324
320.786	4925
320.875	6668
320.964	7677
321.053	9930
321.142	14473
321.230	16032
321.319	13447
321.408	29842
321.497	14320
321.586	12702
321.675	16865
321.764	15220
321.852	9934
321.941	16589
322.030	10872
322.119	12429
322.207	27920
322.296	26266
322.385	13953
322.474	13799
322.562	32668
322.651	19174
322.740	13226
322.829	18921
322.917	23077
323.006	11676
323.095	9529
323.183	8276
323.272	10707
323.361	18232
323.449	54520
323.538	19108
323.626	42015
323.715	25575
323.804	10406
323.892	38851
323.981	20496
324.069	7342
324.158	22145
324.246	19773
324.335	7606
324.424	10268
324.512	4350
324.601	5752
324.689	5667
324.778	7960
324.866	13987
324.954	5267
325.043	4212
325.131	9640
325.220	18913
325.308	20872
325.397	14370
325.485	8746
325.574	2637
325.662	3032
325.750	3492
325.839	3917
325.927	3069
326.015	5971
326.104	6922
326.192	10202
326.280	2888
326.369	3498
326.457	5431
326.545	7937
326.634	3169
326.722	2841
326.810	2533
326.898	3895
326.987	4322
327.075	8020
327.163	8880
327.251	4773
327.340	3374
327.428	4580
327.516	2789
327.604	3849
327.692	3680
327.781	5223
327.869	7393
327.957	4922
328.045	3529
328.133	2586
328.221	3935
328.309	3039
328.397	2721
328.485	3890
328.574	5309
328.662	16755
328.750	8518
328.838	4981
328.926	2967
329.014	3360
329.102	4647
329.190	13270
329.278	6762
329.366	1803
329.454	1958
329.542	3074
329.630	1568
329.718	2525
329.806	3200
329.893	4235
329.981	3094
330.069	3040
330.157	4145
330.245	11505
330.333	5911
330.421	3072
330.509	4632
330.597	19247
330.684	13332
330.772	6443
330.860	9730
330.948	13925
331.036	5254
331.123	2298
331.211	2374
331.299	3963
331.387	10222
331.475	18597
331.562	5155
331.650	3026
331.738	3560
331.825	6222
331.913	2899
332.001	2883
332.089	4054
332.176	10134
332.264	21519
332.352	17386
332.439	4707
332.527	4661
332.614	2792
332.702	5510
332.790	3277
332.877	10058
332.965	21233
333.052	6267
333.140	5387
333.228	12738
333.315	4642
333.403	4722
333.490	13438
333.578	11451
333.665	13993
333.753	7170
333.840	2781
333.928	4854
334.015	14450
334.103	18446
334.190	52996
334.278	15443
334.365	8555
334.452	7529
334.540	4482
334.627	5418
334.715	8324
334.802	15065
334.889	70225
334.977	69353
335.064	13755
335.151	6048
335.239	5315
335.326	7866
335.413	26510
335.501	35760
335.588	5931
335.675	4623
335.762	6868
335.850	12194
335.937	7274
336.024	20602
336.111	80852
336.199	41644
336.286	10381
336.373	5064
336.460	2825
336.547	4044
336.635	4089
336.722	3844
336.809	3583
336.896	6340
336.983	17032
337.070	42726
337.157	55296
337.245	44866
337.332	31702
337.419	5674
337.506	3957
337.593	4900
337.680	14608
337.767	45274
337.854	12453
337.941	15405
338.028	18268
338.115	6547
338.202	7519
338.289	13749
338.376	46907
338.463	14886
338.550	26347
338.637	27016
338.724	9737
338.811	16410
338.898	3348
338.984	3534
339.071	4096
339.158	4709
339.245	10354
339.332	7345
339.419	11351
339.506	10935
339.593	1240
339.679	3158
339.766	2001
339.853	3788
339.940	6552
340.027	3327
340.113	2574
340.200	4378
340.287	2932
340.374	4230
340.460	6020
340.547	2024
340.634	5313
340.720	17990
340.807	9564
340.894	2012
340.980	2832
341.067	2408
341.154	3130
341.240	4634
341.327	8606
341.414	3626
341.500	3095
341.587	3764
341.674	3146
341.760	6123
341.847	6930
341.933	3559
342.020	418
342.106	1789
342.193	1963
342.279	4837
342.366	3656
342.452	6201
342.539	3221
342.625	8491
342.712	17672
342.798	8364
342.885	3378
342.971	1311
343.058	1002
343.144	2201
343.230	1946
343.317	1957
343.403	1601
343.490	3391
343.576	1472
343.662	2183
343.749	2468
343.835	3416
343.921	4969
344.008	31104
344.094	69872
344.180	15900
344.267	6549
344.353	21725
344.439	24522
344.525	9794
344.612	4033
344.698	4144
344.784	1827
344.870	2576
344.957	1950
345.043	5032
345.129	2491
345.215	6378
345.301	2802
345.387	1954
345.474	1385
345.560	2391
345.646	2269
345.732	2577
345.818	2018
345.904	2537
345.990	2874
346.076	4000
346.162	6713
346.249	3738
346.335	2514
346.421	2828
346.507	7872
346.593	29907
346.679	6093
346.765	4202
346.851	2344
346.937	2126
347.023	2365
347.108	3711
347.194	1908
347.280	2192
347.366	1765
347.452	10244
347.538	34535
347.624	28493
347.710	23313
347.796	4371
347.882	2619
347.967	3057
348.053	3938
348.139	3325
348.225	2524
348.311	2132
348.397	1982
348.482	3382
348.568	3045
348.654	2497
348.740	4451
348.825	4306
348.911	4833
348.997	15584
349.083	33600
349.168	6110
349.254	2352
349.340	2523
349.425	1069
349.511	3417
349.597	3581
349.682	6499
349.768	21732
349.854	10663
349.939	2769
350.025	2151
350.110	2321
350.196	1707
350.282	573
350.367	2489
350.453	4035
350.538	4028
350.624	2757
350.709	2954
350.795	1028
350.880	1350
350.966	2402
351.051	4030
351.137	3366
351.222	3078
351.308	6319
351.393	18972
351.479	4024
351.564	1495
351.649	2749
351.735	1805
351.820	1188
351.906	2478
351.991	2194
352.076	12891
352.162	17458
352.247	4061
352.332	1980
352.418	5064
352.503	5530
352.588	27568
352.673	21436
352.759	5212
352.844	1662
352.929	2867
353.014	3780
353.100	3847
353.185	5117
353.270	6571
353.355	7620
353.441	2897
353.526	2353
353.611	6086
353.696	6859
353.781	5056
353.866	1113
353.952	2640
354.037	5866
354.122	14922
354.207	11743
354.292	4993
354.377	1617
354.462	1881
354.547	2368
354.632	3301
354.717	5756
354.802	5802
354.887	2782
354.972	1806
355.057	1276
355.142	1554
355.227	2707
355.312	4369
355.397	7960
355.482	21851
355.567	10550
355.652	8212
355.737	7889
355.822	25210
355.907	19228
355.991	4202
356.076	1177
356.161	2586
356.246	863
356.331	2181
356.416	5323
356.501	37861
356.585	38233
356.670	5147
356.755	5097
356.840	5821
356.924	25540
357.009	91323
357.094	33501
357.179	8886
357.263	5052
357.348	6553
357.433	5953
357.517	5201
357.602	4346
357.687	3377
357.771	5692
357.856	16264
357.941	9661
358.025	18679
358.110	82361
358.195	37963
358.279	5545
358.364	5217
358.448	16888
358.533	46885
358.617	32638
358.702	32971
358.787	12581
358.871	7929
358.956	5836
359.040	2039
359.125	1321
359.209	3107
359.294	6711
359.378	13550
359.462	6273
359.547	3645
359.631	2909
359.716	1187
359.800	2638
359.885	6372
359.969	1289
360.053	3329
360.138	1538
360.222	3449
360.306	6257
360.391	5351
360.475	8879
360.559	20846
360.644	17372
360.728	12394
360.812	20217
360.896	57391
360.981	24920
361.065	15298
361.149	4226
361.233	4534
361.318	3512
361.402	5345
361.486	3593
361.570	1317
361.654	3141
361.739	8570
361.823	35000
361.907	55500
361.991	8592
362.075	6201
362.159	12666
362.243	10666
362.327	12578
362.411	22264
362.495	9741
362.580	5212
362.664	3473
362.748	3690
362.832	4410
362.916	7246
363.000	29413
363.084	76263
363.168	74524
363.252	17780
363.336	7471
363.420	10898
363.503	37056
363.587	44734
363.671	7743
363.755	4860
363.839	7878
363.923	3812
364.007	7352
364.091	10005
364.175	14033
364.258	63325
364.342	49233
364.426	79075
364.510	41091
364.594	16396
364.677	13618
364.761	48852
364.845	34459
364.929	12570
365.013	9962
365.096	9190
365.180	9566
365.264	15375
365.347	58960
365.431	28092
365.515	7841
365.598	3221
365.682	2774
365.766	8238
365.849	9074
365.933	4334
366.017	6921
366.100	5484
366.184	1420
366.267	2663
366.351	2254
366.435	1982
366.518	1159
366.602	1872
366.685	2003
366.769	2857
366.852	7628
366.936	11512
367.019	4602
367.103	5478
367.186	11912
367.270	3719
367.353	208
367.436	3332
367.520	1588
367.603	3398
367.687	2701
367.770	8065
367.853	4659
367.937	14945
368.020	25396
368.104	5887
368.187	5832
368.270	9735
368.353	7618
368.437	12955
368.520	32595
368.603	18235
368.687	17316
368.770	34902
368.853	8993
368.936	10379
369.020	11716
369.103	3152
369.186	2826
369.269	3141
369.352	5745
369.436	8875
369.519	5479
369.602	1778
369.685	3893
369.768	3251
369.851	2413
369.934	1765
370.018	2885
370.101	6602
370.184	7543
370.267	5586
370.350	7706
370.433	12852
370.516	27301
370.599	38712
370.682	11134
370.765	19806
370.848	22822
370.931	41112
371.014	17697
371.097	3704
371.180	2989
371.263	2124
371.346	364
371.429	2742
371.511	1326
371.594	5019
371.677	9647
371.760	13141
371.843	6066
371.926	28388
372.009	68434
372.091	23868
372.174	15582
372.257	38042
372.340	15337
372.423	15095
372.505	19242
372.588	7640
372.671	11900
372.754	40201
372.836	18959
372.919	19035
373.002	37751
373.085	9588
373.167	7730
373.250	16742
373.332	36868
373.415	46150
373.498	92233
373.580	34554
373.663	50855
373.746	66140
373.828	12967
373.911	7965
373.993	7920
374.076	36087
374.159	34497
374.241	12650
374.324	34542
374.406	23006
374.489	24923
374.571	78948
374.654	32277
374.736	15422
374.819	46968
374.901	67204
374.983	68387
375.066	12840
375.148	5494
375.231	27989
375.313	54325
375.395	22037
375.478	4803
375.560	4114
375.643	3953
375.725	14447
375.807	60822
375.890	56281
375.972	27346
376.054	15265
376.136	26669
376.219	10936
376.301	16853
376.383	53501
376.465	18625
376.548	12850
376.630	14688
376.712	46834
376.794	19305
376.877	3097
376.959	1056
377.041	4431
377.123	9379
377.205	12256
377.287	1826
377.369	2314
377.452	932
377.534	1449
377.616	1612
377.698	1827
377.780	697
377.862	2542
377.944	2180
378.026	817
378.108	1710
378.190	1813
378.272	1955
378.354	1038
378.436	1099
378.518	4396
378.600	17507
378.682	13474
378.764	23608
378.846	19221
378.928	5582
379.010	7309
379.091	4317
379.173	2316
379.255	-154
379.337	2760
379.419	10662
379.501	35100
379.583	13798
379.664	4363
379.746	7601
379.828	24873
379.910	31232
379.991	27994
380.073	4588
380.155	3833
380.237	1630
380.318	1938
380.400	1985
380.482	5790
380.564	8410
380.645	7403
380.727	7950
380.809	5210
380.890	3440
380.972	2461
381.053	1729
381.135	3652
381.217	7902
381.298	25957
381.380	12784
381.461	10090
381.543	43569
381.624	54250
381.706	9573
381.787	7002
381.869	6731
381.951	17652
382.032	69674
382.113	47017
382.195	9502
382.276	9047
382.358	14508
382.439	40859
382.521	42988
382.602	69493
382.684	31065
382.765	59670
382.846	66745
382.928	103813
383.009	53645
383.090	32815
383.172	128796
383.253	206499
383.334	67102
383.416	66175
383.497	33401
383.578	15126
383.659	28069
383.741	104208
383.822	281142
383.903	141799
383.984	47024
384.066	81808
384.147	48093
384.228	11508
384.309	7073
384.390	6738
384.471	4390
384.553	6209
384.634	6652
384.715	7973
384.796	3437
384.877	4351
384.958	21565
385.039	26033
385.120	9635
385.201	5458
385.282	7092
385.363	9499
385.444	4250
385.525	10868
385.606	32848
385.687	29745
385.768	8120
385.849	9857
385.930	32294
386.011	58303
386.092	14419
386.173	4932
386.254	5230
386.335	5549
386.416	4278
386.496	15834
386.577	25500
386.658	12062
386.739	6010
386.820	8509
386.901	5862
386.981	5824
387.062	3221
387.143	5827
387.224	24292
387.304	25207
387.385	10267
387.466	7366
387.547	11658
387.627	6246
387.708	9837
387.789	41194
387.869	48744
387.950	14009
388.031	2927
388.111	2697
388.192	13368
388.273	20593
388.353	9575
388.434	4659
388.514	7200
388.595	36028
388.676	47538
388.756	24189
388.837	22588
388.917	14478
388.998	1938
389.078	4307
389.159	2300
389.239	1559
389.320	5159
389.400	3616
389.480	10471
389.561	27617
389.641	12456
389.722	4689
389.802	6899
389.883	11712
389.963	30347
390.043	20683
390.124	8266
390.204	9170
390.284	27711
390.365	17762
390.445	23557
390.525	39472
390.605	28606
390.686	12951
390.766	6171
390.846	3896
390.927	1684
391.007	2560
391.087	3868
391.167	4991
391.247	3440
391.328	6961
391.408	10660
391.488	8615
391.568	1090
391.648	4135
391.728	5700
391.808	6127
391.888	5372
391.969	14140
392.049	22088
392.129	13631
392.209	11693
392.289	30560
392.369	17876
392.449	20475
392.529	11061
392.609	9929
392.689	10475
392.769	29172
392.849	26214
392.929	22976
393.009	49278
393.089	37802
393.169	40359
393.248	115742
393.328	370919
393.408	396918
393.488	131865
393.568	42242
393.648	19983
393.728	13117
393.807	8117
393.887	7964
393.967	6641
394.047	7297
394.127	7153
394.206	10371
394.286	28773
394.366	137104
394.446	148802
394.525	33580
394.605	8691
394.685	9598
394.764	25180
394.844	43821
394.924	30465
395.003	8613
395.083	4961
395.163	4992
395.242	3909
395.322	5326
395.402	2407
395.481	6615
395.561	15157
395.640	45996
395.720	38068
395.799	48295
395.879	35593
395.958	14379
396.038	42308
396.117	180472
396.197	199663
396.276	62886
396.356	24393
396.435	22345
396.515	16158
396.594	17433
396.673	33523
396.753	118130
396.832	342892
396.912	260744
396.991	67142
397.070	21032
397.150	10907
397.229	9899
397.308	13083
397.388	24886
397.467	11667
397.546	5005
397.625	1911
397.705	6024
397.784	4471
397.863	2400
397.942	1456
398.022	3373
398.101	12801
398.180	43609
398.259	23274
398.338	6697
398.417	3606
398.497	2933
398.576	3799
398.655	1786
398.734	1346
398.813	2589
398.892	11919
398.971	44952
399.050	20439
399.129	2300
399.208	1336
399.287	3309
399.366	817
399.445	1480
399.524	1104
399.603	748
399.682	3902
399.761	12625
399.840	45551
399.919	35164
399.998	4025
400.077	751
400.156	-403
400.235	3864
400.313	1714
400.392	2025
400.471	11721
400.550	19755
400.629	4799
400.708	3005
400.786	2892
400.865	12332
400.944	11818
401.023	6305
401.102	759
401.180	597
401.259	1199
401.338	2248
401.416	3402
401.495	2312
401.574	2821
401.652	1537
401.731	3950
401.810	2533
401.888	897
401.967	262
402.046	2191
402.124	3833
402.203	3511
402.281	2578
402.360	3898
402.438	15861
402.517	9303
402.596	3746
402.674	2871
402.753	1648
402.831	953
402.910	2686
402.988	7782
403.066	33776
403.145	18543
403.223	10254
403.302	26597
403.380	19860
403.459	19206
403.537	8335
403.615	2418
403.694	123
403.772	950
403.850	627
403.929	65
404.007	1090
404.085	3309
404.164	3909
404.242	-139
404.320	2981
404.398	6746
404.477	12694
404.555	55023
404.633	48204
404.711	8704
404.789	3412
404.868	1949
404.946	809
405.024	525
405.102	246
405.180	-144
405.258	-791
405.336	600
405.415	694
405.493	3553
405.571	4204
405.649	-160
405.727	1207
405.805	3372
405.883	1841
405.961	2401
406.039	3401
406.117	687
406.195	2864
406.273	10330
406.351	50313
406.429	30226
406.507	6572
406.585	1077
406.663	1824
406.740	2353
406.818	994
406.896	491
406.974	2165
407.052	2202
407.130	27765
407.208	39658
407.285	7829
407.363	2
407.441	869
407.519	-292
407.596	1546
407.674	6486
407.752	31792
407.830	30276
407.907	10364
407.985	1179
408.063	1189
408.141	-62
408.218	4021
408.296	2716
408.373	1441
408.451	957
408.529	1822
408.606	-395
408.684	-39
408.762	62
408.839	-7
408.917	-329
408.994	448
409.072	-221
409.149	1370
409.227	2861
409.304	5011
409.382	2765
409.459	3849
409.537	6640
409.614	4927
409.692	2443
409.769	3276
409.846	6008
409.924	10347
410.001	4901
410.079	2074
410.156	2178
410.233	1447
410.311	44
410.388	869
410.465	1390
410.543	2065
410.620	1210
410.697	1441
410.775	1784
410.852	446
410.929	1735
411.006	4389
411.083	681
411.161	5455
411.238	7239
411.315	3737
411.392	162
411.469	3461
411.547	2581
411.624	-273
411.701	127
411.778	591
411.855	2521
411.932	1431
412.009	-96
412.086	330
412.163	1093
412.240	2238
412.317	2635
412.394	2886
412.471	199
412.548	889
412.625	474
412.702	1566
412.779	4187
412.856	2579
412.933	-332
413.010	873
413.087	1787
413.164	11775
413.241	17336
413.318	3282
413.395	2170
413.471	3635
413.548	774
413.625	541
413.702	339
413.779	1246
413.855	192
413.932	-623
414.009	-637
414.086	448
414.162	-239
414.239	1523
414.316	10510
414.393	25090
414.469	7692
414.546	288
414.623	-684
414.699	-103
414.776	132
414.853	160
414.929	385
415.006	716
415.082	807
415.159	844
415.236	-72
415.312	816
415.389	1624
415.465	3033
415.542	501
415.618	13
415.695	959
415.771	257
415.848	888
415.924	1271
416.000	872
416.077	868
416.153	-1675
416.230	-631
416.306	-844
416.383	-276
416.459	-310
416.535	-79
416.612	-538
416.688	-189
416.764	-1051
416.841	-118
416.917	-112
416.993	26
417.069	324
417.146	1406
417.222	945
417.298	342
417.374	-312
417.451	1059
417.527	403
417.603	1337
417.679	333
417.755	1253
417.831	-946
417.908	176
417.984	-634
418.060	-1142
418.136	2047
418.212	4010
418.288	792
418.364	840
418.440	68
418.516	1809
418.592	3669
418.668	6006
418.744	6588
418.820	5027
418.896	365
418.972	-701
419.048	-190
419.124	3795
419.200	1747
419.276	462
419.352	-1002
419.428	121
419.504	-267
419.579	1080
419.655	63
419.731	205
419.807	4005
419.883	8439
419.959	5210
420.034	1726
420.110	3010
420.186	15096
420.262	11185
420.337	2405
420.413	245
420.489	851
420.565	447
420.640	232
420.716	1189
420.792	39
420.867	994
420.943	357
421.019	1527
421.094	1859
421.170	573
421.245	949
421.321	404
421.397	1623
421.472	5265
421.548	18665
421.623	11201
421.699	3410
421.774	3333
421.850	2789
421.925	4201
422.001	5252
422.076	3683
422.152	5919
422.227	8820
422.302	11706
422.378	17204
422.453	30905
422.529	69838
422.604	161681
422.679	218402
422.755	175190
422.830	83540
422.905	36281
422.981	19951
423.056	12301
423.131	9084
423.207	7092
423.282	5522
423.357	7972
423.432	6234
423.508	5661
423.583	9479
423.658	7934
423.733	3300
423.808	3755
423.883	3350
423.959	3804
424.034	3519
424.109	3400
424.184	1326
424.259	1404
424.334	557
424.409	861
424.484	175
424.559	1500
424.634	355
424.709	2692
424.784	1289
424.859	1572
424.934	2153
425.009	12129
425.084	20564
425.159	7524
425.234	1397
425.309	685
425.384	2939
425.459	5501
425.534	2256
425.609	1481
425.683	502
425.758	317
425.833	886
425.908	1718
425.983	5703
426.058	20420
426.132	9149
426.207	2214
426.282	5208
426.357	5476
426.431	963
426.506	1636
426.581	1119
426.655	1541
426.730	762
426.805	972
426.879	932
426.954	1266
427.029	3341
427.103	17539
427.178	45697
427.253	21199
427.327	2649
427.402	4698
427.476	12079
427.551	6033
427.625	2516
427.700	2307
427.774	383
427.849	2810
427.923	800
427.998	98
428.072	593
428.147	5415
428.221	20109
428.296	63779
428.370	33418
428.444	5450
428.519	6553
428.593	14965
428.667	12665
428.742	16404
428.816	14657
428.890	45141
428.965	68378
429.039	24392
429.113	18668
429.188	8455
429.262	1694
429.336	3479
429.410	10852
429.485	8609
429.559	11749
429.633	12152
429.707	2415
429.781	8772
429.855	49997
429.930	77509
430.004	40549
430.078	60950
430.152	53236
430.226	75780
430.300	79071
430.374	15022
430.448	5434
430.522	16903
430.596	52124
430.670	33634
430.744	60557
430.818	85948
430.892	17390
430.966	3492
431.040	1841
431.114	214
431.188	598
431.262	735
431.336	1030
431.410	6734
431.484	18273
431.557	12299
431.631	1489
431.705	2426
431.779	9325
431.853	53758
431.927	41029
432.000	5601
432.074	946
432.148	2973
432.222	2472
432.295	1005
432.369	944
432.443	2447
432.516	19030
432.590	51016
432.664	20201
432.737	3417
432.811	-24
432.885	323
432.958	232
433.032	-191
433.106	168
433.179	78
433.253	-447
433.326	-206
433.400	-940
433.473	-56
433.547	-801
433.620	257
433.694	1668
433.767	3321
433.841	-75
433.914	394
433.988	-155
434.061	816
434.134	-1
434.208	-683
434.281	-386
434.355	104
434.428	444
434.501	-389
434.575	-647
434.648	1370
434.721	-481
434.795	-241
434.868	-1296
434.941	-163
435.014	-486
435.088	474
435.161	719
435.234	1908
435.307	3476
435.381	1745
435.454	1902
435.527	4459
435.600	4194
435.673	2424
435.746	1405
435.819	1153
435.892	524
435.966	470
436.039	797
436.112	1896
436.185	-165
436.258	-33
436.331	-1024
436.404	-153
436.477	-972
436.550	139
436.623	-199
436.696	-601
436.769	330
436.842	679
436.915	334
436.987	3081
437.060	680
437.133	146
437.206	-619
437.279	765
437.352	-288
437.425	-412
437.498	-38
437.570	3774
437.643	3160
437.716	237
437.789	139
437.861	3029
437.934	10530
438.007	6407
438.080	-273
438.152	1068
438.225	2540
438.298	22208
438.370	69993
438.443	34637
438.516	10563
438.588	2076
438.661	213
438.734	825
438.806	558
438.879	2454
438.951	1572
439.024	5818
439.096	1593
439.169	567
439.241	-1020
439.314	-100
439.386	2967
439.459	5968
439.531	7827
439.604	3911
439.676	212
439.749	305
439.821	-315
439.893	460
439.966	-335
440.038	1564
440.110	1617
440.183	206
440.255	-958
440.327	2101
440.400	10932
440.472	51276
440.544	37063
440.617	6029
440.689	4529
440.761	6538
440.833	9502
440.905	6818
440.978	1274
441.050	513
441.122	195
441.194	515
441.266	96
441.338	1031
441.411	856
441.483	14047
441.555	26942
441.627	7870
441.699	5545
441.771	8640
441.843	2664
441.915	1085
441.987	810
442.059	845
442.131	2226
442.203	5936
442.275	6459
442.347	7064
442.419	7579
442.491	35786
442.563	101730
442.635	57330
442.706	28311
442.778	25468
442.850	5159
442.922	2337
442.994	3579
443.066	7146
443.137	6073
443.209	5465
443.281	5464
443.353	12927
443.425	46800
443.496	155985
443.568	177534
443.640	81456
443.711	19095
443.783	7409
443.855	4326
443.926	3645
443.998	3047
444.070	6844
444.141	4710
444.213	5764
444.285	5841
444.356	6343
444.428	6107
444.499	4201
444.571	937
444.642	1556
444.714	1762
444.785	4379
444.857	7326
444.928	23113
445.000	19907
445.071	16240
445.143	24377
445.214	12979
445.285	15926
445.357	50140
445.428	114458
445.500	231737
445.571	187652
445.642	117481
445.714	51601
445.785	45628
445.856	18071
445.928	8458
445.999	7075
446.070	5537
446.141	4222
446.213	7592
446.284	5465
446.355	7831
446.426	6198
446.497	3348
446.569	7244
446.640	14165
446.711	7480
446.782	3493
446.853	4810
446.924	4730
446.995	3301
447.066	3776
447.138	9586
447.209	9318
447.280	422
447.351	807
447.422	982
447.493	4194
447.564	5629
447.635	4891
447.706	1676
447.777	2168
447.847	824
447.918	1052
447.989	5292
448.060	8746
448.131	17837
448.202	19300
448.273	9596
448.344	6318
448.414	1579
448.485	1725
448.556	1026
448.627	1173
448.698	1008
448.768	1758
448.839	1848
448.910	9212
448.981	11670
449.051	3993
449.122	1038
449.193	940
449.263	1734
449.334	2136
449.405	2025
449.475	6053
449.546	7180
449.616	11007
449.687	13303
449.758	4243
449.828	1804
449.899	1776
449.969	1209
450.040	1368
450.110	2578
450.181	4633
450.251	2305
450.322	2371
450.392	2317
450.463	3405
450.533	976
450.604	2766
450.674	2820
450.744	2827
450.815	1919
450.885	2975
450.955	2619
451.026	2026
451.096	1686
451.166	5149
451.237	12194
451.307	35698
451.377	23831
451.447	5304
451.518	2106
451.588	3179
451.658	3398
451.728	6303
451.799	27719
451.869	48822
451.939	16484
452.009	4329
452.079	2417
452.149	3300
452.219	8209
452.289	36386
452.360	42155
452.430	10066
452.500	4416
452.570	5874
452.640	9199
452.710	28109
452.780	52314
452.850	32047
452.920	18428
452.990	9759
453.060	5282
453.129	6093
453.199	9500
453.269	28362
453.339	76516
453.409	124719
453.479	104693
453.549	166535
453.619	192237
453.688	110225
453.758	20386
453.828	7124
453.898	5051
453.968	4256
454.037	3914
454.087	3822
454.107	3780
454.168	3179
454.177	3086
454.247	2721
454.249	2695
454.316	1794
454.330	2498
454.386	5133
454.411	10176
454.456	18274
454.492	29318
454.525	39281
454.574	23933
454.595	17320
454.655	5890
454.665	4078
454.734	5544
454.736	5719
454.804	11162
454.817	15489
454.873	32320
454.898	39586
454.943	52796
454.979	36337
455.013	21671
455.060	12107
455.082	8093
455.141	8578
455.152	8539
455.221	24444
455.222	24879
455.291	54310
455.303	53679
455.360	50956
455.384	59437
455.430	74118
455.465	66234
455.499	58856
455.546	46857
455.569	40633
455.627	36351
455.638	35944
455.707	7870
455.708	7855
455.777	4379
455.789	4374
455.846	4215
455.869	4382
455.916	4886
455.950	4522
455.985	4086
456.031	5017
456.054	5401
456.112	3492
456.124	3156
456.193	3195
456.193	3181
456.262	3850
456.274	4462
456.332	7240
456.355	7565
456.401	7617
456.436	6743
456.470	6165
456.516	3836
456.540	2648
456.597	2284
456.609	2249
456.678	2444
456.678	2435
456.747	2583
456.759	2432
456.817	1745
456.840	1924
456.886	2243
456.920	2256
456.955	2282
457.001	3316
457.024	3994
457.082	4093
457.093	4066
457.162	6997
457.163	7016
457.232	8598
457.243	8395
457.301	7049
457.324	5742
457.370	3630
457.405	3838
457.439	4058
457.485	3326
457.508	2968
457.566	3590
457.577	3781
457.646	4397
457.647	4419
457.715	7525
457.727	8138
457.784	12359
457.808	16398
457.853	21369
457.889	27199
457.922	30368
457.969	23441
457.991	23232
458.050	21832
458.060	21628
458.129	35786
458.130	36244
458.198	43037
458.211	40010
458.267	29274
458.292	21535
458.336	11798
458.372	10402
458.405	11562
458.453	15285
458.474	18219
458.533	33019
458.543	34251
458.611	60358
458.614	60811
458.680	52540
458.694	44015
458.749	22858
458.775	17147
458.818	9117
458.855	7215
458.887	5810
458.936	5564
458.955	5426
459.016	5183
459.024	5172
459.093	5654
459.097	5638
459.162	4931
459.177	5030
459.230	5825
459.257	6196
459.299	6326
459.338	6134
459.368	6230
459.418	7183
459.437	7202
459.499	6182
459.505	6164
459.574	5212
459.579	5224
459.643	4709
459.659	4413
459.711	4195
459.740	4648
459.780	5211
459.820	5387
459.849	5522
459.900	6648
459.917	6851
459.981	6742
459.986	6717
460.054	6333
460.061	6166
460.123	4909
460.141	4978
460.191	5749
460.222	5995
460.260	5923
460.302	6663
460.328	6911
460.382	6332
460.397	6254
460.462	5044
460.465	5073
460.534	6911
460.543	7266
460.602	16342
460.623	19639
460.671	29589
460.703	40697
460.739	39814
460.783	36243
460.808	34128
460.864	12942
460.876	10408
460.944	5636
460.945	5583
461.013	5921
461.024	5782
461.081	4983
461.104	5100
461.150	5601
461.184	5307
461.218	4926
461.264	5020
461.286	5033
461.345	4787
461.355	4798
461.423	5660
461.425	5658
461.491	5612
461.505	5858
461.559	11417
461.585	13637
461.628	21173
461.665	30471
461.696	34270
461.745	46539
461.764	44327
461.825	24135
461.832	23854
461.901	7431
461.905	7282
461.969	5988
461.985	5955
462.037	6657
462.065	6713
462.105	7193
462.145	8075
462.173	11304
462.225	17678
462.241	19430
462.305	30516
462.310	29992
462.378	23603
462.385	21351
462.446	12027
462.465	9574
462.514	5869
462.545	5822
462.582	5998
462.625	6479
462.650	6456
462.705	6274
462.718	6588
462.785	8102
462.786	8150
462.854	10622
462.865	11337
462.922	15525
462.945	17735
462.990	15383
463.025	10990
463.058	9928
463.104	7602
463.126	6614
463.184	5995
463.194	6044
463.262	6637
463.264	6671
463.330	6240
463.344	6066
463.398	7659
463.424	8582
463.466	8204
463.504	8028
463.533	8349
463.583	8596
463.601	8914
463.663	9205
463.669	9341
463.737	11752
463.743	12024
463.805	18772
463.823	20777
463.873	33311
463.903	41872
463.940	44647
463.982	51275
464.008	45416
464.062	24833
464.076	23491
464.142	9265
464.144	9016
464.211	7255
464.221	7381
464.279	6637
464.301	6263
464.347	7687
464.381	8884
464.414	9816
464.461	11148
464.482	11476
464.540	13527
464.550	13149
464.617	9252
464.620	9058
464.685	8474
464.699	8595
464.753	8776
464.779	9075
464.820	9752
464.859	10208
464.888	10367
464.938	10911
464.956	11526
465.018	13971
465.023	13705
465.091	9968
465.098	9443
465.158	8939
465.177	9033
465.226	9325
465.257	9549
465.293	9604
465.336	9658
465.361	9908
465.416	10389
465.428	11672
465.495	18874
465.496	19008
465.563	36561
465.575	39833
465.631	48506
465.654	52786
465.698	34269
465.734	16415
465.765	14396
465.813	9661
465.833	8492
465.893	8151
465.900	8094
465.968	7707
465.972	7674
466.035	7351
466.052	7288
466.102	7923
466.131	8235
466.170	7661
466.210	7050
466.237	7574
466.290	8654
466.304	8555
466.369	7879
466.372	7914
466.439	8934
466.449	9037
466.506	9183
466.528	9278
466.573	15407
466.607	19942
466.641	31990
466.687	48932
466.708	54154
466.766	69186
466.775	63555
466.842	20628
466.845	18544
466.909	11685
466.925	10327
466.977	9454
467.004	9269
467.044	9291
467.083	9331
467.111	9820
467.163	10733
467.178	10933
467.242	11755
467.245	11737
467.312	11190
467.321	11112
467.379	12731
467.400	13292
467.446	15285
467.480	16696
467.559	14788
467.638	10717
467.717	10863
467.796	11788
467.875	13034
467.955	13478
468.034	23391
468.113	58339
468.192	88538
468.271	19832
468.350	12535
468.429	16102
468.508	17679
468.588	12521
468.667	11609
468.746	11608
468.825	11311
468.904	10316
468.983	12868
469.062	24381
469.141	29861
469.220	9572
469.299	11317
469.378	11176
469.456	11894
469.535	10597
469.614	11222
469.693	12410
469.772	17486
469.851	26966
469.930	16361
470.009	9098
470.088	10641
470.166	10071
470.245	13396
470.324	13651
470.403	11396
470.482	8686
470.560	9789
470.639	8958
470.718	10695
470.797	10223
470.875	13092
470.954	19079
471.033	21467
471.111	8430
471.190	9415
471.269	8859
471.347	8593
471.426	9777
471.505	12532
471.583	11123
471.662	10952
471.740	8877
471.819	9278
471.898	9203
471.976	9739
472.055	8821
472.133	12506
472.212	16973
472.290	18269
472.369	10749
472.447	9430
472.526	7893
472.604	10339
472.683	9169
472.761	9205
472.839	9021
472.918	9445
472.996	9585
473.075	13258
473.153	11675
473.231	10116
473.310	11533
473.388	10932
473.466	9416
473.545	10284
473.623	10554
473.701	10789
473.780	9324
473.858	8924
473.936	10251
474.014	9023
474.093	11212
474.171	18242
474.249	28137
474.327	16441
474.405	7444
474.484	8867
474.562	7273
474.640	8397
474.718	8759
474.796	9250
474.874	8231
474.952	7774
475.030	7082
475.108	7674
475.187	7929
475.265	9224
475.343	12191
475.421	14686
475.499	8219
475.577	10135
475.655	12997
475.733	30330
475.811	56017
475.889	51768
475.966	31691
476.044	10726
476.122	13235
476.200	14511
476.278	11813
476.356	10464
476.434	11405
476.512	13052
476.590	15279
476.667	14066
476.745	9763
476.823	10810
476.901	11222
476.979	12397
477.056	10686
477.134	11038
477.212	10718
477.290	10153
477.367	9296
477.445	9754
477.523	9641
477.601	10206
477.678	10480
477.756	14416
477.834	14690
477.911	9667
477.989	9352
478.066	10602
478.144	12293
478.222	11658
478.299	15294
478.377	14404
478.454	9242
478.532	9732
478.609	8237
478.687	10135
478.764	8263
478.842	9689
478.919	9244
478.997	10380
479.074	9091
479.152	12427
479.229	16027
479.307	10309
479.384	7941
479.461	9232
479.539	10169
479.616	13030
479.694	9253
479.771	11995
479.848	12193
479.926	17333
480.003	17791
480.080	9032
480.157	8189
480.235	9347
480.312	8608
480.389	12168
480.467	19240
480.544	25655
480.621	13320
480.698	11532
480.775	13393
480.853	13746
480.930	11082
481.007	12015
481.084	12943
481.161	15248
481.238	14095
481.315	10596
481.392	9576
481.470	10153
481.547	11180
481.624	11921
481.701	11219
481.778	11966
481.855	11733
481.932	21485
482.009	35729
482.086	22534
482.163	10590
482.240	13622
482.317	19721
482.393	16229
482.470	11315
482.547	12173
482.624	9891
482.701	11873
482.778	10094
482.855	9495
482.932	8673
483.009	9290
483.085	10191
483.162	11651
483.239	12161
483.316	9880
483.393	9569
483.469	10293
483.546	11575
483.623	13495
483.699	9676
483.776	11048
483.853	11034
483.930	17706
484.006	46270
484.083	80894
484.160	26614
484.236	28001
484.313	22495
484.389	19389
484.466	16998
484.543	16961
484.619	17453
484.696	21471
484.772	22431
484.849	24277
484.925	16716
485.002	16414
485.078	18111
485.155	17561
485.231	15576
485.308	16025
485.384	16040
485.461	22532
485.537	42020
485.614	50811
485.690	17465
485.766	15739
485.843	15215
485.919	18116
485.995	18442
486.072	14436
486.148	13216
486.224	13883
486.301	15439
486.377	18864
486.453	17585
486.530	17145
486.606	19788
486.682	21898
486.758	33595
486.835	41076
486.911	28611
486.987	53821
487.063	37140
487.139	34127
487.215	26664
487.292	17312
487.368	16294
487.444	19656
487.520	21979
487.596	21720
487.672	35132
487.748	97366
487.824	140725
487.900	39896
487.976	19450
488.052	20673
488.128	21957
488.204	18441
488.280	16919
488.356	21450
488.432	49709
488.508	79055
488.584	20936
488.660	13951
488.736	12825
488.812	13249
488.888	15596
488.964	17745
489.039	30714
489.115	44759
489.191	28822
489.267	15581
489.343	14661
489.418	13512
489.494	11024
489.570	11179
489.646	14111
489.722	12909
489.797	13504
489.873	24792
489.949	61489
490.024	47416
490.100	12969
490.176	12217
490.251	13361
490.327	16251
490.403	11085
490.478	11864
490.554	9464
490.629	11909
490.705	9894
490.781	11410
490.856	12378
490.932	13384
491.007	11365
491.083	12185
491.158	11292
491.234	18795
491.309	48128
491.385	46818
491.460	12820
491.536	14688
491.611	10589
491.686	11297
491.762	12760
491.837	23061
491.913	37550
491.988	52731
492.063	54803
492.139	31324
492.214	19446
492.289	10771
492.365	8879
492.440	12279
492.515	12772
492.590	13449
492.666	9504
492.741	16082
492.816	27281
492.891	13441
492.967	9628
493.042	9171
493.117	9144
493.192	11453
493.267	19286
493.342	68226
493.418	93971
493.493	16079
493.568	9396
493.643	9256
493.718	12661
493.793	19851
493.868	16706
493.943	10729
494.018	8454
494.093	9796
494.168	9540
494.243	7581
494.318	7944
494.393	8751
494.468	7419
494.543	7476
494.618	8501
494.693	8523
494.768	9110
494.842	9078
494.917	6992
494.992	8217
495.067	6669
495.142	6864
495.217	7217
495.292	8996
495.366	9643
495.441	12958
495.516	17371
495.591	18365
495.665	42452
495.740	92213
495.815	39970
495.890	16542
495.964	13113
496.039	16192
496.114	13015
496.188	15051
496.263	13967
496.338	13559
496.412	15751
496.487	18004
496.561	14466
496.636	15280
496.710	14066
496.785	16283
496.860	18529
496.934	12874
497.009	12822
497.083	13240
497.158	13150
497.232	17065
497.307	19809
497.381	15141
497.455	19592
497.530	28127
497.604	16973
497.679	18415
497.753	29054
497.827	34441
497.902	23186
497.976	28609
498.050	71907
498.125	294176
498.199	271880
498.273	33138
498.348	18489
498.422	16714
498.496	17196
498.570	17595
498.645	15326
498.719	15910
498.793	23081
498.867	37372
498.941	46304
499.016	122644
499.090	335874
499.164	100981
499.238	17041
499.312	15174
499.386	16534
499.460	16703
499.534	17600
499.609	20796
499.683	35311
499.757	31143
499.831	57808
499.905	234970
499.979	202928
500.053	42053
500.127	35573
500.201	21163
500.275	17581
500.349	17423
500.422	18771
500.496	23305
500.570	40363
500.644	126762
500.718	249903
500.792	51176
500.866	19374
500.940	27237
501.013	21088
501.087	19667
501.161	26881
501.235	37749
501.309	95241
501.382	252594
501.456	191909
501.530	48498
501.603	96406
501.677	32576
501.751	15086
501.825	20304
501.898	37039
501.972	113513
502.046	61287
502.119	20033
502.193	45887
502.266	120890
502.340	50871
502.413	55204
502.487	110497
502.561	61281
502.634	17473
502.708	13288
502.781	11747
502.855	11024
502.928	9675
503.002	12008
503.075	10317
503.149	12932
503.222	12331
503.295	15286
503.369	16505
503.442	24137
503.516	78374
503.589	205824
503.662	120044
503.736	40291
503.809	97451
503.882	70916
503.956	113057
504.029	94840
504.102	61508
504.175	79173
504.249	25606
504.322	20068
504.395	16657
504.468	12594
504.542	12904
504.615	9310
504.688	9094
504.761	7732
504.834	11204
504.907	10886
504.980	14404
505.053	10621
505.127	9299
505.200	16774
505.273	19632
505.346	11288
505.419	8854
505.492	10687
505.565	7785
505.638	8198
505.711	7695
505.784	8073
505.857	7487
505.930	10477
506.003	8513
506.076	12273
506.149	13471
506.221	17820
506.294	14663
506.367	39817
506.440	143933
506.513	62467
506.586	18503
506.659	11138
506.731	7816
506.804	9097
506.877	12028
506.950	11564
507.022	8181
507.095	12210
507.168	14844
507.241	8425
507.313	6339
507.386	6149
507.459	9116
507.531	6299
507.604	6055
507.677	8453
507.749	3895
507.822	8762
507.894	10699
507.967	13817
508.040	8028
508.112	8647
508.185	9435
508.257	6762
508.330	10644
508.402	8735
508.475	8797
508.547	10341
508.620	10159
508.692	19889
508.765	10357
508.837	6947
508.909	6634
508.982	7538
509.054	8272
509.127	7101
509.199	6269
509.271	6126
509.344	6145
509.416	7140
509.488	6211
509.560	7677
509.633	5303
509.705	7997
509.777	8751
509.849	10303
509.922	6260
509.994	6435
510.066	7832
510.138	6310
510.210	11731
510.283	10129
510.355	8989
510.427	8497
510.499	7230
510.571	8166
510.643	6414
510.715	11416
510.787	7472
510.859	9309
510.931	9929
511.003	11334
511.076	10146
511.148	7141
511.219	7340
511.291	17215
511.363	20207
511.435	8217
511.507	5910
511.579	7557
511.651	7698
511.723	6961
511.795	5179
511.867	7076
511.939	10646
512.010	26121
512.082	17450
512.154	6608
512.226	7112
512.298	9523
512.369	11301
512.441	10364
512.513	9322
512.585	7169
512.656	9476
512.728	9897
512.800	6617
512.871	8558
512.943	7255
513.015	5366
513.086	7340
513.158	7535
513.230	6422
513.301	10446
513.373	11103
513.444	7247
513.516	6582
513.588	6911
513.659	7353
513.731	9021
513.802	5750
513.874	13232
513.945	19176
514.016	7707
514.088	6502
514.159	7031
514.231	9261
514.302	11894
514.374	8565
514.445	10021
514.516	30345
514.588	18988
514.659	10737
514.730	28317
514.802	15075
514.873	5967
514.944	8817
515.016	8958
515.087	7641
515.158	17173
515.229	25827
515.301	7354
515.372	8144
515.443	6258
515.514	6318
515.585	5450
515.656	6973
515.728	6796
515.799	5313
515.870	8149
515.941	7737
516.012	7085
516.083	8986
516.154	9220
516.225	10179
516.296	11833
516.367	9154
516.438	10761
516.509	13405
516.580	18386
516.651	51693
516.722	170049
516.793	72674
516.864	24088
516.935	23646
517.006	25338
517.077	30085
517.148	57821
517.219	187956
517.289	284333
517.360	158440
517.431	49675
517.502	16060
517.573	15951
517.643	14032
517.714	14906
517.785	15003
517.856	15686
517.926	19083
517.997	20019
518.068	21215
518.138	27405
518.209	33755
518.280	117755
518.350	420089
518.421	144690
518.492	26518
518.562	21235
518.633	22486
518.703	20968
518.774	36209
518.845	93137
518.915	86392
518.986	28940
519.056	21514
519.127	26888
519.197	44328
519.268	137639
519.338	84069
519.408	23117
519.479	17172
519.549	15201
519.620	12398
519.690	10609
519.760	10815
519.831	10735
519.901	10367
519.971	10040
520.042	10412
520.112	13727
520.182	12841
520.253	14111
520.323	10685
520.393	12322
520.463	17179
520.534	13504
520.604	25778
520.674	16487
520.744	16315
520.814	24444
520.885	23918
520.955	45392
521.025	170576
521.095	55723
521.165	14036
521.235	11652
521.305	10841
521.375	9128
521.445	9805
521.515	10094
521.585	12412
521.655	10277
521.725	10698
521.795	11754
521.865	8013
521.935	19210
522.005	14603
522.075	9454
522.145	11149
522.215	12533
522.285	17998
522.355	25753
522.424	51804
522.494	38806
522.564	14317
522.634	18980
522.704	45415
522.774	19901
522.843	10573
522.913	9773
522.983	9956
523.053	8714
523.122	9097
523.192	9925
523.262	23463
523.331	22917
523.401	10293
523.471	7847
523.540	7290
523.610	7470
523.680	7506
523.749	7933
523.819	12401
523.888	12559
523.958	7034
524.027	9673
524.097	10121
524.166	8901
524.236	7902
524.305	10735
524.375	8008
524.444	7803
524.514	10228
524.583	9520
524.653	12345
524.722	14418
524.791	7686
524.861	10621
524.930	7455
524.999	7993
525.069	11034
525.138	12346
525.207	15122
525.277	9992
525.346	9092
525.415	9228
525.484	9146
525.554	13153
525.623	11753
525.692	10968
525.761	11110
525.830	13453
525.900	13672
525.969	22046
526.038	31370
526.107	58991
526.176	166975
526.245	125249
526.314	41427
526.383	89249
526.452	108730
526.522	186710
526.591	173302
526.660	40378
526.729	23948
526.797	27359
526.867	43273
526.935	164441
527.004	358143
527.073	182324
527.142	22544
527.211	13537
527.280	12046
527.349	11057
527.418	6397
527.487	9455
527.555	7674
527.624	6942
527.693	6130
527.762	8998
527.831	5783
527.899	8035
527.968	6292
528.037	6954
528.106	8386
528.174	12341
528.243	13201
528.312	17886
528.380	18124
528.449	8764
528.518	7893
528.586	5416
528.655	6886
528.723	6789
528.792	6317
528.861	7584
528.929	6937
528.998	8302
529.066	7606
529.135	11096
529.203	9894
529.272	12783
529.340	15092
529.409	16192
529.477	12505
529.545	15924
529.614	18648
529.682	20748
529.751	22972
529.819	24623
529.887	20968
529.956	18224
530.024	18222
530.092	15573
530.161	16537
530.229	19709
530.297	17678
530.365	18503
530.434	17667
530.502	17990
530.570	15975
530.638	14030
530.707	14453
530.775	16624
530.843	14113
530.911	16663
530.979	15697
531.047	17675
531.115	17261
531.183	16506
531.252	15157
531.320	15916
531.388	14611
531.456	16601
531.524	15626
531.592	17968
531.660	20700
531.728	16878
531.796	16454
531.864	17065
531.932	16359
532.000	16033
532.067	17335
532.135	19670
532.203	20222
532.271	21108
532.339	22906
532.407	31025
532.475	23654
532.542	21049
532.610	19799
532.678	23440
532.746	47339
532.814	95800
532.881	35542
532.949	21287
533.017	19579
533.084	18428
533.152	17676
533.220	17923
533.287	17567
533.355	17770
533.423	18290
533.490	18180
533.558	18315
533.625	17588
533.693	16550
533.761	16498
533.828	17033
533.896	16982
533.963	20313
534.031	22236
534.098	25721
534.166	19405
534.233	15023
534.300	16616
534.368	16687
534.435	15299
534.503	15688
534.570	17649
534.637	16466
534.705	18467
534.772	19724
534.840	24991
534.907	82742
534.974	92442
535.041	19784
535.109	18289
535.176	13343
535.243	14594
535.310	13822
535.378	13463
535.445	13072
535.512	11830
535.579	12080
535.646	11541
535.714	12380
535.781	13502
535.848	12943
535.915	14677
535.982	11837
536.049	12655
536.116	13996
536.183	11692
536.250	10780
536.317	11154
536.384	12008
536.451	12939
536.518	13842
536.585	11938
536.652	15324
536.719	16749
536.786	12120
536.853	12647
536.920	16175
536.987	19641
537.053	16560
537.120	47668
537.187	39901
537.254	12135
537.321	10181
537.388	11520
537.454	9516
537.521	10375
537.588	9010
537.654	11016
537.721	9302
537.788	11295
537.855	9311
537.921	10596
537.988	9759
538.055	10921
538.121	7836
538.188	9598
538.254	10217
538.321	16346
538.388	12607
538.454	9994
538.521	10290
538.587	9022
538.654	9417
538.720	10010
538.787	8652
538.853	11152
538.920	11810
538.986	11937
539.053	9477
539.119	10727
539.185	9132
539.252	11204
539.318	11394
539.385	12899
539.451	9181
539.517	11329
539.583	11599
539.650	18900
539.716	36901
539.782	13691
539.849	8204
539.915	9850
539.981	8163
540.047	9576
540.114	9476
540.180	11347
540.246	8487
540.312	10378
540.378	15351
540.444	15862
540.510	16922
540.576	39476
540.643	15868
540.709	8378
540.775	8534
540.841	9228
540.907	12096
540.973	17114
541.039	11723
541.105	11670
541.171	8525
541.237	8331
541.303	8721
541.369	11720
541.435	9499
541.500	13779
541.566	9425
541.632	8607
541.698	7386
541.764	9095
541.830	7719
541.896	7534
541.961	8477
542.027	8672
542.093	7893
542.159	9205
542.224	7075
542.290	11245
542.356	13071
542.421	16875
542.487	10074
542.553	9673
542.618	9914
542.684	8551
542.750	8306
542.815	10438
542.881	14123
542.947	35625
543.012	24832
543.078	7965
543.143	7856
543.209	9319
543.274	8661
543.340	9605
543.405	15753
543.471	21012
543.536	8622
543.602	8795
543.667	7240
543.732	9307
543.798	6655
543.863	8873
543.928	7672
543.994	7841
544.059	7610
544.124	8102
544.190	7722
544.255	8815
544.320	7893
544.386	7898
544.451	10089
544.516	11337
544.581	10542
544.646	24172
544.712	34447
544.777	12002
544.842	12607
544.907	13824
544.972	11366
545.037	11989
545.102	13239
545.168	12580
545.233	13235
545.298	13666
545.363	14230
545.428	14715
545.493	18472
545.558	31419
545.623	17852
545.688	12880
545.753	12768
545.818	12745
545.883	14047
545.947	13277
546.012	15595
546.077	15614
546.142	14213
546.207	13203
546.272	14202
546.337	13982
546.401	13789
546.466	14717
546.531	12810
546.596	15789
546.661	14779
546.725	15570
546.790	14959
546.855	16331
546.919	15445
546.984	18200
547.049	19078
547.113	23877
547.178	20662
547.243	25292
547.307	27858
547.372	31266
547.436	31847
547.501	29086
547.565	29713
547.630	29593
547.695	29737
547.759	33850
547.823	31003
547.888	27812
547.952	28527
548.017	30237
548.081	32735
548.146	38237
548.210	35395
548.274	31915
548.339	30684
548.403	29190
548.468	26270
548.532	27581
548.596	27907
548.660	28903
548.725	31410
548.789	35881
548.853	34244
548.917	32031
548.982	38094
549.046	35865
549.110	25858
549.174	25992
549.238	29245
549.303	29518
549.367	31752
549.431	31229
549.495	28836
549.559	29557
549.623	32289
549.687	37825
549.751	38882
549.815	42980
549.879	42912
549.943	39432
550.007	42718
550.071	42210
550.135	39580
550.199	37201
550.263	35488
550.327	37022
550.391	43192
550.455	38978
550.519	40180
550.582	41921
550.646	47947
550.710	49291
550.774	46345
550.838	47069
550.901	48003
550.965	52146
551.029	52053
551.093	57918
551.156	67368
551.220	95752
551.284	107308
551.347	68999
551.411	93181
551.475	91007
551.538	51055
551.602	46412
551.666	43311
551.729	40975
551.793	41164
551.856	40765
551.920	39383
551.983	40354
552.047	38260
552.110	39084
552.174	37587
552.237	40853
552.301	37217
552.364	36742
552.428	35261
552.491	35734
552.554	35723
552.618	38104
552.681	38165
552.745	38164
552.808	43840
552.871	50124
552.934	41801
552.998	40462
553.061	38147
553.124	36393
553.187	36549
553.251	38891
553.314	40011
553.377	41213
553.440	48922
553.503	84480
553.567	109674
553.630	47458
553.693	38822
553.756	39630
553.819	36575
553.882	36652
553.945	36670
554.008	34426
554.071	35584
554.134	37082
554.197	34191
554.260	33322
554.323	35464
554.386	35853
554.449	36310
554.512	36965
554.575	33420
554.638	34881
554.701	33403
554.764	33501
554.827	32752
554.889	31786
554.952	29150
555.015	29335
555.078	29519
555.141	31479
555.203	29492
555.266	29915
555.329	30069
555.391	29018
555.454	28997
555.517	28435
555.580	26870
555.642	26593
555.705	24435
555.768	26583
555.830	25533
555.893	24008
555.955	24342
556.018	24412
556.080	25093
556.143	24924
556.206	24434
556.268	26134
556.330	25138
556.393	25304
556.455	23720
556.518	31904
556.580	29244
556.643	21807
556.705	21311
556.767	21015
556.830	22155
556.892	21369
556.955	24567
557.017	21895
557.079	20879
557.142	20936
557.204	19775
557.266	27968
557.328	25226
557.391	18370
557.453	18382
557.515	19599
557.577	20233
557.639	20946
557.701	19059
557.764	19351
557.826	20523
557.888	22725
557.950	22005
558.012	24374
558.074	29972
558.136	59742
558.198	129679
558.260	48525
558.322	24357
558.384	26069
558.446	26941
558.508	31644
558.570	36107
558.632	44844
558.694	60433
558.756	80536
558.818	214863
558.880	470012
558.942	154868
559.003	139373
559.065	67457
559.127	31847
559.189	31730
559.251	37527
559.312	50989
559.374	112868
559.436	332464
559.498	153030
559.559	35112
559.621	32900
559.683	41308
559.744	67131
559.806	181081
559.868	243484
559.929	54309
559.991	39950
560.052	54964
560.114	135392
560.176	85068
560.237	80664
560.299	120859
560.360	32457
560.422	20038
560.483	19308
560.545	17598
560.606	18429
560.667	16959
560.729	16403
560.790	16840
560.852	17760
560.913	15885
560.974	16337
561.036	15887
561.097	16426
561.158	15804
561.220	16411
561.281	16005
561.342	16312
561.403	17823
561.465	19798
561.526	30851
561.587	36099
561.648	18144
561.709	16920
561.771	15391
561.832	16202
561.893	14706
561.954	14916
562.015	14186
562.076	15798
562.137	14982
562.198	15030
562.259	15915
562.320	15518
562.381	15654
562.442	19612
562.503	16112
562.564	14881
562.625	14594
562.686	16445
562.747	16657
562.808	16410
562.869	16870
562.930	22537
562.991	19975
563.051	18716
563.112	17039
563.173	16291
563.234	16233
563.294	15966
563.355	15809
563.416	15129
563.477	15533
563.537	16335
563.598	16744
563.659	17743
563.720	16199
563.780	17064
563.841	16863
563.901	17014
563.962	16149
564.023	17102
564.083	15939
564.144	17105
564.204	16574
564.265	18361
564.325	22622
564.386	39241
564.446	34009
564.507	16667
564.567	15634
564.628	15944
564.688	16017
564.749	15815
564.809	19136
564.869	21241
564.930	16504
564.990	16007
565.050	13873
565.111	15837
565.171	14571
565.231	14834
565.292	15056
565.352	15248
565.412	15476
565.472	14985
565.532	15709
565.593	15013
565.653	14642
565.713	16296
565.773	16373
565.833	17808
565.893	18544
565.953	16268
566.013	15123
566.074	18490
566.134	24393
566.194	37381
566.254	34488
566.314	23374
566.374	16067
566.434	16772
566.494	15969
566.554	16812
566.614	15382
566.673	15856
566.733	17165
566.793	16756
566.853	16600
566.913	17878
566.973	16984
567.033	18486
567.092	17727
567.152	17883
567.212	17441
567.272	18420
567.331	19524
567.391	18745
567.451	20034
567.511	27781
567.570	27741
567.630	17780
567.690	16653
567.749	16565
567.809	15578
567.868	17076
567.928	17129
567.988	20672
568.047	17502
568.107	16347
568.166	17547
568.226	18118
568.285	19357
568.345	19155
568.404	17944
568.464	17702
568.523	17128
568.582	17916
568.642	18100
568.701	19123
568.761	20669
568.820	25906
568.879	26087
568.939	29417
568.998	23169
569.057	17811
569.116	17803
569.176	16808
569.235	15387
569.294	15643
569.353	15163
569.413	17247
569.472	17842
569.531	15485
569.590	14755
569.649	15439
569.708	13903
569.767	16864
569.827	18968
569.886	17635
569.945	15447
570.004	16650
570.063	16410
570.122	17715
570.181	18765
570.240	22821
570.299	21560
570.358	20699
570.417	16549
570.475	16548
570.534	16579
570.593	17177
570.652	17234
570.711	19059
570.770	16852
570.829	19443
570.887	16927
570.946	18272
571.005	16111
571.064	17510
571.122	19454
571.181	21523
571.240	16508
571.299	17083
571.357	19342
571.416	21325
571.475	22232
571.533	24146
571.592	17530
571.650	20273
571.709	16787
571.768	16941
571.826	16949
571.885	16815
571.943	15475
572.002	16731
572.060	17544
572.119	15732
572.177	15467
572.236	14809
572.294	13781
572.352	16228
572.411	15157
572.469	16015
572.528	14867
572.586	15524
572.644	17160
572.703	20812
572.761	16890
572.819	16025
572.877	14504
572.936	14850
572.994	14554
573.052	14836
573.110	15247
573.169	15313
573.227	13513
573.285	15569
573.343	14802
573.401	15690
573.459	15347
573.517	15362
573.576	15410
573.634	16992
573.692	16591
573.750	16841
573.808	15834
573.866	18510
573.924	23568
573.982	22782
574.040	16279
574.098	17012
574.155	15309
574.213	14013
574.271	14316
574.329	15127
574.387	13858
574.445	14516
574.503	13526
574.560	14421
574.618	14000
574.676	14054
574.734	13553
574.792	14125
574.849	12629
574.907	12956
574.965	13360
575.022	13430
575.080	13039
575.138	14192
575.195	13972
575.253	13977
575.311	14486
575.368	14305
575.426	12962
575.483	14267
575.541	13873
575.598	14421
575.656	14958
575.713	15323
575.771	13564
575.828	14274
575.886	13827
575.943	16637
576.001	16135
576.058	17166
576.115	16358
576.173	20896
576.230	22560
576.287	21992
576.345	19754
576.402	18599
576.459	18233
576.517	17831
576.574	19389
576.631	21176
576.688	18730
576.746	17254
576.803	17395
576.860	16888
576.917	16522
576.974	17349
577.031	17012
577.089	17075
577.146	17497
577.203	17640
577.260	18938
577.317	20032
577.374	22580
577.431	20112
577.488	17765
577.545	17683
577.602	17003
577.659	18188
577.716	18764
577.773	21252
577.830	17909
577.886	16716
577.943	16472
578.000	16404
578.057	17132
578.114	17307
578.171	15971
578.227	17281
578.284	16677
578.341	17914
578.398	16697
578.454	19157
578.511	21278
578.568	23414
578.625	19939
578.681	18207
578.738	16060
578.794	16188
578.851	16654
578.908	16242
578.964	16590
579.021	17030
579.077	15546
579.134	16167
579.190	15239
579.247	15644
579.303	15417
579.360	15366
579.416	15534
579.473	15782
579.529	14489
579.586	15002
579.642	16079
579.698	16927
579.755	17421
579.811	16408
579.867	15729
579.924	16584
579.980	16363
580.036	18508
580.093	17870
580.149	19197
580.205	18957
580.261	19567
580.317	19725
580.374	22238
580.430	23674
580.486	22107
580.542	19981
580.598	19268
580.619	19193
580.654	19081
580.692	19436
580.710	19635
580.765	17902
580.767	17859
580.823	19444
580.838	19254
580.879	18790
580.911	18984
580.935	19161
580.984	18296
580.991	18185
581.047	20711
581.057	20440
581.103	19346
581.130	19904
581.159	20474
581.203	20827
581.215	20952
581.270	21812
581.276	21689
581.326	20498
581.349	21271
581.382	22494
581.422	21798
581.438	21501
581.494	23035
581.494	23006
581.550	20830
581.567	21517
581.606	22962
581.640	22122
581.661	21620
581.713	22692
581.717	22792
581.773	21854
581.786	22212
581.829	23362
581.859	22795
581.885	22272
581.932	22637
581.940	22726
581.996	23017
582.004	23101
582.052	23456
582.077	23574
582.107	23830
582.150	24039
582.163	24052
582.219	24620
582.223	24596
582.274	24483
582.296	24742
582.330	25111
582.368	26167
582.386	26735
582.441	24694
582.441	24690
582.497	26052
582.514	26157
582.552	26718
582.587	28493
582.608	29401
582.659	26881
582.663	26684
582.719	26344
582.732	26232
582.774	25938
582.805	27316
582.830	28650
582.877	28288
582.885	28206
582.941	29860
582.950	30161
582.996	32106
583.023	33585
583.052	35049
583.095	35037
583.107	34827
583.162	34673
583.168	34518
583.218	33059
583.240	32300
583.273	31256
583.313	30230
583.328	29826
583.384	29944
583.385	29870
583.439	27814
583.458	27705
583.494	27812
583.531	26877
583.549	26426
583.603	27525
583.605	27545
583.660	27972
583.676	27760
583.715	27591
583.748	28234
583.770	28600
583.820	28621
583.825	28649
583.881	28785
583.893	28753
583.936	28194
583.965	28208
583.991	28562
584.038	29720
584.046	29867
584.101	29120
584.110	29215
584.156	29935
584.183	29753
584.211	29218
584.255	29540
584.266	29832
584.321	28729
584.328	29016
584.376	30943
584.400	30784
584.431	30739
584.472	31465
584.486	31694
584.541	32259
584.545	32273
584.596	32875
584.617	32966
584.651	33302
584.689	35107
584.706	35775
584.761	36347
584.762	36330
584.816	35864
584.834	35669
584.871	35662
584.906	36385
584.926	36559
584.978	36652
584.980	36707
585.035	39536
585.051	39624
585.090	39651
585.123	40713
585.145	41509
585.195	42608
585.200	42883
585.254	48515
585.267	49715
585.309	54606
585.340	60294
585.364	63154
585.412	59351
585.419	58892
585.473	61355
585.484	62520
585.528	72523
585.556	83206
585.583	106945
585.628	159124
585.637	178983
585.692	334196
585.700	361830
585.747	451666
585.772	403908
585.801	269130
585.845	104634
585.856	87221
585.910	59181
585.917	56379
585.965	50887
585.989	49278
586.019	48482
586.061	47041
586.074	46632
586.128	46402
586.133	46381
586.183	47099
586.205	46850
586.237	46538
586.277	46758
586.292	46713
586.346	45312
586.349	45205
586.401	44241
586.421	44397
586.455	45909
586.493	48619
586.509	51773
586.564	64243
586.565	64761
586.618	96095
586.637	98504
586.672	82785
586.709	59606
586.727	52519
586.781	47744
586.781	47782
586.835	42410
586.853	41079
586.889	39898
586.925	37920
586.944	37507
586.996	38750
586.998	38839
587.052	39444
587.068	39574
587.106	39439
587.140	39020
587.161	39211
587.212	40076
587.215	40160
587.269	40314
587.284	40539
587.323	41065
587.356	40937
587.377	40819
587.427	40540
587.431	40623
587.485	40971
587.499	41116
587.539	42022
587.571	42495
587.593	43151
587.643	44677
587.648	44822
587.702	44756
587.715	45076
587.755	46621
587.786	46952
587.810	46549
587.858	45794
587.864	46102
587.917	48184
587.930	48969
587.971	51280
588.001	52368
588.025	52706
588.073	51875
588.079	51934
588.133	51956
588.145	52207
588.187	54566
588.217	56192
588.241	58575
588.288	62939
588.295	63575
588.348	68252
588.360	69227
588.402	74126
588.431	77166
588.456	80766
588.503	88880
588.510	90361
588.564	100858
588.575	103293
588.617	115023
588.646	122849
588.671	133777
588.718	157762
588.725	165815
588.778	232354
588.789	248156
588.832	414161
588.861	536304
588.886	744077
588.932	1165929
588.939	1193403
588.993	1339250
589.004	1338955
589.047	872569
589.075	560986
589.100	424620
589.147	214555
589.154	207477
589.207	161964
589.218	153185
589.261	147365
589.290	144289
589.314	151938
589.361	169926
589.368	179870
589.421	266569
589.433	286796
589.475	519235
589.504	692356
589.528	868938
589.576	1215345
589.582	1179881
589.635	723669
589.647	621871
589.689	343049
589.718	169511
589.742	145804
589.790	104877
589.795	104384
589.849	99839
589.861	99627
589.902	104643
589.932	104531
589.955	93379
590.004	67338
590.009	66674
590.062	62373
590.075	61239
590.115	59419
590.146	57849
590.168	57977
590.218	58160
590.222	58287
590.275	57943
590.289	57902
590.328	58568
590.360	58323
590.381	57791
590.431	56535
590.435	56704
590.488	57243
590.503	57413
590.541	57422
590.574	56931
590.594	56852
590.645	56367
590.647	56488
590.700	56250
590.716	56087
590.753	56541
590.787	56568
590.806	56491
590.859	56117
590.859	56239
590.912	55450
590.930	55149
590.965	56802
591.001	58053
591.018	57903
591.071	57199
591.072	57053
591.124	57210
591.143	57097
591.177	57825
591.214	58384
591.230	58790
591.283	59678
591.285	59564
591.336	62181
591.356	63124
591.389	62873
591.427	61912
591.442	61238
591.495	58264
591.498	57906
591.547	57839
591.569	57680
591.600	58980
591.640	60196
591.653	60413
591.706	60829
591.711	60712
591.759	64498
591.782	66406
591.811	68955
591.853	72056
591.864	70999
591.917	64240
591.924	63148
591.969	63194
591.995	63089
592.022	64297
592.066	65764
592.075	66874
592.127	72850
592.137	73827
592.180	80526
592.208	84334
592.233	79239
592.279	68746
592.285	68685
592.338	67095
592.350	66537
592.390	65984
592.421	65322
592.443	65975
592.491	66808
592.495	67011
592.548	67332
592.562	67244
592.600	68286
592.633	68834
592.653	68551
592.704	66955
592.705	67370
592.775	68863
592.846	69470
592.916	70457
592.987	71050
593.058	71389
593.128	69447
593.199	70033
593.270	69492
593.341	70310
593.411	71726
593.482	73111
593.553	74165
593.623	73736
593.694	75740
593.764	79997
593.835	75657
593.906	75391
593.976	75145
594.047	80801
594.117	90106
594.188	90590
594.258	79056
594.329	78328
594.399	80795
594.470	81495
594.540	81262
594.611	83640
594.681	82297
594.751	85430
594.822	88470
594.892	92110
594.963	95068
595.033	94662
595.103	96466
595.174	101729
595.244	123620
595.314	140825
595.384	102630
595.455	103708
595.525	106019
595.595	110069
595.665	109544
595.736	107206
595.806	108350
595.876	109869
595.946	110690
596.016	112374
596.087	116929
596.157	116862
596.227	116781
596.297	124287
596.367	131067
596.437	139556
596.507	153867
596.577	169617
596.647	140561
596.717	140984
596.787	143391
596.857	144232
596.927	145194
596.997	145447
597.067	147965
597.137	157480
597.207	154499
597.277	154194
597.347	150732
597.417	146964
597.487	148649
597.557	154985
597.626	156561
597.696	163341
597.766	173884
597.836	186777
597.906	155188
597.975	149474
598.045	150751
598.115	155727
598.185	162138
598.254	176098
598.324	188589
598.394	193244
598.464	189629
598.533	187435
598.603	180750
598.672	181399
598.742	183273
598.812	184888
598.881	189633
598.951	192002
599.020	191734
599.090	198290
599.159	202642
599.229	200897
599.299	199504
599.368	204965
599.437	204518
599.507	200255
599.576	200843
599.646	205464
599.715	204701
599.785	203714
599.854	207473
599.924	212219
599.993	212796
600.062	213985
600.132	217119
600.201	227979
600.270	248631
600.340	256785
600.409	252903
600.478	260388
600.547	265589
600.617	261246
600.686	241991
600.755	236446
600.824	237755
600.894	240738
600.963	242850
601.032	249970
601.101	248095
601.170	251349
601.239	253545
601.308	263992
601.378	266666
601.447	270041
601.516	273859
601.585	283433
601.654	294481
601.723	296962
601.792	306285
601.861	320663
601.930	342235
601.999	350294
602.068	341315
602.137	347638
602.206	349824
602.275	351550
602.343	357390
602.412	360962
602.481	358213
602.550	359986
602.619	369198
602.688	365836
602.756	372592
602.825	367116
602.894	379696
602.963	373673
603.032	383680
603.100	379902
603.169	372291
603.238	392948
603.307	363973
603.375	372039
603.444	393676
603.513	355788
603.581	374059
603.650	399632
603.719	320979
603.787	305774
603.856	311585
603.924	320329
603.993	327742
604.061	335523
604.130	345493
604.198	354230
604.267	355047
604.335	365037
604.404	364327
604.472	378532
604.541	375971
604.609	395959
604.678	404533
604.746	413391
604.815	436046
604.883	414397
604.951	399567
605.020	414596
605.088	378101
605.156	353679
605.225	354354
605.293	348098
605.361	355192
605.429	347501
605.498	358985
605.566	349393
605.634	368065
605.702	362797
605.771	368249
605.839	384219
605.907	345254
605.975	371652
606.043	348381
606.111	335553
606.180	381702
606.248	339593
606.316	338174
606.384	369721
606.452	284903
606.520	225833
606.588	219569
606.656	216483
606.724	214595
606.792	202448
606.860	184776
606.928	170642
606.996	165800
607.064	162984
607.132	164827
607.200	175729
607.267	182887
607.335	184917
607.403	188288
607.471	184776
607.539	179397
607.607	180356
607.674	161649
607.742	163111
607.810	160902
607.878	160042
607.946	160673
608.013	168354
608.081	170149
608.149	170491
608.216	173575
608.284	180108
608.352	176248
608.419	177320
608.487	187327
608.555	171281
608.622	167770
608.690	174132
608.757	188932
608.825	190755
608.893	188454
608.960	185780
609.028	183255
609.095	191673
609.163	172830
609.230	152371
609.298	139927
609.365	146604
609.432	155771
609.500	169711
609.567	194788
609.635	223021
609.702	234090
609.769	224562
609.837	179702
609.904	153030
609.971	153278
610.039	171140
610.106	222505
610.173	418586
610.241	934212
610.308	548994
610.375	232271
610.442	169219
610.509	154175
610.577	154284
610.644	155799
610.711	161729
610.778	165559
610.845	172791
610.912	186435
610.980	197459
611.047	218803
611.114	198107
611.181	179934
611.248	178511
611.315	189102
611.382	192459
611.449	198015
611.516	201183
611.583	200012
611.650	201301
611.717	203337
611.784	209238
611.851	215658
611.918	231098
611.984	262544
612.051	369316
612.118	716827
612.185	1648651
612.252	1012072
612.319	311579
612.386	262197
612.452	242481
612.519	233121
612.586	244107
612.653	234976
612.719	238147
612.786	228288
612.853	211494
612.919	206347
612.986	208792
613.053	196232
613.120	186263
613.186	177009
613.253	180993
613.319	178114
613.386	182362
613.453	184963
613.519	190123
613.586	191228
613.652	207706
613.719	194363
613.785	194561
613.852	189473
613.918	187740
613.985	196827
614.051	232625
614.118	322028
614.184	300139
614.250	191702
614.317	189829
614.383	187703
614.449	189007
614.516	187579
614.582	190983
614.648	184210
614.715	183068
614.781	180348
614.847	183518
614.914	184465
614.980	178776
615.046	175957
615.112	179906
615.179	179365
615.245	183346
615.311	181434
615.377	184628
615.443	188221
615.509	190129
615.575	194973
615.642	193717
615.708	199798
615.774	210984
615.840	222679
615.906	238274
615.972	279707
616.038	412733
616.104	850334
616.170	1871826
616.236	1527132
616.302	433479
616.368	338348
616.434	251029
616.500	235784
616.565	261974
616.631	319602
616.697	261362
616.763	269231
616.829	399962
616.895	695384
616.961	638418
617.026	282292
617.092	209345
617.158	201284
617.224	196630
617.289	182997
617.355	178681
617.421	178556
617.487	177375
617.552	166701
617.618	166616
617.684	164638
617.749	167906
617.815	158993
617.880	156576
617.946	156552
618.012	161551
618.077	162440
618.143	155633
618.208	157846
618.274	168839
618.339	173075
618.405	144530
618.470	144463
618.536	148332
618.601	150325
618.667	141893
618.732	132385
618.798	129988
618.863	129307
618.928	129823
618.994	134143
619.059	137275
619.124	148638
619.190	136382
619.255	131262
619.320	129749
619.386	131495
619.451	127861
619.516	124943
619.581	128976
619.647	131286
619.712	131802
619.777	125337
619.842	129211
619.907	132861
619.972	133230
620.038	132432
620.103	128027
620.168	126784
620.233	131018
620.298	129297
620.363	132537
620.428	133508
620.493	138901
620.558	136384
620.623	138610
620.688	139276
620.753	139198
620.818	140936
620.883	143046
620.948	141715
621.013	141084
621.078	139812
621.143	143616
621.207	144852
621.272	143870
621.337	143638
621.402	147048
621.467	161878
621.532	163717
621.596	152299
621.661	143311
621.726	137639
621.791	141756
621.855	141893
621.920	144251
621.985	147886
622.049	155483
622.114	153194
622.179	152273
622.243	158155
622.308	159299
622.373	161606
622.437	162037
622.502	152359
622.566	151260
622.631	152251
622.695	154751
622.760	151973
622.824	151539
622.889	153895
622.953	156060
623.018	175520
623.082	175014
623.147	160047
623.211	156580
623.276	155969
623.340	147251
623.404	143343
623.469	146027
623.533	147970
623.597	143106
623.662	142627
623.726	136718
623.790	128314
623.854	130445
623.919	132463
623.983	129427
624.047	131427
624.111	130471
624.176	135682
624.240	141809
624.304	144633
624.368	132432
624.432	132370
624.496	135446
624.560	141368
624.625	146639
624.689	140378
624.753	144579
624.817	138358
624.881	134319
624.945	123186
625.009	122984
625.073	123497
625.137	131169
625.201	139073
625.265	138551
625.329	127724
625.393	132304
625.456	127205
625.520	132599
625.584	138374
625.648	151851
625.712	185045
625.776	292851
625.839	308008
625.903	159786
625.967	120843
626.031	159564
626.095	216231
626.158	132680
626.222	103268
626.286	95508
626.349	92754
626.413	88691
626.477	91495
626.540	87884
626.604	88406
626.668	89731
626.731	87406
626.795	92444
626.858	89889
626.922	86992
626.986	83947
627.049	83793
627.113	87133
627.176	85982
627.240	83814
627.303	81718
627.366	81633
627.430	84443
627.493	83622
627.557	86334
627.620	85641
627.684	84530
627.747	85015
627.810	79578
627.874	75526
627.937	72883
628.000	78896
628.064	76139
628.127	65041
628.190	67231
628.253	66305
628.317	63747
628.380	62976
628.443	62629
628.506	63704
628.569	58398
628.632	55532
628.696	57356
628.759	57162
628.822	53986
628.885	51459
628.948	54182
629.011	54199
629.074	53363
629.137	51904
629.200	52694
629.263	53801
629.326	49465
629.389	49605
629.452	51552
629.515	52167
629.578	51046
629.641	52873
629.704	52653
629.767	51208
629.830	47485
629.892	46732
629.955	47063
630.018	51990
630.081	50197
630.144	54361
630.207	49923
630.269	52004
630.332	54157
630.395	48570
630.458	46595
630.520	45619
630.583	46278
630.646	43705
630.708	44018
630.771	44344
630.834	46206
630.896	44373
630.959	45080
631.021	44442
631.084	45793
631.146	47489
631.209	50765
631.272	44616
631.334	44078
631.397	44554
631.459	43924
631.522	45065
631.584	47948
631.646	48710
631.709	51021
631.771	57342
631.834	50954
631.896	46651
631.958	42479
632.021	43799
632.083	43778
632.145	45629
632.208	42928
632.270	43136
632.332	41811
632.395	41133
632.457	43917
632.519	41136
632.581	42374
632.643	40466
632.706	42260
632.768	39018
632.830	40903
632.892	40412
632.954	42297
633.016	43037
633.078	40623
633.141	41227
633.203	41311
633.265	42083
633.327	41184
633.389	40804
633.451	43076
633.513	46691
633.575	47294
633.637	44975
633.698	44299
633.760	43458
633.822	43836
633.884	44192
633.946	43972
634.008	45882
634.070	48315
634.132	56043
634.193	52296
634.255	51819
634.317	54248
634.379	51625
634.441	48910
634.502	45315
634.564	42359
634.626	39597
634.687	39436
634.749	38774
634.811	38890
634.873	36380
634.934	36897
634.996	39018
635.057	38759
635.119	38321
635.181	40258
635.242	40666
635.304	37269
635.365	40499
635.427	38892
635.488	38180
635.550	38147
635.611	37853
635.673	36692
635.734	43122
635.796	41782
635.857	45356
635.918	44995
635.980	49538
636.041	50614
636.102	53248
636.164	53678
636.225	51557
636.286	46974
636.348	43223
636.409	40144
636.470	36877
636.531	39821
636.593	41272
636.654	38839
636.715	34252
636.776	34207
636.838	32630
636.899	35751
636.960	33570
637.021	32657
637.082	32664
637.143	32706
637.204	31001
637.265	32590
637.326	32063
637.387	33035
637.448	31232
637.509	31925
637.570	31338
637.631	31385
637.692	30444
637.753	28500
637.814	30176
637.875	29641
637.936	30439
637.997	29693
638.058	29770
638.119	31876
638.179	29992
638.240	29340
638.301	29786
638.362	29768
638.423	30424
638.483	30139
638.544	27653
638.605	29381
638.666	27512
638.726	29971
638.787	29275
638.848	29299
638.908	27680
638.969	27814
639.030	28696
639.090	26039
639.151	26604
639.211	29004
639.272	32484
639.332	42946
639.393	31218
639.453	30022
639.514	28648
639.574	27775
639.635	25347
639.695	28557
639.756	25013
639.816	26862
639.877	29010
639.937	38420
639.997	41454
640.058	27579
640.118	24415
640.178	25912
640.239	25364
640.299	25590
640.359	24982
640.420	27738
640.480	27845
640.540	30577
640.600	30414
640.661	28937
640.721	27499
640.781	33463
640.841	28055
640.901	26328
640.961	24958
641.021	27416
641.082	29363
641.142	34110
641.202	25624
641.262	24022
641.322	24729
641.382	23208
641.442	23530
641.502	24175
641.562	24580
641.622	25000
641.682	25941
641.742	28305
641.802	27176
641.861	25934
641.921	25315
641.981	27319
642.041	24899
642.101	30022
642.161	23073
642.221	23086
642.280	22636
642.340	23584
642.400	22462
642.460	24179
642.519	23505
642.579	23684
642.639	24956
642.698	22227
642.758	25717
642.818	23873
642.877	22273
642.937	25611
642.997	26201
643.056	32210
643.116	23997
643.175	26184
643.235	22697
643.294	24460
643.354	25132
643.414	26346
643.473	29497
643.532	34610
643.592	42451
643.651	65434
643.711	109803
643.770	215478
643.830	526156
643.889	1037585
643.948	240436
644.008	54351
644.067	37122
644.126	29808
644.186	27055
644.245	25913
644.304	21915
644.363	25414
644.423	21367
644.482	23262
644.541	23672
644.600	22692
644.659	29051
644.719	34498
644.778	48670
644.837	79961
644.896	160886
644.955	360596
645.014	113002
645.073	37734
645.132	27247
645.191	27093
645.250	24007
645.309	26638
645.368	26312
645.427	32567
645.486	50723
645.545	80812
645.604	28252
645.663	23482
645.722	22327
645.781	24034
645.840	25743
645.898	30860
645.957	40946
646.016	58679
646.075	105851
646.134	209661
646.192	564109
646.251	768947
646.310	114770
646.369	41287
646.427	34382
646.486	27818
646.545	24336
646.603	23044
646.662	21538
646.721	21167
646.779	20156
646.838	20923
646.896	26230
646.955	32328
647.014	48692
647.072	89369
647.131	236562
647.189	104318
647.248	23633
647.306	20873
647.365	20116
647.423	16158
647.481	18615
647.540	16351
647.598	17228
647.657	17235
647.715	18084
647.773	16379
647.832	16916
647.890	16865
647.948	16899
648.007	17834
648.065	15819
648.123	17526
648.181	18992
648.240	23503
648.298	20604
648.356	17758
648.414	17355
648.472	17897
648.531	16925
648.589	16136
648.647	14857
648.705	16096
648.763	16047
648.821	17194
648.879	16457
648.937	18793
648.995	20066
649.053	24408
649.111	33984
649.169	53418
649.227	92927
649.285	195249
649.343	547075
649.401	237100
649.459	59937
649.516	43417
649.574	41299
649.632	82685
649.690	92771
649.748	40778
649.806	54692
649.863	92008
649.921	172285
649.979	103520
650.037	21626
650.094	16402
650.152	15880
650.210	15375
650.268	15597
650.325	16454
650.383	16474
650.440	12913
650.498	14038
650.556	13438
650.613	11510
650.671	13710
650.728	13947
650.786	15307
650.843	16654
650.901	13067
650.958	11697
651.016	12386
651.073	13040
651.131	12412
651.188	11720
651.246	13837
651.303	11559
651.360	12976
651.418	11691
651.475	12486
651.532	9814
651.590	11699
651.647	10522
651.704	13055
651.762	11411
651.819	12409
651.876	11476
651.933	11477
651.990	11228
652.048	10780
652.105	10491
652.162	12701
652.219	10609
652.276	11699
652.333	11508
652.390	10324
652.448	11137
652.505	12306
652.562	11962
652.619	13321
652.676	22749
652.733	23098
652.790	10399
652.847	9983
652.904	11099
652.961	10060
653.017	9295
653.074	10814
653.131	11314
653.188	10301
653.245	10214
653.302	11147
653.359	9393
653.415	10382
653.472	10250
653.529	10625
653.586	8970
653.642	10356
653.699	10107
653.756	9143
653.813	9241
653.869	10231
653.926	9182
653.983	9575
654.039	9475
654.096	9633
654.152	10724
654.209	9042
654.266	10027
654.322	10006
654.379	11969
654.435	13265
654.492	12257
654.548	16680
654.605	22653
654.661	13553
654.717	10270
654.774	12219
654.830	11739
654.887	11309
654.943	11035
655.000	12356
655.056	11056
655.112	12023
655.168	9488
655.225	11437
655.281	12015
655.337	17090
655.394	23202
655.450	17574
655.506	16065
655.562	25971
655.618	18360
655.675	10119
655.731	11166
655.787	9770
655.843	10969
655.899	9219
655.955	10519
656.011	10953
656.067	8783
656.123	10870
656.179	10323
656.235	12222
656.291	8618
656.347	11841
656.403	10089
656.459	11014
656.515	12805
656.571	12555
656.627	10740
656.683	11086
656.739	10846
656.795	10182
656.850	10377
656.906	12885
656.962	10414
657.018	10501
657.074	12119
657.129	14410
657.185	16564
657.241	29797
657.297	17681
657.352	10846
657.408	9723
657.464	11728
657.519	10017
657.575	9591
657.630	9330
657.686	9867
657.742	10167
657.797	10031
657.853	10845
657.908	11882
657.964	9076
658.019	9991
658.075	11178
658.130	10510
658.186	8643
658.241	9815
658.297	8763
658.352	9505
658.407	9150
658.463	9367
658.518	9738
658.573	10199
658.629	7977
658.684	9216
658.739	9122
658.795	7635
658.850	8703
658.905	9315
658.960	8719
659.016	8364
659.071	9433
659.126	10132
659.181	9844
659.236	14741
659.291	13651
659.346	12481
659.401	12647
659.457	14820
659.512	18196
659.567	13515
659.622	8952
659.677	9831
659.732	9068
659.787	9806
659.842	11377
659.897	14503
659.952	9740
660.007	9759
660.061	9726
660.116	9262
660.171	8311
660.226	9086
660.281	9447
660.336	8306
660.391	9133
660.445	9261
660.500	8516
660.555	9946
660.610	8661
660.664	9450
660.719	8552
660.774	10027
660.828	9757
660.883	9136
660.938	9728
660.992	9051
661.047	10009
661.101	8778
661.156	8905
661.211	8779
661.265	8482
661.320	9269
661.374	8571
661.429	8597
661.483	9848
661.538	8904
661.592	8388
661.647	10097
661.701	10267
661.755	9974
661.810	10425
661.864	8139
661.919	7903
661.973	9793
662.027	8786
662.081	8055
662.136	9098
662.190	10155
662.244	10466
662.299	10413
662.353	9235
662.407	8423
662.461	10317
662.515	10349
662.569	10053
662.624	10962
662.678	9466
662.732	9350
662.786	10062
662.840	9888
662.894	9688
662.948	9447
663.002	8489
663.056	9089
663.110	8430
663.164	9853
663.218	8276
663.272	9971
663.326	9696
663.380	11014
663.434	10156
663.488	9758
663.542	9605
663.595	9768
663.649	8875
663.703	9671
663.757	8959
663.811	8978
663.864	8884
663.918	9480
663.972	9133
664.026	9475
664.079	8035
664.133	10762
664.187	8704
664.240	8966
664.294	8690
664.348	9769
664.401	9470
664.455	8864
664.508	9078
664.562	10011
664.615	9096
664.669	8447
664.722	8462
664.776	9425
664.829	9536
664.883	9605
664.936	9698
664.990	11044
665.043	10266
665.097	11380
665.150	12008
665.203	10454
665.257	9680
665.310	10640
665.363	10206
665.417	10982
665.470	10787
665.523	10728
665.576	9685
665.630	10761
665.683	10588
665.736	10302
665.789	10425
665.842	10418
665.895	10326
665.949	10554
666.002	9908
666.055	10658
666.108	10768
666.161	10661
666.214	10778
666.267	11739
666.320	11753
666.373	10659
666.426	10329
666.479	11059
666.532	10977
666.585	12369
666.638	13346
666.691	13183
666.744	12464
666.796	12505
666.849	11791
666.902	11034
666.955	9095
667.008	9479
667.060	8803
667.113	9482
667.166	9077
667.219	9839
667.271	9461
667.324	9790
667.377	10725
667.430	11392
667.482	13563
667.535	12102
667.587	10269
667.640	11901
667.693	12323
667.745	15889
667.798	16112
667.850	11189
667.903	11100
667.955	10816
668.008	10451
668.060	13711
668.113	12245
668.165	12883
668.218	11440
668.270	12590
668.322	11343
668.375	10329
668.427	11396
668.479	10738
668.532	11321
668.584	11882
668.636	10426
668.689	12328
668.741	11078
668.793	12001
668.845	9890
668.898	10797
668.950	9192
669.002	12407
669.054	11592
669.106	11259
669.158	10777
669.211	11394
669.263	12242
669.315	15197
669.367	15122
669.419	12722
669.471	12255
669.523	12688
669.575	13187
669.627	12854
669.679	11315
669.731	11945
669.783	11373
669.835	12334
669.886	10353
669.938	11564
669.990	10351
670.042	10232
670.094	10714
670.146	11088
670.197	11380
670.249	13992
670.301	13045
670.353	15327
670.404	19074
670.456	25303
670.508	35665
670.560	60637
670.611	103385
670.663	181015
670.715	439732
670.766	619098
670.818	154808
670.869	35427
670.921	22440
670.972	19280
671.024	14931
671.075	14996
671.127	14054
671.178	11910
671.230	12707
671.281	12344
671.333	12207
671.384	13859
671.436	14906
671.487	17932
671.538	21001
671.590	26939
671.641	39875
671.692	64668
671.744	114143
671.795	66005
671.846	25284
671.897	17560
671.949	15714
672.000	13602
672.051	12787
672.102	13275
672.153	11853
672.204	11981
672.256	11481
672.307	11490
672.358	12318
672.409	12073
672.460	10628
672.511	10683
672.562	11971
672.613	10956
672.664	10281
672.715	11664
672.766	10250
672.817	10266
672.868	10529
672.919	10081
672.970	9189
673.021	10166
673.071	9282
673.122	9855
673.173	9006
673.224	10636
673.275	9624
673.326	9227
673.376	10033
673.427	10962
673.478	10738
673.528	9837
673.579	9413
673.630	9596
673.680	9867
673.731	9145
673.782	8493
673.832	11418
673.883	9743
673.934	9374
673.984	8698
674.035	10206
674.085	8944
674.136	10346
674.186	10472
674.237	12747
674.287	16767
674.338	11371
674.388	10002
674.438	10216
674.489	10362
674.539	9629
674.589	9984
674.640	10445
674.690	9840
674.740	10831
674.791	12489
674.841	11637
674.891	9758
674.942	9284
674.992	9163
675.042	8832
675.092	8205
675.142	8334
675.193	7969
675.243	8453
675.293	9779
675.343	9872
675.393	9966
675.443	10506
675.493	8090
675.543	9770
675.593	10056
675.643	8922
675.693	8099
675.743	10078
675.793	8726
675.843	9148
675.893	9491
675.943	8628
675.993	8342
676.043	9906
676.093	7813
676.142	8787
676.192	8128
676.242	8800
676.292	7576
676.341	9457
676.391	9244
676.441	7118
676.491	8616
676.540	8342
676.590	7891
676.640	9431
676.689	8239
676.739	6827
676.789	6966
676.838	7493
676.888	7801
676.937	8178
676.987	7182
677.037	7621
677.086	6869
677.136	6778
677.185	7402
677.235	6436
677.284	6847
677.333	7118
677.383	6594
677.432	6924
677.482	7319
677.531	7739
677.580	6886
677.630	6357
677.679	6292
677.728	7268
677.778	6866
677.827	6999
677.876	7236
677.925	6679
677.975	7011
678.024	6977
678.073	7036
678.122	8683
678.171	7282
678.220	8163
678.269	9324
678.319	9634
678.368	8502
678.417	9317
678.466	7661
678.515	8840
678.564	8546
678.613	7720
678.662	7293
678.711	8767
678.760	7072
678.809	7967
678.857	7952
678.906	7948
678.955	7573
679.004	8224
679.053	7703
679.102	8026
679.151	8258
679.199	6937
679.248	6628
679.297	8242
679.346	8064
679.394	6597
679.443	6872
679.492	7392
679.540	7120
679.589	8863
679.638	6466
679.686	6932
679.735	6648
679.784	8022
679.832	7591
679.881	7227
679.929	5860
679.978	6075
680.026	7071
680.075	7925
680.123	6478
680.172	7252
680.220	5845
680.268	7005
680.317	6445
680.365	6321
680.414	6300
680.462	7094
680.510	7211
680.559	5929
680.607	6200
680.655	6428
680.703	6637
680.752	6643
680.800	5294
680.848	6469
680.896	4602
680.945	6720
680.993	5443
681.041	6567
681.089	6103
681.137	6478
681.185	5906
681.233	6156
681.258	6262
681.281	6215
681.329	6238
681.377	5477
681.380	5756
681.425	8040
681.473	8574
681.502	8892
681.521	8832
681.569	9614
681.617	8505
681.624	8715
681.665	8882
681.713	9998
681.745	9725
681.761	9392
681.809	9856
681.857	10156
681.867	10313
681.904	10244
681.952	10265
681.989	11257
682.000	11359
682.048	11312
682.096	10976
682.111	11485
682.143	12120
682.191	11864
682.233	12366
682.239	12300
682.286	12896
682.334	11430
682.354	12125
682.382	12732
682.430	13874
682.476	13830
682.477	13697
682.525	13542
682.572	14574
682.598	14217
682.620	13742
682.667	14140
682.715	15142
682.720	15358
682.763	16117
682.810	14472
682.841	15498
682.857	15821
682.905	15411
682.952	16529
682.963	16693
683.000	16876
683.047	17195
683.085	17811
683.095	17780
683.142	17668
683.190	17326
683.206	17350
683.237	17313
683.284	18196
683.328	19445
683.332	19415
683.379	18347
683.426	18788
683.449	18795
683.473	18669
683.521	19513
683.568	20008
683.571	20069
683.615	19524
683.662	20342
683.693	20808
683.709	20929
683.757	19782
683.804	20934
683.814	20975
683.851	20744
683.898	21645
683.936	22222
683.945	22250
683.992	22550
684.039	21534
684.057	22069
684.086	22775
684.133	22989
684.179	23956
684.180	23890
684.227	24289
684.274	24211
684.300	24035
684.321	23779
684.368	23993
684.415	24440
684.422	24554
684.462	24617
684.509	23591
684.543	24380
684.556	24650
684.603	24255
684.649	25277
684.665	25268
684.696	25290
684.743	26484
684.786	27632
684.790	27689
684.837	28080
684.883	29937
684.908	30948
684.930	31522
684.977	32048
685.023	32016
685.029	31980
685.070	30105
685.117	30497
685.150	29976
685.164	30222
685.210	32523
685.257	34778
685.272	34996
685.303	34072
685.350	32912
685.393	33597
685.396	33666
685.443	33495
685.490	35109
685.514	34929
685.536	34452
685.583	34665
685.629	34013
685.636	34238
685.675	35190
685.722	34448
685.757	34900
685.768	35158
685.815	35717
685.861	36894
685.878	36771
685.908	36639
685.954	37722
686.000	39573
686.000	39600
686.047	42891
686.093	46744
686.121	48284
686.139	46908
686.185	44077
686.232	41407
686.242	40773
686.278	39461
686.324	38158
686.363	36341
686.370	36262
686.416	37539
686.463	38528
686.484	38659
686.509	38591
686.555	37991
686.601	37687
686.606	37715
686.647	37591
686.693	37725
686.727	37272
686.739	37221
686.785	38004
686.831	38568
686.848	38610
686.877	38169
686.923	36620
686.969	36886
686.969	36888
687.015	37706
687.061	38902
687.090	39163
687.107	38889
687.153	39501
687.199	38514
687.211	38395
687.245	39038
687.291	40101
687.332	41806
687.336	41942
687.382	42562
687.428	43082
687.453	42917
687.474	41770
687.520	41125
687.565	39028
687.574	38737
687.611	39368
687.657	39349
687.695	40149
687.702	40457
687.748	42336
687.794	44244
687.816	44636
687.839	43573
687.885	42356
687.931	39682
687.937	39590
687.976	40895
688.022	40754
688.058	42368
688.067	42708
688.113	42529
688.158	42264
688.179	42367
688.204	42600
688.249	43099
688.295	43257
688.300	43270
688.340	44459
688.386	46291
688.421	47028
688.431	46797
688.477	45570
688.522	45214
688.542	44582
688.567	44283
688.613	44371
688.658	44098
688.663	44063
688.703	44593
688.749	44768
688.784	45806
688.794	45962
688.839	45065
688.884	44900
688.905	44374
688.930	44066
688.975	44531
689.020	44657
689.026	44654
689.065	45534
689.110	45902
689.146	47057
689.155	47008
689.201	44795
689.246	43769
689.267	42960
689.291	43329
689.336	45482
689.381	45912
689.388	46013
689.426	45680
689.471	45088
689.509	44608
689.516	44628
689.561	44667
689.606	44777
689.630	44780
689.651	45073
689.696	45456
689.741	45720
689.750	45695
689.785	45559
689.830	45147
689.871	45673
689.875	45723
689.920	44636
689.965	44256
689.992	43432
690.010	43531
690.054	44487
690.099	45014
690.112	45338
690.144	45598
690.189	44907
690.233	44103
690.233	44160
690.278	44690
690.323	44763
690.354	44674
690.367	44877
690.412	45353
690.457	46122
690.474	46456
690.501	46352
690.546	45123
690.590	44628
690.595	44484
690.635	44794
690.680	45069
690.716	45454
690.724	45705
690.769	46645
690.813	47172
690.836	47524
690.857	48359
690.902	49978
690.946	51351
690.957	51823
690.991	56193
691.035	61522
691.077	66085
691.080	66223
691.124	66496
691.168	66940
691.198	67067
691.213	66060
691.257	63197
691.301	60413
691.318	59043
691.346	56708
691.390	52997
691.434	49051
691.439	48568
691.478	49385
691.522	50322
691.559	50700
691.567	50808
691.611	51421
691.655	51308
691.680	51283
691.699	51496
691.743	52214
691.787	52494
691.800	52724
691.831	53818
691.875	54304
691.919	55214
691.921	55137
691.964	56072
692.008	57351
692.041	57867
692.052	57765
692.096	57604
692.139	56705
692.162	56119
692.183	56051
692.227	56278
692.271	56593
692.282	56432
692.315	56235
692.359	56435
692.402	55850
692.403	55953
692.447	56046
692.490	56292
692.523	56652
692.534	57034
692.578	57273
692.622	58162
692.643	58106
692.666	57046
692.709	55995
692.753	53655
692.763	53135
692.797	53418
692.840	53620
692.884	54116
692.884	54231
692.928	54829
692.971	55901
693.004	56199
693.015	56072
693.059	55586
693.102	54669
693.124	54166
693.146	54752
693.189	56074
693.233	57409
693.245	57526
693.276	58189
693.320	59510
693.363	60129
693.365	60051
693.407	60800
693.450	60959
693.485	61284
693.493	61673
693.537	62959
693.580	64355
693.605	64838
693.624	65884
693.667	68388
693.710	70669
693.725	71434
693.753	79555
693.797	91589
693.840	104420
693.845	105626
693.883	101078
693.926	95990
693.966	91399
693.970	90583
694.013	79960
694.056	69558
694.086	62317
694.099	62557
694.142	62450
694.185	62634
694.206	62590
694.229	62830
694.272	62968
694.315	63027
694.326	62964
694.358	62418
694.401	60945
694.444	60132
694.446	59940
694.487	59585
694.530	59256
694.566	58716
694.573	58538
694.616	56703
694.659	54850
694.686	53412
694.702	53224
694.745	52497
694.787	51899
694.806	51448
694.830	52201
694.873	53447
694.916	54740
694.926	54916
694.959	54269
695.002	52993
695.044	51971
695.046	51806
695.087	53556
695.130	55337
695.166	56555
695.172	56665
695.215	56686
695.258	56722
695.286	56589
695.301	56699
695.343	56840
695.386	56644
695.406	56475
695.428	56163
695.471	55484
695.514	54512
695.526	54117
695.556	54976
695.599	56322
695.641	57185
695.646	57184
695.684	56571
695.726	55614
695.766	54426
695.769	54631
695.811	56054
695.854	57224
695.886	58217
695.896	57897
695.938	55548
695.981	53460
696.005	52063
696.023	52951
696.065	54903
696.108	56829
696.125	57459
696.150	58089
696.192	58962
696.235	59817
696.245	59864
696.277	58660
696.319	57001
696.361	55399
696.365	55112
696.404	55736
696.446	56391
696.485	56806
696.488	56964
696.530	57241
696.572	57732
696.604	57603
696.614	57426
696.656	56302
696.698	55132
696.724	54314
696.740	54392
696.783	54095
696.825	54040
696.844	53794
696.867	54623
696.909	55992
696.951	57177
696.964	57497
696.992	56581
697.034	54739
697.076	53070
697.083	52661
697.118	53957
697.160	55278
697.202	56575
697.203	56468
697.244	55981
697.286	55333
697.323	54593
697.327	54674
697.369	54086
697.411	53628
697.442	53019
697.453	53596
697.494	55555
697.536	57487
697.562	58515
697.578	58326
697.620	57377
697.661	56480
697.682	55908
697.703	56735
697.744	58071
697.786	59404
697.801	59749
697.828	59991
697.869	60009
697.911	60114
697.921	59984
697.952	59449
697.994	58516
698.035	57561
698.040	57306
698.077	56444
698.118	55154
698.160	53928
698.160	53779
698.201	54615
698.243	55328
698.279	55777
698.284	55983
698.325	56616
698.367	57156
698.399	57444
698.408	57332
698.449	56121
698.491	54937
698.518	53953
698.532	54437
698.573	55563
698.614	56646
698.638	57100
698.656	57321
698.697	57496
698.738	57671
698.757	57605
698.779	58356
698.820	59486
698.862	60613
698.877	60877
698.903	61670
698.944	62661
698.985	63670
698.996	63779
699.026	63187
699.067	62136
699.116	60720
699.235	58457
699.354	54658
699.474	58858
699.593	69685
699.713	62992
699.832	57710
699.951	59024
700.070	55267
700.190	54608
700.309	56281
700.428	62738
700.547	54886
700.667	56540
700.786	62540
700.905	52830
701.024	59944
701.143	56266
701.262	47936
701.381	49891
701.500	53246
701.619	52828
701.738	48135
701.857	46805
701.976	47201
702.095	46081
702.214	51511
702.333	49805
702.452	49237
702.571	47098
702.690	46656
702.809	45885
702.928	43500
703.047	46820
703.165	44765
703.284	44360
703.403	43933
703.522	54171
703.640	50833
703.759	62499
703.878	87467
703.997	49368
704.115	45199
704.234	43989
704.353	42629
704.471	41930
704.590	38906
704.708	40125
704.827	40305
704.946	45411
705.064	49897
705.183	43552
705.301	58978
705.420	93017
705.538	79297
705.656	68605
705.775	77395
705.893	160935
706.012	193018
706.130	71657
706.249	66536
706.367	68423
706.485	74155
706.604	68344
706.722	67297
706.840	81987
706.958	77574
707.077	65558
707.195	60366
707.313	57733
707.431	57782
707.549	59416
707.668	57947
707.786	59958
707.904	57574
708.022	57025
708.140	55072
708.258	54940
708.376	57263
708.494	57649
708.612	65722
708.730	101757
708.848	93578
708.966	82552
709.084	76039
709.202	73027
709.320	76661
709.438	78369
709.556	77231
709.674	76020
709.791	74678
709.909	74952
710.027	71955
710.145	72505
710.263	74039
710.380	73925
710.498	70001
710.616	72663
710.733	71019
710.851	75305
710.969	76847
711.086	70326
711.204	68797
711.322	71293
711.439	71302
711.557	72555
711.674	69887
711.792	70932
711.909	76886
712.027	86289
712.144	65035
712.262	65272
712.379	76694
712.497	114490
712.614	113870
712.732	91672
712.849	84532
712.966	91391
713.084	103871
713.201	93113
713.318	89963
713.436	88183
713.553	91221
713.670	92494
713.787	100495
713.905	102233
714.022	87513
714.139	84065
714.256	92469
714.373	104285
714.490	137912
714.608	265457
714.725	937700
714.842	880585
714.959	125804
715.076	88206
715.193	80393
715.310	76955
715.427	73761
715.544	70618
715.661	74430
715.778	72694
715.895	84787
716.011	82473
716.128	72591
716.245	72940
716.362	73877
716.479	78113
716.596	68454
716.713	69695
716.829	67257
716.946	67775
717.063	63844
717.180	65147
717.296	62184
717.413	64962
717.530	62092
717.646	61283
717.763	62077
717.880	59492
717.996	60580
718.113	61200
718.229	58206
718.346	57120
718.462	57948
718.579	66650
718.695	88808
718.812	87136
718.928	90597
719.045	64109
719.161	54965
719.277	52835
719.394	53929
719.510	61606
719.626	59934
719.743	76069
719.859	76570
719.975	111619
720.092	328166
720.208	675846
720.324	109928
720.440	63127
720.557	68108
720.673	84630
720.789	130601
720.905	287123
721.021	94321
721.137	55713
721.253	56331
721.369	58751
721.486	67538
721.602	96066
721.718	52474
721.834	46751
721.950	49681
722.066	46928
722.181	46366
722.297	50315
722.413	45349
722.529	47100
722.645	44616
722.761	44673
722.877	45642
722.993	44014
723.108	50399
723.224	43855
723.340	46031
723.456	41858
723.571	44118
723.687	40493
723.803	41275
723.918	40741
724.034	43004
724.150	42742
724.265	51208
724.381	111840
724.497	135676
724.612	42497
724.728	40036
724.843	39493
724.959	49860
725.074	106171
725.190	116618
725.305	46389
725.421	40281
725.536	33933
725.651	35075
725.767	35200
725.882	34048
725.997	35302
726.113	34844
726.228	32517
726.343	34802
726.459	31282
726.574	37054
726.689	33674
726.804	33116
726.920	35309
727.035	35063
727.150	35154
727.265	32975
727.380	36136
727.495	30596
727.610	29432
727.725	34544
727.841	43574
727.956	93231
728.071	70668
728.186	33499
728.301	28828
728.416	31108
728.531	28484
728.645	27043
728.760	30472
728.875	29063
728.990	27627
729.105	29810
729.220	29057
729.335	28479
729.449	27418
729.564	26858
729.679	26115
729.794	26411
729.908	31956
730.023	28713
730.138	24198
730.253	26111
730.367	24433
730.482	24622
730.596	25527
730.711	27650
730.826	26258
730.940	26231
731.055	27546
731.169	24182
731.284	24861
731.398	25720
731.513	33313
731.627	30779
731.742	36635
731.856	39641
731.970	28291
732.085	33524
732.199	41821
732.313	64802
732.428	150463
732.542	432391
732.656	235292
732.771	48954
732.885	34409
732.999	30631
733.113	32599
733.227	30178
733.342	26141
733.456	25849
733.570	24873
733.684	25109
733.798	25905
733.912	24185
734.026	21108
734.140	23725
734.254	29400
734.368	58123
734.482	70623
734.596	22504
734.710	22341
734.824	21336
734.938	21434
735.052	22773
735.166	27767
735.280	23788
735.393	21177
735.507	22812
735.621	36392
735.735	75582
735.849	28009
735.962	20601
736.076	23374
736.190	25121
736.303	38627
736.417	50719
736.531	22696
736.644	24071
736.758	17552
736.872	18946
736.985	18571
737.099	17307
737.212	17123
737.326	18632
737.439	18795
737.553	18245
737.666	17868
737.780	17127
737.893	17761
738.007	17126
738.120	16973
738.233	17254
738.347	16672
738.460	16712
738.573	18457
738.687	17837
738.800	18139
738.913	22082
739.026	18830
739.140	21595
739.253	21136
739.366	17045
739.479	15989
739.592	15362
739.705	16168
739.818	15860
739.932	15889
740.045	16495
740.158	16375
740.271	15897
740.384	14855
740.497	14435
740.610	15663
740.723	16000
740.836	15023
740.949	15762
741.062	20716
741.174	19996
741.287	15418
741.400	13836
741.513	15116
741.626	16169
741.739	16643
741.851	15450
741.964	15019
742.077	15057
742.189	15424
742.302	14538
742.415	14434
742.527	13486
742.640	13968
742.753	13229
742.865	13179
742.978	14101
743.090	14295
743.203	13484
743.316	13453
743.428	12114
743.541	12839
743.653	12460
743.766	12689
743.878	14463
743.990	25367
744.103	19798
744.215	12566
744.327	12931
744.440	16505
744.552	22981
744.664	13873
744.777	12438
744.889	12054
745.001	12303
745.113	12387
745.226	11548
745.338	11724
745.450	12516
745.562	12403
745.674	11498
745.786	11873
745.898	13160
746.010	12926
746.122	12302
746.234	12654
746.347	12273
746.459	11356
746.570	11294
746.682	10654
746.794	10623
746.906	12000
747.018	12076
747.130	11071
747.242	11014
747.354	11532
747.466	13829
747.577	11364
747.689	10417
747.801	11048
747.913	10936
748.024	10134
748.136	11553
748.248	10908
748.359	9996
748.471	10659
748.583	11184
748.694	14785
748.806	21740
748.918	21141
749.029	12657
749.141	13324
749.252	12348
749.364	14367
749.475	27165
749.587	21703
749.698	11349
749.809	10195
749.921	9389
750.032	9803
750.144	10024
750.255	9374
750.366	9277
750.478	9858
750.589	10276
750.700	10703
750.811	11115
750.923	13521
751.034	27549
751.145	23842
751.256	9800
751.367	9532
751.479	8905
751.590	9143
751.701	9576
751.812	9211
751.923	9558
752.034	10308
752.145	10249
752.256	10055
752.367	9487
752.478	9139
752.589	9162
752.700	8936
752.811	9061
752.922	8771
753.032	10115
753.143	11177
753.254	8902
753.365	9590
753.476	9245
753.586	9326
753.697	8414
753.808	9588
753.919	8104
754.029	7972
754.140	9405
754.251	9741
754.361	8486
754.472	9205
754.582	9765
754.693	8690
754.804	8600
754.914	8725
755.025	8012
755.135	8096
755.246	8489
755.356	8136
755.466	9216
755.577	9047
755.687	9350
755.798	8600
755.908	7955
756.018	7967
756.129	7687
756.239	9136
756.349	8773
756.460	9487
756.570	9698
756.680	8624
756.790	9549
756.900	10973
757.011	8107
757.121	7861
757.231	9436
757.341	8283
757.451	8733
757.561	7817
757.671	7939
757.781	8019
757.891	9425
758.001	10275
758.111	8629
758.221	9223
758.331	11027
758.441	10286
758.551	13920
758.661	14042
758.771	11865
758.880	12103
758.990	12035
759.100	9306
759.210	10221
759.320	10954
759.429	11966
759.539	11547
759.649	11804
759.758	12427
759.868	13295
759.978	12796
760.087	13235
760.197	14261
760.307	12967
760.416	11733
760.526	11743
760.635	12777
760.745	13021
760.854	14484
760.964	15878
761.073	15014
761.182	13432
761.292	13922
761.401	15536
761.511	12386
761.620	11501
761.729	12478
761.839	11733
761.948	12353
762.057	12967
762.166	11380
762.276	9613
762.385	11419
762.494	10705
762.603	10771
762.712	11886
762.822	12687
762.931	12449
763.040	11121
763.149	11659
763.258	11272
763.367	11984
763.476	12166
763.585	12343
763.694	12529
763.803	13277
763.912	14497
764.021	13468
764.130	12661
764.238	15726
764.347	14921
764.456	14630
764.565	14660
764.674	14473
764.783	15881
764.891	14648
765.000	16555
765.109	17060
765.217	19121
765.326	23153
765.435	29192
765.543	27077
765.652	29574
765.761	36686
765.869	49746
765.978	73030
766.086	117536
766.195	216560
766.303	472797
766.412	850816
766.520	776573
766.629	395262
766.737	167922
766.846	95022
766.954	63467
767.062	54039
767.171	59542
767.279	37877
767.387	28253
767.496	25088
767.604	21866
767.712	20865
767.820	19797
767.928	19275
768.037	18322
768.145	19097
768.253	18496
768.361	17107
768.469	17479
768.577	17765
768.685	18760
768.793	17807
768.901	20436
769.009	20194
769.117	22585
769.225	27046
769.333	35982
769.441	51512
769.549	84283
769.657	179213
769.765	466073
769.873	724511
769.981	412866
770.088	130911
770.196	65112
770.304	42734
770.412	35310
770.519	28885
770.627	24068
770.735	21458
770.842	20621
770.950	18174
771.058	18494
771.165	17051
771.273	16840
771.380	15561
771.488	16083
771.595	16119
771.703	15335
771.810	16404
771.918	14422
772.025	16588
772.133	15266
772.240	14805
772.348	15400
772.455	15389
772.562	15304
772.670	14463
772.777	14966
772.884	13892
772.991	13785
773.099	13717
773.206	13067
773.313	13293
773.420	13121
773.528	12657
773.635	13137
773.742	14000
773.849	13197
773.956	12148
774.063	12459
774.170	12060
774.277	14754
774.384	13314
774.491	13037
774.598	12936
774.705	14315
774.812	17464
774.919	15862
775.026	15070
775.133	14996
775.239	13129
775.346	13973
775.453	12884
775.560	13436
775.667	13169
775.773	13535
775.880	13089
775.987	13563
776.093	13864
776.200	13747
776.307	12144
776.413	13272
776.520	13138
776.627	12861
776.733	12536
776.840	11800
776.946	12531
777.053	12518
777.159	12480
777.266	10863
777.372	12596
777.478	12123
777.585	12640
777.691	10480
777.798	12669
777.904	15424
778.010	24041
778.117	17936
778.223	12128
778.329	12889
778.435	11400
778.542	12759
778.648	12508
778.754	10695
778.860	12084
778.966	13046
779.072	12273
779.178	11469
779.284	11609
779.391	11515
779.497	11347
779.603	13543
779.708	13371
779.815	18474
779.920	46076
780.026	89595
780.132	18377
780.238	12759
780.344	11368
780.450	12764
780.556	9609
780.661	10029
780.767	11409
780.873	9770
780.979	10778
781.085	10860
781.190	10628
781.296	9563
781.402	10229
781.507	9844
781.613	8864
781.719	9799
781.824	9979
781.930	10115
782.035	11253
782.141	11062
782.246	9518
782.352	9417
782.457	9776
782.563	8926
782.668	10052
782.773	10860
782.879	10617
782.984	10764
783.090	11520
783.195	15900
783.300	13722
783.405	12034
783.511	10031
783.616	10546
783.721	12282
783.826	9461
783.932	11988
784.037	10021
784.142	10624
784.247	10030
784.352	10517
784.457	9876
784.562	9816
784.667	10085
784.772	10597
784.877	9147
784.982	9730
785.087	9695
785.192	11066
785.297	9515
785.402	9745
785.507	9496
785.611	8599
785.716	10317
785.821	8780
785.926	9207
786.031	9681
786.135	9135
786.240	8611
786.345	8196
786.450	8924
786.554	8519
786.659	8567
786.763	7425
786.868	8601
786.973	9191
787.077	8232
787.182	8084
787.286	8958
787.391	8375
787.495	8440
787.600	8056
787.704	7383
787.809	8097
787.913	6723
788.017	9019
788.122	8669
788.226	7283
788.330	7313
788.435	8298
788.539	8695
788.643	6734
788.747	7224
788.852	7155
788.956	6946
789.060	8554
789.164	7183
789.268	7109
789.372	7872
789.476	7458
789.580	6864
789.684	6624
789.788	8407
789.892	7689
789.996	8413
790.100	7428
790.204	7564
790.308	9377
790.412	9471
790.516	11575
790.620	10851
790.724	9928
790.828	8189
790.931	7844
791.035	10341
791.139	9909
791.242	6851
791.346	8673
791.450	6961
791.554	7460
791.657	6087
791.761	8470
791.864	8016
791.968	6901
792.072	7138
792.175	7812
792.279	6598
792.382	7308
792.486	6856
792.589	8641
792.693	8996
792.796	6242
792.899	7571
793.003	7084
793.106	5553
793.209	6900
793.313	7882
793.416	5081
793.519	8130
793.623	10895
793.726	13923
793.829	8252
793.932	7659
794.035	6984
794.138	7931
794.242	8041
794.345	10597
794.448	12163
794.551	16118
794.654	26813
794.757	48141
794.860	17758
794.963	11507
795.066	6259
795.169	6825
795.272	5283
795.375	7086
795.477	6494
795.580	6371
795.683	5437
795.786	6105
795.889	5958
795.991	7361
796.094	10383
796.197	9433
796.300	7910
796.402	6294
796.505	5359
796.608	5928
796.710	5945
796.813	5946
796.915	5897
797.018	6441
797.120	6265
797.223	4123
797.326	5933
797.428	5436
797.530	5723
797.633	6826
797.735	9538
797.838	22275
797.940	15306
798.042	5356
798.145	5060
798.247	6071
798.349	4767
798.452	5890
798.554	5574
798.656	5216
798.758	7499
798.860	6137
798.962	5396
799.065	5328
799.167	5164
799.269	6653
799.371	7608
799.473	9179
799.575	10475
799.677	12850
799.779	9145
799.881	10788
799.983	7471
800.085	5429
800.187	5441
800.289	5445
800.390	5468
800.492	5798
800.594	6250
800.696	4345
800.798	4564
800.899	4802
801.001	5330
801.103	5024
801.205	4673
801.306	5412
801.408	4218
801.509	4024
801.611	5757
801.713	5044
801.814	3949
801.916	5251
802.017	4627
802.119	4530
802.220	4846
802.322	5129
802.423	12556
802.525	8921
802.626	4824
802.727	5396
802.829	5170
802.930	3130
803.031	5643
803.133	5155
803.234	4360
803.335	4945
803.436	4838
803.538	4625
803.639	3139
803.740	5712
803.841	4324
803.942	4595
804.043	4806
804.144	3481
804.245	4420
804.346	3882
804.447	4536
804.548	7605
804.649	8003
804.750	3498
804.851	3658
804.952	3623
805.053	3884
805.154	2997
805.255	4586
805.355	4198
805.456	3213
805.557	3155
805.658	2598
805.758	4570
805.859	4063
805.960	4629
806.061	3434
806.161	3007
806.262	3967
806.362	4728
806.463	4388
806.564	4795
806.664	5454
806.765	9712
806.865	8128
806.966	5191
807.066	4014
807.166	4463
807.267	4745
807.367	3994
807.468	4312
807.568	2591
807.668	4133
807.769	4362
807.869	3779
807.969	4184
808.069	4291
808.170	4042
808.270	3329
808.370	4421
808.470	6573
808.570	4863
808.670	3940
808.770	3529
808.870	2807
808.970	3853
809.070	3102
809.170	3164
809.271	4001
809.370	3716
809.470	3585
809.570	2911
809.670	2752
809.770	2991
809.870	3704
809.970	3385
810.070	3449
810.169	3678
810.269	2314
810.369	4146
810.469	3070
810.568	2441
810.668	2988
810.768	3197
810.867	4334
810.967	2551
811.066	3271
811.166	2628
811.265	3458
811.365	2960
811.464	2523
811.564	3673
811.663	4202
811.763	1597
811.862	3139
811.962	4017
812.061	3472
812.160	3922
812.260	2961
812.359	3075
812.458	4718
812.557	10524
812.657	15015
812.756	5996
812.855	4153
812.954	3712
813.053	3458
813.153	2788
813.252	2553
813.351	3457
813.450	3500
813.549	2600
813.648	3248
813.747	2134
813.846	3493
813.945	2583
814.044	3501
814.143	2184
814.242	4140
814.341	2906
814.439	3249
814.538	3456
814.637	2825
814.736	3070
814.835	3457
814.933	3269
815.032	4076
815.131	3110
815.229	4147
815.328	5948
815.427	4476
815.525	4556
815.624	4439
815.722	3160
815.821	4274
815.919	4559
816.018	3324
816.116	4850
816.215	4514
816.313	3950
816.412	4334
816.510	4688
816.609	6422
816.707	5383
816.805	5648
816.904	4310
817.002	5842
817.100	6585
817.198	6469
817.296	4800
817.395	5769
817.493	7149
817.591	5509
817.689	6898
817.787	6304
817.885	7719
817.983	10453
818.081	19159
818.179	41303
818.277	109463
818.375	93546
818.473	23535
818.571	10095
818.669	9247
818.767	8759
818.865	8582
818.963	8493
819.061	12117
819.158	18198
819.256	37182
819.354	85780
819.452	211445
819.549	132753
819.647	32449
819.745	14070
819.842	11170
819.940	9224
820.038	6211
820.135	5476
820.233	6686
820.330	5191
820.428	4365
820.525	6854
820.623	5263
820.720	5199
820.818	5930
820.915	5963
821.012	5662
821.110	3727
821.207	5063
821.304	4241
821.402	3982
821.499	5658
821.596	3544
821.693	3958
821.791	5930
821.888	6584
821.985	13630
822.082	9882
822.179	5644
822.276	3507
822.373	4617
822.470	4193
822.567	4662
822.664	3001
822.761	4381
822.858	3751
822.955	3845
823.052	3641
823.149	4160
823.246	4688
823.343	2955
823.440	4278
823.536	3462
823.633	3524
823.730	3518
823.827	3973
823.923	3235
824.020	4693
824.117	3863
824.213	3057
824.310	4031
824.407	2292
824.503	4292
824.600	3662
824.696	3428
824.793	4357
824.889	3581
824.986	3168
825.082	2937
825.179	4057
825.275	3136
825.371	3666
825.468	3551
825.564	2725
825.660	3929
825.757	4080
825.853	4219
825.949	2510
826.045	3308
826.142	2670
826.238	3237
826.334	3631
826.430	3009
826.526	2686
826.622	1868
826.718	3462
826.814	3039
826.910	4068
827.006	2880
827.102	2179
827.198	4259
827.294	3671
827.390	4071
827.486	3606
827.582	1911
827.678	2814
827.774	3844
827.869	2290
827.965	3677
828.061	2800
828.157	3243
828.252	3286
828.348	2606
828.444	4020
828.539	2306
828.635	3350
828.731	3814
828.826	2472
828.922	3970
829.017	3551
829.113	3583
829.208	3705
829.304	3590
829.399	5224
829.495	3889
829.590	4602
829.685	3029
829.781	3834
829.876	3747
829.971	3118
830.066	2544
830.162	2781
830.257	3790
830.352	3382
830.447	4285
830.543	4686
830.638	4457
830.733	4951
830.828	3549
830.923	4541
831.018	4115
831.113	4772
831.208	4816
831.303	3648
831.398	3156
831.493	3182
831.588	4011
831.683	2459
831.778	3304
831.873	3690
831.967	4022
832.062	3438
832.157	2585
832.252	3433
832.346	3607
832.441	4703
832.536	6103
832.631	12761
832.725	11422
832.820	3567
832.914	3000
833.009	3059
833.104	4955
833.198	4980
833.293	3782
833.387	5124
833.482	4333
833.576	2797
833.670	3884
833.765	3174
833.859	3747
833.954	4248
834.048	3164
834.142	3205
834.237	1802
834.331	2300
834.425	2928
834.519	3023
834.613	3553
834.708	2495
834.802	3894
834.896	2921
834.990	3102
835.084	3640
835.178	2843
835.272	4367
835.366	2636
835.460	3688
835.554	2840
835.648	2962
835.742	3033
835.836	3208
835.930	1759
836.024	4091
836.117	5409
836.211	4905
836.305	9173
836.399	13343
836.493	4122
836.586	3764
836.680	2404
836.774	2988
836.867	3096
836.961	1953
837.055	2182
837.148	2201
837.242	3399
837.335	2450
837.429	3047
837.522	3684
837.616	6116
837.709	15437
837.803	11364
837.896	3979
837.989	5270
838.083	9889
838.176	21320
838.269	19097
838.363	4941
838.456	3565
838.549	5614
838.642	7992
838.735	15760
838.829	7811
838.922	2381
839.015	2502
839.108	2053
839.201	3866
839.294	4125
839.387	3513
839.480	4117
839.573	7386
839.666	11691
839.759	3703
839.852	2373
839.945	3562
840.038	2502
840.131	1920
840.223	2868
840.316	3460
840.409	2387
840.502	2416
840.594	3456
840.687	1890
840.780	2924
840.873	3430
840.965	5150
841.058	8549
841.150	18713
841.243	13222
841.336	3420
841.428	2791
841.521	3086
841.613	3882
841.706	4245
841.798	3011
841.890	2412
841.983	1766
842.075	3512
842.167	3048
842.260	4653
842.352	7377
842.444	12076
842.537	21647
842.629	31323
842.721	7484
842.813	2629
842.905	2307
842.997	4001
843.090	5298
843.182	9276
843.274	20253
843.366	44548
843.458	89207
843.550	54483
843.642	9327
843.734	5457
843.826	7970
843.918	5869
844.009	3730
844.101	2458
844.193	3061
844.285	2484
844.377	2682
844.469	2937
844.560	1999
844.652	2735
844.744	3121
844.835	2747
844.927	4755
845.019	6642
845.110	4520
845.202	3142
845.293	2815
845.385	2003
845.476	2710
845.568	3027
845.659	2778
845.751	3527
845.842	2102
845.934	1293
846.025	1840
846.116	2993
846.208	3463
846.299	2505
846.390	2633
846.482	3223
846.573	4768
846.664	7160
846.755	10827
846.846	9089
846.937	1345
847.029	2390
847.120	2006
847.211	2958
847.302	3650
847.393	2454
847.484	2349
847.575	1257
847.666	2102
847.757	1660
847.847	2880
847.938	3382
848.029	3008
848.120	2650
848.211	1977
848.302	2452
848.392	1895
848.483	3133
848.574	2584
848.664	2104
848.755	2299
848.846	3346
848.936	2196
849.027	3042
849.118	2732
849.208	3220
849.299	4159
849.389	7405
849.480	15034
849.570	26618
849.661	47861
849.751	82056
849.841	28906
849.932	5109
850.022	3485
850.112	3411
850.203	2488
850.293	2901
850.383	2816
850.474	2643
850.564	1937
850.654	3070
850.744	2257
850.834	1411
850.924	2867
851.014	3204
851.104	2785
851.194	3163
851.284	4290
851.374	5014
851.464	3745
851.554	3976
851.644	5745
851.734	9697
851.824	6787
851.914	3459
852.004	4214
852.094	4068
852.183	2802
852.273	2661
852.363	2334
852.452	3468
852.542	2889
852.632	2747
852.721	3177
852.811	2615
852.901	3150
852.990	3288
853.080	3443
853.169	3559
853.259	4019
853.348	3856
853.438	3937
853.527	7061
853.617	8584
853.706	15787
853.795	27202
853.885	58511
853.974	109450
854.063	199198
854.152	298748
854.242	122234
854.331	26125
854.420	10899
854.509	9299
854.598	8230
854.687	7464
854.777	7401
854.866	4580
854.955	4464
855.044	3293
855.133	3412
855.222	2766
855.311	2556
855.400	2729
855.488	2077
855.577	2827
855.666	3947
855.755	5380
855.844	7212
855.933	9682
856.021	4719
856.110	3136
856.199	2061
856.288	1992
856.376	2272
856.465	1266
856.554	1892
856.642	2430
856.731	3295
856.819	2485
856.908	2835
856.996	1829
857.085	1911
857.173	2149
857.262	2418
857.350	1722
857.438	2324
857.527	1558
857.615	2485
857.703	2388
857.792	1960
857.880	2172
857.968	2458
858.056	3137
858.145	2626
858.233	2280
858.321	1299
858.409	3056
858.497	1785
858.585	2151
858.673	2674
858.761	1290
858.849	1554
858.937	1355
859.025	2875
859.113	2125
859.201	2174
859.289	2326
859.377	1868
859.465	2885
859.552	1976
859.640	2181
859.728	3315
859.816	2588
859.903	2503
859.991	1298
860.079	1291
860.166	1673
860.254	2191
860.342	1359
860.429	1736
860.517	1331
860.604	2539
860.692	1610
860.779	1300
860.867	1930
860.954	2232
861.042	3268
861.129	3722
861.216	3134
861.304	1526
861.391	2648
861.478	2251
861.565	1936
861.653	2471
861.740	1729
861.827	2261
861.914	2086
862.001	2102
862.089	2117
862.176	1996
862.263	1625
862.350	1714
862.437	1477
862.524	2059
862.611	2349
862.698	2550
862.785	2360
862.871	1977
862.958	1643
863.045	1933
863.132	2243
863.219	1399
863.306	1655
863.392	2330
863.479	2135
863.566	2404
863.652	2221
863.739	1858
863.826	1286
863.912	2442
863.999	1435
864.086	2175
864.172	1290
864.259	1982
864.345	1210
864.432	2029
864.518	2150
864.604	1908
864.691	1684
864.777	2021
864.863	3478
864.950	2876
865.036	3201
865.122	5069
865.209	6033
865.295	5042
865.381	5019
865.467	4672
865.553	7180
865.639	9742
865.726	16079
865.812	31378
865.898	60550
865.984	90984
866.070	164531
866.156	177052
866.242	50300
866.328	13682
866.414	7115
866.499	6753
866.585	6122
866.671	5396
866.757	4725
866.843	4959
866.928	4501
867.014	4092
867.100	4998
867.186	4758
867.271	6579
867.357	8918
867.442	11621
867.528	6328
867.614	4106
867.699	3245
867.785	4037
867.870	3940
867.956	4906
868.041	4767
868.127	4743
868.212	7232
868.297	4338
868.383	3642
868.468	5205
868.553	7510
868.639	9433
868.724	17350
868.809	16290
868.894	4820
868.979	3852
869.065	3692
869.150	3834
869.235	2739
869.320	2618
869.405	2148
869.490	3381
869.575	2815
869.660	1980
869.745	2601
869.830	2588
869.915	2703
870.000	2870
870.085	2387
870.169	3370
870.254	2214
870.339	1958
870.424	2445
870.509	3648
870.593	2606
870.678	3485
870.763	2766
870.847	1731
870.932	2265
871.016	3017
871.101	1900
871.186	1773
871.270	3469
871.355	1825
871.439	2062
871.523	2651
871.608	1843
871.692	2218
871.777	3550
871.861	2828
871.945	2208
872.030	2046
872.114	2653
872.198	1590
872.282	1202
872.367	1697
872.451	2355
872.535	2217
872.619	2243
872.703	1670
872.787	2173
872.871	2376
872.955	1638
873.039	1469
873.123	1977
873.207	3082
873.291	2350
873.375	2471
873.459	2121
873.543	2079
873.627	1642
873.711	1324
873.794	2037
873.878	1193
873.962	1600
874.045	1695
874.129	1379
874.137	1430
874.213	1944
874.245	2087
874.296	2322
874.352	1538
874.380	1153
874.460	1385
874.464	1394
874.547	1458
874.568	1617
874.631	2103
874.676	1807
874.714	1571
874.784	2794
874.798	3027
874.881	2985
874.892	2752
874.965	1195
874.999	1633
875.048	2221
875.107	1736
875.131	1551
875.215	1335
875.215	1334
875.298	890
875.323	978
875.381	1181
875.430	1492
875.465	1761
875.538	2160
875.548	2195
875.631	1712
875.646	1628
875.714	1272
875.753	1317
875.798	1364
875.861	1940
875.881	2141
875.964	1213
875.968	1230
876.047	1441
876.076	1506
876.130	1672
876.183	1792
876.213	1849
876.291	2453
876.296	2490
876.379	2471
876.398	2421
876.462	2239
876.506	2043
876.545	1914
876.613	1787
876.628	1764
876.711	1523
876.721	1583
876.794	1928
876.828	1859
876.877	1864
876.935	1890
876.960	1885
877.043	1320
877.043	1325
877.125	2322
877.150	2257
877.208	2165
877.258	2239
877.291	2269
877.365	1492
877.374	1412
877.456	2766
877.472	2580
877.539	1747
877.579	1962
877.622	2164
877.687	2148
877.704	2152
877.787	2036
877.794	2058
877.869	2271
877.901	1999
877.952	1499
878.008	1265
878.034	1192
878.115	1214
878.117	1216
878.199	1105
878.222	1241
878.282	1494
878.329	1495
878.364	1517
878.437	2087
878.447	2137
878.529	1110
878.544	1110
878.611	1148
878.651	1251
878.694	1453
878.758	1165
878.776	1088
878.858	988
878.865	1032
878.941	1348
878.972	1155
879.023	1006
879.078	1169
879.105	1257
879.185	1059
879.187	1047
879.269	1494
879.292	1373
879.351	1239
879.399	797
879.433	434
879.506	1091
879.516	1246
879.598	1124
879.613	1312
879.680	1532
879.720	1546
879.762	1642
879.827	946
879.844	713
879.926	745
879.933	736
880.007	1209
880.040	1442
880.089	1576
880.147	2848
880.171	3366
880.253	5315
880.254	5337
880.335	7673
880.360	8098
880.417	9356
880.467	14464
880.499	17605
880.574	19181
880.580	19176
880.662	6259
880.680	5047
880.744	1634
880.787	1537
880.825	1251
880.893	1043
880.907	1040
880.989	890
881.000	920
881.070	1118
881.106	1044
881.152	974
881.213	1101
881.233	1084
881.315	913
881.319	895
881.396	893
881.426	837
881.478	653
881.532	1023
881.559	1092
881.639	178
881.641	162
881.722	838
881.745	813
881.803	1007
881.852	1208
881.885	1119
881.958	852
881.966	837
882.047	1316
882.064	1245
882.129	1185
882.171	1897
882.210	2480
882.277	3165
882.291	3312
882.372	1700
882.383	1599
882.454	554
882.489	411
882.535	486
882.596	749
882.616	746
882.697	223
882.702	228
882.778	775
882.808	767
882.859	563
882.914	823
882.940	1022
883.020	1240
883.021	1234
883.102	7
883.127	-62
883.183	428
883.233	500
883.264	545
883.339	673
883.345	665
883.426	758
883.445	748
883.507	679
883.551	577
883.587	604
883.657	1051
883.668	1185
883.749	1946
883.763	2007
883.830	1215
883.869	762
883.910	298
883.975	-223
883.991	-55
884.072	753
884.081	868
884.152	1131
884.187	1194
884.233	962
884.292	305
884.314	197
884.394	416
884.398	414
884.475	246
884.504	166
884.555	135
884.610	303
884.636	458
884.716	574
884.716	571
884.797	290
884.821	171
884.877	444
884.927	660
884.958	466
885.033	-124
885.038	-95
885.118	369
885.139	554
885.199	232
885.244	-76
885.279	84
885.350	491
885.359	487
885.439	422
885.456	340
885.520	238
885.561	506
885.600	512
885.667	319
885.680	361
885.760	403
885.773	434
885.840	801
885.878	1091
885.920	1152
885.984	921
886.000	763
886.080	282
886.089	226
886.160	304
886.195	353
886.240	454
886.300	572
886.320	599
886.400	628
886.406	645
886.480	577
886.511	549
886.560	570
886.616	369
886.640	376
886.720	556
886.722	563
886.800	535
886.827	525
886.879	537
886.932	492
886.959	650
887.038	1240
887.039	1230
887.119	260
887.143	5
887.198	172
887.248	282
887.278	193
887.354	-65
887.358	-36
887.437	715
887.459	903
887.517	1006
887.564	1051
887.596	762
887.669	145
887.676	172
887.755	578
887.774	622
887.835	753
887.880	1027
887.914	880
887.985	359
887.994	367
888.073	507
888.090	554
888.153	644
888.195	613
888.232	826
888.300	1335
888.311	1173
888.391	-5
888.405	-231
888.470	73
888.510	297
888.549	334
888.615	370
888.628	385
888.708	525
888.720	547
888.787	514
888.825	451
888.866	481
888.930	627
888.945	639
889.024	634
889.035	641
889.103	152
889.140	-127
889.182	161
889.245	617
889.261	545
889.340	225
889.349	190
889.419	296
889.454	351
889.498	198
889.559	8
889.577	128
889.656	680
889.664	739
889.735	437
889.768	296
889.814	422
889.873	592
889.978	861
890.083	477
890.187	761
890.292	412
890.397	1051
890.501	626
890.606	331
890.710	451
890.815	-205
890.919	455
891.024	721
891.128	1006
891.233	307
891.337	193
891.442	24
891.546	1101
891.650	991
891.755	331
891.859	2503
891.963	1152
892.068	463
892.172	237
892.276	-205
892.380	309
892.484	428
892.589	550
892.693	-483
892.797	386
892.901	282
893.005	715
893.109	-30
893.213	1705
893.317	1017
893.421	740
893.525	121
893.629	325
893.733	719
893.837	921
893.941	521
894.045	662
894.148	733
894.252	1856
894.356	197
894.460	655
894.564	384
894.667	-135
894.771	352
894.875	1182
894.978	-97
895.082	337
895.186	773
895.289	1099
895.393	995
895.496	260
895.600	145
895.703	339
895.807	623
895.910	893
896.014	326
896.117	207
896.221	803
896.324	-18
896.427	427
896.531	140
896.634	580
896.737	847
896.840	625
896.944	1097
897.047	432
897.150	903
897.253	1085
897.356	1342
897.460	726
897.563	305
897.666	207
897.769	378
897.872	265
897.975	739
898.078	1114
898.181	607
898.284	704
898.387	437
898.490	639
898.593	657
898.695	1339
898.798	426
898.901	765
899.004	1173
899.107	522
899.209	774
899.312	798
899.415	579
899.518	709
899.620	-195
899.723	348
899.826	739
899.928	1550
900.031	537
900.133	-159
900.236	531
900.338	707
900.441	1187
900.543	-274
900.646	396
900.748	613
900.851	204
900.953	903
901.055	138
901.158	-111
901.260	291
901.362	103
901.465	-272
901.567	200
901.669	1720
901.771	464
901.873	660
901.976	960
902.078	495
902.180	264
902.282	590
902.384	-29
902.486	454
902.588	303
902.690	923
902.792	474
902.894	236
902.996	203
903.098	-19
903.200	502
903.302	388
903.404	1034
903.505	377
903.607	596
903.709	296
903.811	410
903.913	526
904.014	583
904.116	373
904.218	373
904.319	326
904.421	191
904.523	597
904.624	521
904.726	499
904.827	414
904.929	5
905.030	49
905.132	804
905.233	603
905.335	462
905.436	-313
905.537	-498
905.639	-104
905.740	152
905.841	127
905.943	185
906.044	1070
906.145	69
906.247	466
906.348	368
906.449	-430
906.550	876
906.651	361
906.752	163
906.854	-190
906.955	275
907.056	272
907.157	-667
907.258	25
907.359	607
907.460	11
907.561	-276
907.662	-6
907.762	-32
907.863	1027
907.964	-488
908.065	1240
908.166	-356
908.267	973
908.367	-439
908.468	526
908.569	47
908.670	-140
908.770	827
908.871	392
908.971	1266
909.072	235
909.173	553
909.273	202
909.374	472
909.474	477
909.575	568
909.675	267
909.776	588
909.876	162
909.977	0
910.077	-86
910.177	-227
910.278	-345
910.378	-58
910.478	350
910.579	462
910.679	-39
910.779	535
910.879	658
910.980	138
911.080	210
911.180	439
911.280	-309
911.380	-68
911.480	893
911.580	332
911.680	-469
911.780	315
911.880	766
911.980	512
912.080	671
912.180	-90
912.280	81
912.380	614
912.480	672
912.580	-31
912.679	-286
912.779	-188
912.879	288
912.979	958
913.078	753
913.178	-306
913.278	214
913.377	-650
913.477	704
913.577	-29
913.676	479
913.776	54
913.875	-124
913.975	35
914.074	65
914.174	96
914.273	-227
914.373	1417
914.472	376
914.572	-64
914.671	-173
914.770	21
914.870	257
914.969	187
915.068	-34
915.167	595
915.267	-296
915.366	1389
915.465	427
915.564	-114
915.663	429
915.763	546
915.862	818
915.961	603
916.060	-262
916.159	1
916.258	80
916.357	273
916.456	389
916.555	109
916.654	-173
916.752	-34
916.851	619
916.950	288
917.049	52
917.148	277
917.247	270
917.345	335
917.444	444
917.543	-396
917.642	411
917.740	331
917.839	-299
917.937	580
918.036	223
918.135	-63
918.233	413
918.332	-152
918.430	-162
918.529	740
918.627	121
918.726	232
918.824	-43
918.923	400
919.021	305
919.119	72
919.218	97
919.316	535
919.414	-509
919.512	-420
919.611	296
919.709	817
919.807	495
919.905	996
920.003	504
920.102	904
920.200	-7
920.298	-223
920.396	298
920.494	596
920.592	276
920.690	-18
920.788	182
920.886	125
920.984	916
921.082	-282
921.180	1206
921.277	-58
921.375	706
921.473	491
921.571	372
921.669	578
921.766	254
921.864	1001
921.962	510
922.060	61
922.157	788
922.255	224
922.352	338
922.450	886
922.548	1009
922.645	258
922.743	728
922.840	875
922.938	1227
923.035	594
923.133	335
923.230	291
923.327	1526
923.425	1219
923.522	539
923.619	990
923.717	1371
923.814	1469
923.911	1096
924.008	1234
924.106	829
924.203	1074
924.300	426
924.397	323
924.494	1020
924.591	1131
924.688	702
924.786	1063
924.883	929
924.979	657
925.077	1490
925.173	851
925.270	1601
925.367	489
925.464	1247
925.561	333
925.658	511
925.755	503
925.852	733
925.948	895
926.045	5
926.142	284
926.239	979
926.335	511
926.432	827
926.529	433
926.625	1105
926.722	1074
926.818	370
926.915	1250
927.011	727
927.108	830
927.204	546
927.301	577
927.397	573
927.494	894
927.590	661
927.687	1065
927.783	583
927.879	227
927.976	797
928.072	851
928.168	435
928.264	522
928.361	765
928.457	1597
928.553	986
928.649	1427
928.745	1285
928.841	254
928.937	-134
929.033	506
929.129	184
929.225	501
929.321	837
929.417	1163
929.513	682
929.609	1215
929.705	921
929.801	329
929.897	-176
929.993	1119
930.089	1257
930.184	-129
930.280	661
930.376	1090
930.471	277
930.567	-111
930.663	1155
930.758	119
930.854	221
930.950	105
931.045	-100
931.141	432
931.236	629
931.332	736
931.427	234
931.523	476
931.618	1042
931.714	495
931.809	1175
931.905	398
932.000	288
932.095	849
932.191	17
932.286	736
932.381	399
932.476	210
932.572	535
932.667	-389
932.762	598
932.857	727
932.952	809
933.047	865
933.142	678
933.237	-18
933.332	349
933.427	1037
933.522	113
933.617	-310
933.712	753
933.807	382
933.902	236
933.997	573
934.092	412
934.187	513
934.282	202
934.376	565
934.471	895
934.566	844
934.661	316
934.755	585
934.850	777
934.945	741
935.039	249
935.134	222
935.228	-168
935.323	570
935.417	-177
935.512	400
935.606	416
935.701	-264
935.795	-61
935.890	940
935.984	481
936.079	465
936.173	495
936.267	214
936.362	-166
936.456	1206
936.550	695
936.644	-251
936.738	378
936.833	879
936.927	20
937.021	-146
937.115	37
937.209	148
937.303	988
937.397	-188
937.491	914
937.585	547
937.679	-211
937.773	-14
937.867	750
937.961	167
938.055	646
938.149	275
938.243	-44
938.337	472
938.430	388
938.524	-428
938.618	68
938.712	1580
938.805	105
938.899	-111
938.993	190
939.086	737
939.180	281
939.274	383
939.367	359
939.461	276
939.554	429
939.648	-130
939.741	556
939.835	603
939.928	346
940.022	809
940.115	741
940.208	464
940.302	300
940.395	699
940.488	-510
940.582	1069
940.675	-151
940.768	-655
940.861	-256
940.954	360
941.048	353
941.141	141
941.234	-185
941.327	36
941.420	337
941.513	690
941.606	-185
941.699	910
941.792	283
941.885	-239
941.978	343
942.071	-454
942.164	-49
942.257	-239
942.349	-122
942.442	1119
942.535	-11
942.628	306
942.721	817
942.813	-732
942.906	-408
942.999	-72
943.091	-355
943.184	-504
943.277	272
943.369	642
943.462	-27
943.554	202
943.647	64
943.739	962
943.832	-186
943.924	-905
944.017	700
944.109	-136
944.201	-75
944.294	469
944.386	-667
944.478	-447
944.571	9
944.663	-61
944.755	263
944.847	612
944.940	99
945.032	-1288
945.124	-512
945.216	1455
945.308	67
945.400	310
945.492	68
945.584	-383
945.676	-255
945.768	450
945.860	675
945.952	-584
946.044	-101
946.136	705
946.228	153
946.320	-54
946.412	-144
946.503	551
946.595	1159
946.687	811
946.779	-143
946.870	196
946.962	-715
947.054	-134
947.145	277
947.237	59
947.329	956
947.420	339
947.512	16
947.603	-169
947.695	20
947.786	-537
947.878	117
947.969	464
948.061	-140
948.152	-277
948.243	-212
948.335	290
948.426	502
948.517	-113
948.609	438
948.700	38
948.791	-745
948.882	682
948.973	-135
949.065	-296
949.156	-500
949.247	-543
949.338	295
949.429	215
949.520	-66
949.611	-1146
949.702	654
949.793	-326
949.884	-27
949.975	121
950.066	-426
950.157	-181
950.247	-367
950.338	295
950.429	-690
950.520	518
950.611	-143
950.701	-255
950.792	617
950.883	263
950.973	-582
951.064	-518
951.155	349
951.245	-17
951.336	-14
951.427	-1370
951.517	662
951.608	794
951.698	-520
951.788	443
951.879	66
951.969	-156
952.060	-393
952.150	-921
952.240	-217
952.331	-1814
952.421	470
952.511	-388
952.602	865
952.692	-1464
952.782	216
952.872	-231
952.962	-906
953.052	-262
953.143	-183
953.233	-8
953.323	-135
953.413	-1000
953.503	-566
953.593	161
953.683	-121
953.773	-548
953.863	141
953.953	-265
954.042	-205
954.132	-150
954.222	-702
954.312	-66
954.402	294
954.492	-66
954.581	208
954.671	-395
954.761	-579
954.850	1133
954.940	-337
955.030	-157
955.119	-1039
955.209	189
955.298	-492
955.388	-158
955.477	335
955.567	-1351
955.656	372
955.746	393
955.835	-363
955.925	-1247
956.014	116
956.103	-238
956.193	-344
956.282	-388
956.371	115
956.461	-899
956.550	-173
956.639	80
956.728	-242
956.817	-154
956.906	-1233
956.995	795
957.085	131
957.174	-15
957.263	-824
957.352	68
957.441	-131
957.530	-132
957.619	-165
957.708	-265
957.796	-35
957.885	34
957.974	-172
958.063	-148
958.152	-1758
958.241	147
958.329	218
958.418	-310
958.507	-832
958.596	732
958.684	-1174
958.773	360
958.861	-524
958.950	364
959.039	-274
959.127	-103
959.216	352
959.304	-612
959.393	103
959.481	-507
959.570	422
959.658	-401
959.746	418
959.835	408
959.923	328
960.011	-24
960.100	491
960.188	68
960.276	-791
960.365	-197
960.453	-252
960.541	-707
960.629	-205
960.717	321
960.805	-1175
960.893	175
960.981	-817
961.069	894
961.158	-43
961.245	-37
961.333	-43
961.421	-538
961.509	391
961.597	323
961.685	-1264
961.773	-643
961.861	-396
961.949	995
962.036	-1132
962.124	607
962.212	-130
962.299	-133
962.387	-353
962.475	391
962.562	-133
962.650	-476
962.738	-1043
962.825	-655
962.913	-329
963.000	-136
963.088	-179
963.175	-121
963.263	-202
963.350	438
963.438	-493
963.525	55
963.612	1701
963.700	2141
963.787	6208
963.874	1554
963.962	-710
964.049	442
964.136	-642
964.223	-252
964.310	201
964.398	8
964.485	-369
964.572	260
964.659	715
964.746	557
964.833	224
964.920	318
965.007	-209
965.094	-85
965.181	-129
965.268	-314
965.355	-397
965.441	-124
965.528	-454
965.615	1061
965.702	-304
965.789	-1090
965.875	-506
965.962	165
966.049	-777
966.136	319
966.222	628
966.309	369
966.395	-82
966.482	806
966.569	-540
966.655	275
966.742	-987
966.828	-60
966.915	-283
967.001	916
967.087	-1254
967.174	-352
967.260	433
967.347	576
967.433	809
967.519	2875
967.605	1313
967.692	69
967.778	-116
967.864	60
967.950	-762
968.036	-480
968.123	556
968.209	199
968.295	-572
968.381	725
968.467	616
968.553	-1040
968.639	662
968.725	-1119
968.811	613
968.897	498
968.983	-589
969.069	-142
969.154	292
969.240	731
969.326	-286
969.412	-433
969.497	-76
969.583	-603
969.669	400
969.755	536
969.840	-1200
969.926	137
970.012	129
970.097	784
970.183	-1189
970.268	82
970.354	818
970.439	-193
970.525	2464
970.610	-104
970.696	436
970.781	-123
970.866	-663
970.952	532
971.037	-705
971.122	457
971.208	-357
971.293	90
971.378	156
971.463	454
971.549	296
971.634	373
971.719	-156
971.804	404
971.889	1204
971.974	-453
972.059	-77
972.144	-196
972.229	-65
972.314	181
972.399	-295
972.484	-699
972.569	150
972.654	-700
972.739	1292
972.824	1151
972.908	-447
972.993	-93
973.078	-610
973.163	-154
973.247	352
973.332	-2024
973.417	621
973.501	-730
973.586	493
973.671	61
973.755	-204
973.840	352
973.924	298
974.009	351
974.093	-1083
974.178	1175
974.262	1058
974.346	95
974.431	0
974.515	68
974.600	528
974.684	276
974.768	-668
974.852	652
974.937	-1594
975.021	826
975.105	-240
975.189	-369
975.273	-72
975.358	-111
975.442	-276
975.526	913
975.610	-133
975.694	-632
975.778	568
975.862	-94
975.946	-1598
976.030	1014
976.114	30
976.198	207
976.281	384
976.365	1143
976.449	-866
976.533	173
976.617	-567
976.700	229
976.784	-449
976.868	-151
976.951	307
977.035	-268
977.119	-35
977.202	-408
977.286	-194
977.369	-334
977.453	-449
977.536	-167
977.620	-488
977.703	-50
977.787	-851
977.870	667
977.953	281
978.037	-824
978.120	647
978.203	210
978.287	846
978.370	502
978.453	97
978.536	-132
978.620	343
978.703	753
978.786	415
978.869	-860
978.952	-881
979.035	1014
979.118	183
979.201	-464
979.284	722
979.367	-902
979.450	271
979.533	-734
979.616	-283
979.699	-156
979.782	668
979.865	10
979.948	-427
980.030	-30
980.113	-821
980.196	-66
980.279	570
980.361	-189
980.444	64
980.526	257
980.609	50
980.692	144
980.774	-67
980.857	-1564
980.939	662
981.022	-810
981.104	-747
981.187	-440
981.269	428
981.352	225
981.434	-1194
981.516	-806
981.599	825
981.681	-774
981.763	-414
981.846	-263
981.928	-124
982.010	112
982.092	-1373
982.174	449
982.256	-661
982.339	52
982.421	-476
982.503	187
982.585	-697
982.667	-251
982.749	223
982.831	-718
982.913	-658
982.995	1019
983.077	-853
983.158	973
983.240	-1689
983.322	753
983.404	215
983.486	-111
983.568	121
983.649	-763
983.731	-443
983.813	-519
983.894	-137
983.976	-1052
984.058	-518
984.139	672
984.221	-1334
984.302	703
984.384	-292
984.465	-466
984.547	-797
984.628	-1196
984.710	-198
984.791	-275
984.872	-90
984.954	-264
985.035	-463
985.116	-741
985.198	-741
985.279	639
985.360	-61
985.441	13
985.522	147
985.604	-519
985.685	-1659
985.766	572
985.847	522
985.928	-1122
986.009	-713
986.090	-904
986.171	265
986.252	-619
986.333	5
986.414	-173
986.495	-709
986.576	-395
986.656	475
986.737	127
986.818	-913
986.899	-998
986.980	-448
987.060	-175
987.141	-487
987.222	-211
987.302	-795
987.383	-783
987.464	-715
987.544	514
987.625	-472
987.705	1166
987.786	-414
987.866	-823
987.947	-412
988.027	-871
988.108	-530
988.188	-263
988.268	-681
988.349	-149
988.429	189
988.509	81
988.589	-453
988.670	-1696
988.750	958
988.830	-829
988.910	-484
988.990	184
989.070	-585
989.151	-217
989.231	-1075
989.311	-332
989.391	-480
989.471	-314
989.551	-735
989.631	-238
989.711	-199
989.791	-704
989.870	-200
989.950	980
990.030	-607
990.110	-826
990.190	-107
990.269	-645
990.349	-485
990.429	382
990.509	310
990.588	-821
990.668	367
990.747	545
990.827	-867
990.907	-510
990.986	-908
991.066	-6
991.145	-878
991.225	486
991.304	-750
991.383	-453
991.463	-1052
991.542	-276
991.622	-1155
991.701	-778
991.780	-944
991.859	-393
991.939	-342
992.018	473
992.097	150
992.176	528
992.256	-1076
992.335	-1709
992.414	-670
992.493	-1498
992.572	17
992.651	954
992.730	6
992.809	-970
992.888	-1035
992.967	119
993.046	445
993.125	-1436
993.203	-157
993.282	-749
993.361	-719
993.440	-389
993.519	-927
993.597	-627
993.676	-881
993.755	434
993.834	-656
993.912	-979
993.991	544
994.069	-670
994.148	-515
994.226	-343
994.305	-737
994.384	-777
994.462	177
994.540	-996
994.619	-928
994.697	-328
994.776	-290
994.854	104
994.932	-1441
995.011	111
995.089	-1150
995.167	-737
995.245	-281
995.324	-943
995.402	-35
995.480	-1062
995.558	-870
995.636	-2025
995.714	-1655
995.792	375
995.870	-991
995.948	-246
996.026	-38
996.104	-1189
996.182	-193
996.260	-1252
996.338	-560
996.416	-1488
996.494	-9
996.572	-57
996.649	-194
996.727	-1100
996.805	-145
996.883	-247
996.960	-1293
997.038	38
997.116	-281
997.193	-1638
997.271	-380
997.348	-1463
997.426	-928
997.504	-1378
997.581	-175
997.658	576
997.736	-1114
997.813	-1429
997.891	206
997.968	-901
998.046	-784
998.123	-1002
998.200	-604
998.277	-528
998.355	477
998.432	-1646
998.509	-1097
998.586	-1442
998.663	204
998.741	-626
998.818	-475
998.895	-858
998.972	-975
999.049	-463
999.126	-1545
999.203	337
999.280	-853
999.357	-785
999.434	-1191
999.511	-1319
999.587	145
999.664	-1618
999.741	-396
999.818	-1227
999.895	-1454
999.971	-1519
1000.048	-928
1000.125	109
1000.202	-852
1000.278	-548
1000.355	-299
1000.431	-972
1000.508	-1648
1000.584	-1017
1000.661	-524
1000.738	-1335
1000.814	-806
1000.890	-135
1000.967	-713
1001.043	-81
1001.120	-1393
1001.196	-1319
1001.272	-1789
1001.349	-820
1001.425	-270
1001.501	-1205
1001.577	-707
1001.654	-870
1001.730	-940
1001.806	-776
1001.882	-1596
1001.958	-635
1002.034	-545
1002.110	-447
1002.186	-1017
1002.262	-1261
1002.338	-863
1002.414	-340
1002.490	294
1002.566	-1382
1002.642	-1103
1002.718	162
1002.794	-347
1002.870	-855
1002.945	-133
1003.021	-932
1003.097	-1148
1003.173	25
1003.248	-322
1003.324	-61
1003.400	-818
1003.475	-1034
1003.551	-981
1003.626	-1238
1003.702	-1388
1003.777	-988
1003.853	-1315
1003.928	-1477
1004.004	-745
1004.079	-456
1004.155	-504
1004.230	-1742
1004.305	-638
1004.381	-1909
1004.456	-1230
1004.531	-809
1004.607	-758
1004.682	-1120
1004.757	-570
1004.832	-421
1004.907	-1469
1004.982	-464
1005.057	-596
1005.133	-575
1005.208	-593
1005.283	-647
1005.358	-333
1005.433	-874
1005.508	-1484
1005.583	-1098
1005.657	-258
1005.732	-516
1005.807	-708
1005.882	-802
1005.957	-493
1006.032	148
1006.106	-69
1006.181	-310
1006.256	-748
1006.331	-1633
1006.405	-1454
1006.480	-272
1006.554	-634
1006.629	-215
1006.704	-1680
1006.778	-531
1006.853	-368
1006.927	-1766
1007.002	-755
1007.076	-370
1007.150	-550
1007.225	-854
1007.299	-407
1007.373	-553
1007.448	-933
1007.522	-91
1007.596	-536
1007.671	-457
1007.745	-656
1007.819	-1166
1007.893	-999
1007.967	-687
1008.041	-2211
1008.115	-397
1008.190	-1684
1008.264	282
1008.338	-1515
1008.412	-656
1008.486	-1270
1008.560	-1207
1008.633	-1401
1008.707	-403
1008.781	-523
1008.855	-868
1008.929	-1374
1009.003	-844
1009.076	-1290
1009.150	-451
1009.224	-944
1009.298	97
1009.371	-1238
1009.445	-569
1009.519	-901
1009.592	-1378
1009.666	-1240
1009.739	-645
1009.813	-2124
1009.886	-514
1009.960	-1837
1010.033	-791
1010.107	-1117
1010.180	-1683
1010.253	-620
1010.327	-1172
1010.400	-877
1010.473	-748
1010.547	452
1010.620	-534
1010.693	-671
1010.766	-64
1010.840	-97
1010.913	-424
1010.986	-1870
1011.059	-1602
1011.132	-897
1011.205	-191
1011.278	-894
1011.351	-1095
1011.424	-639
1011.497	-1553
1011.570	-1001
1011.643	-784
1011.716	-1136
1011.789	-31
1011.862	-172
1011.934	-72
1012.007	-1881
1012.080	-49
1012.153	-621
1012.225	-486
1012.298	-942
1012.371	-775
1012.443	-564
1012.516	-1316
1012.588	-1029
1012.661	-868
1012.733	-1512
1012.806	-384
1012.879	-1315
1012.951	-1429
1013.023	-733
1013.096	-1418
1013.168	-1923
1013.241	-280
1013.313	-676
1013.385	-1663
1013.458	-101
1013.530	-1037
1013.602	-1391
1013.674	-564
1013.746	-1262
1013.819	-1346
1013.891	-760
1013.963	-657
1014.035	-747
1014.107	-977
1014.179	-1091
1014.251	-973
1014.323	-349
1014.395	-284
1014.467	-720
1014.539	-1274
1014.611	-1680
1014.683	-750
1014.754	-491
1014.826	-654
1014.898	-101
1014.970	-1331
1015.042	406
1015.113	-684
1015.185	-841
1015.257	-1676
1015.328	-368
1015.400	-1672
1015.471	-747
1015.543	-1760
1015.615	-482
1015.686	-618
1015.757	-1465
1015.829	-187
1015.901	-697
1015.972	-498
1016.043	-990
1016.115	-426
1016.186	-1471
1016.257	-1305
1016.328	-952
1016.400	-725
1016.471	-876
1016.542	-1175
1016.613	-887
1016.685	-686
1016.756	-547
1016.827	-1361
1016.898	-1615
1016.969	-802
1017.040	-782
1017.111	-1619
1017.182	-1575
1017.253	-1070
1017.324	-900
1017.395	-662
1017.466	-830
1017.537	-798
1017.608	-740
1017.678	-710
1017.749	-1610
1017.820	-632
1017.891	-1107
1017.961	-1087
1018.032	-1230
1018.103	-946
1018.173	-383
1018.244	-341
1018.315	-1125
1018.385	603
1018.456	-1216
1018.526	-1182
1018.597	-1738
1018.667	-545
1018.738	-1146
1018.808	-605
1018.878	-930
1018.949	-414
1019.019	-983
1019.089	-853
1019.160	-931
1019.230	-811
1019.300	-533
1019.371	-1905
1019.441	-1542
1019.511	-1558
1019.581	-1015
1019.651	-1170
1019.721	-1327
1019.791	-1542
1019.861	-1586
1019.931	-95
1020.001	-1624
1020.071	-1020
1020.141	-1234
1020.211	-162
1020.281	-1377
1020.351	-1602
1020.421	-1400
1020.491	-647
1020.560	-1385
1020.630	-1318
1020.700	-1110
1020.770	-801
1020.839	-1245
1020.909	-911
1020.979	-916
1021.048	-1208
1021.118	-537
1021.187	-1179
1021.257	-1056
1021.326	-946
1021.396	-1087
1021.465	-1281
1021.535	-805
1021.604	-1385
1021.674	-1402
1021.743	-611
1021.812	-1496
1021.882	-1517
1021.951	-1751
1022.020	-857
1022.089	-1620
1022.159	-1563
1022.228	-776
1022.297	-867
1022.366	-1302
1022.435	-1328
1022.504	-1568
1022.573	-930
1022.642	-1467
1022.711	-1542
1022.781	-633
1022.849	-1306
1022.918	-1303
1022.987	-962
1023.056	-2074
1023.125	-1709
1023.194	-1084
1023.263	-1011
1023.331	-932
1023.400	-852
1023.469	-1457
1023.538	-236
1023.606	-1312
1023.675	-1551
1023.744	-1206
1023.812	-1742
1023.881	-966
1023.949	-1165
1024.018	-1354
1024.086	-629
1024.155	-830
1024.223	-1777
1024.292	-1350
1024.360	-666
1024.429	-1080
1024.497	-1306
1024.565	-959
1024.634	-1351
1024.702	-837
1024.770	-1636
1024.838	-942
1024.907	-1505
1024.975	-1361
1025.043	-1577
1025.111	-1121
1025.179	-201
1025.247	-1415
1025.315	-1319
1025.383	-1076
1025.451	-644
1025.519	-949
1025.587	-1724
1025.655	-1084
1025.723	-1924
1025.791	-770
1025.859	-317
1025.927	-718
1025.995	-1605
1026.062	-888
1026.130	-854
1026.198	-1416
1026.266	-1374
1026.333	-1662
1026.401	-773
1026.469	-864
1026.536	-608
1026.604	-727
1026.671	-2243
1026.739	-343
1026.806	-1443
1026.874	-1162
1026.941	-1592
1027.009	-1189
1027.076	-1739
1027.144	-1409
1027.211	-1752
1027.278	-1655
1027.345	-1638
1027.413	-419
1027.480	-806
1027.547	-1402
1027.614	-1655
1027.682	-1156
1027.749	-1011
1027.816	-1371
1027.883	-1148
1027.950	-909
1028.017	-1039
1028.084	-1321
1028.151	-1222
1028.218	-1540
1028.285	-1073
1028.352	-1808
1028.419	-758
1028.486	-1101
1028.553	-950
1028.619	-1662
1028.686	-1200
1028.753	-2199
1028.820	-1278
1028.886	-2034
1028.953	-808
1029.020	-993
1029.086	-837
1029.153	-1911
1029.220	-1642
1029.286	-935
1029.353	-1551
1029.419	-1515
1029.486	-1809
1029.552	-534
1029.619	-1588
1029.685	-2228
1029.751	-1929
1029.818	-725
1029.884	-1861
1029.951	-297
1030.017	-1501
1030.083	-1323
1030.149	-802
1030.216	-1590
1030.282	-713
1030.348	-619
1030.414	-1856
1030.480	-1048
1030.546	-1060
1030.612	-1014
1030.678	-1954
1030.744	-831
1030.810	-2137
1030.876	-1062
1030.942	-1367
1031.008	-886
1031.074	-1622
1031.140	-2038
1031.206	-964
1031.272	-1066
1031.337	-1098
1031.403	-977
1031.469	-1505
1031.534	-2011
1031.600	-920
1031.666	-1352
1031.731	-1603
1031.797	-1276
1031.863	-1429
1031.928	-1268
1031.994	-1318
1032.059	-887
1032.125	-1235
1032.190	-1152
1032.256	-1694
1032.321	-1753
1032.386	-1527
1032.452	-1014
1032.517	-1319
1032.582	-1220
1032.647	-1123
1032.713	-1781
1032.778	-1207
1032.843	-1480
1032.908	-1126
1032.974	-1556
1033.039	-1360
1033.104	-1196
1033.169	-1669
1033.234	-2049
1033.299	-1336
1033.364	-878
1033.429	-1633
1033.494	-2013
1033.559	-1540
1033.624	-1453
1033.688	-1232
1033.753	-1293
1033.818	-1636
1033.883	-1503
1033.948	-1225
1034.013	-1172
1034.077	-1526
1034.142	-1397
1034.207	-566
1034.271	-534
1034.336	214
1034.400	-1682
1034.465	-1061
1034.530	-1567
1034.594	-1812
1034.658	-1658
1034.723	-1525
1034.787	-1112
1034.852	-1739
1034.916	-1242
1034.981	-1927
1035.045	-853
1035.109	-1896
1035.173	-1298
1035.238	-934
1035.302	-1326
1035.366	-1031
1035.430	-1471
1035.495	-1224
1035.559	-1323
1035.623	-1107
1035.687	-1583
1035.751	-972
1035.815	-1187
1035.879	-1216
1035.943	-1856
1036.007	-1217
1036.071	-976
1036.135	-963
1036.198	-1033
1036.262	-1986
1036.326	-970
1036.390	-1362
1036.454	-1283
1036.517	-925
1036.581	-1580
1036.645	-1202
1036.709	-1841
1036.772	-958
1036.836	-1638
1036.900	-1517
1036.963	-1533
1037.026	-959
1037.090	-1950
1037.154	-1724
1037.217	-1001
1037.280	-1480
1037.344	-2875
1037.407	-1657
1037.471	-1891
1037.534	-1444
1037.597	-1599
1037.661	-1773
1037.724	-1474
1037.787	-2762
1037.850	-1986
1037.913	-1980
1037.977	-351
1038.040	-1278
1038.103	-1109
1038.166	-1571
1038.229	-1625
1038.292	-1283
1038.355	-2280
1038.418	-1626
1038.481	-640
1038.544	-1526
1038.607	-1393
1038.670	-1843
1038.732	-1036
1038.795	-1559
1038.858	-1582
1038.921	-1126
1038.984	-1161
1039.046	-1399
1039.109	-1625
1039.172	-1866
1039.234	-1516
1039.297	-2037
1039.360	-1342
1039.422	-1925
1039.485	-1258
1039.547	-1289
1039.610	-1654
1039.672	-1827
1039.734	-1942
1039.797	-978
1039.859	-1550
1039.922	-1537
1039.984	-2090
1040.046	-1978
1040.109	-1493
1040.171	-1335
1040.233	-1684
1040.295	-1777
1040.358	-1219
1040.420	-1960
1040.482	-1236
1040.544	-2308
1040.606	-994
1040.668	-899
1040.730	-1379
1040.792	-1206
1040.854	-1630
1040.916	-1640
1040.978	-2106
1041.040	-1414
1041.102	-1968
1041.164	-1587
1041.225	-1668
1041.287	-1664
1041.349	-1593
1041.411	-1661
1041.472	-2077
1041.534	-1766
1041.596	-2409
1041.657	-1655
1041.719	-2249
1041.781	-1609
1041.842	-2218
1041.904	-1268
1041.965	-1805
1042.027	-1680
1042.088	-2066
1042.150	-2153
1042.211	-1106
1042.272	-1796
1042.334	-2723
1042.395	-1113
1042.456	-1987
1042.518	-1224
1042.579	-1469
1042.640	-1323
1042.701	-1617
1042.763	-1468
1042.824	-1100
1042.885	-1150
1042.946	-1891
1043.007	-1883
1043.068	-1778
1043.129	-1879
1043.190	-2772
1043.251	-720
1043.312	-1797
1043.373	-1479
1043.434	-1811
1043.495	-1159
1043.556	-1001
1043.616	-959
1043.677	-2091
1043.738	-1890
1043.799	-2234
1043.859	-754
1043.920	-1605
1043.981	-1645
1044.041	-1682
1044.102	-1562
1044.162	-1644
1044.223	-1832
1044.284	-2374
1044.344	-1382
1044.405	-1729
1044.465	-1615
1044.525	-1884
1044.586	-1445
1044.646	-1441
1044.707	-1068
1044.767	-1494
1044.827	-2281
1044.887	-1197
1044.948	-1693
1045.008	-959
1045.068	-1174
1045.128	-1432
1045.188	-1766
1045.249	-710
1045.309	-1652
1045.369	-1135
1045.429	-1626
1045.489	-1550
1045.549	-1421
1045.609	-1481
1045.669	-1159
1045.729	-1810
1045.789	-1348
1045.848	-1311
1045.908	-1387
1045.968	-1071
1046.028	-933
1046.088	-2256
1046.147	-575
1046.207	-1710
1046.267	-1496
1046.326	-875
1046.386	-1592
1046.446	-860
1046.505	-732
1046.565	-1311
1046.624	-1349
1046.684	-898
1046.743	-601
1046.803	-479
1046.862	-491
1046.922	0
