'Start Wavelength	183.907
'End Wavelength	1046.922
'Gate Delay	5.000
'Gate Width (ms)	1.050
'Laser Output Level	0.000
'X Position	0.000
'Y Position	0.000
'Z Position	0.000
'Grid Point Number	1.000
'Shot Number	100.000
183.907	227.000
183.977	411.000
184.047	-679
184.116	-170
184.186	836
184.256	-299
184.325	-953
184.395	-404
184.465	468
184.534	155
184.604	-267
184.674	296
184.743	-518
184.813	-252
184.883	140
184.952	553
185.022	253
185.092	391
185.161	-232
185.231	-479
185.301	151
185.370	-146
185.440	-197
185.509	-698
185.579	-139
185.649	39
185.718	-78
185.788	530
185.857	-176
185.927	-730
185.996	4
186.066	52
186.136	-746
186.205	226
186.275	-98
186.344	467
186.414	19
186.483	-625
186.553	328
186.622	-183
186.692	598
186.761	112
186.831	-287
186.900	72
186.970	681
187.039	167
187.109	538
187.178	378
187.248	-135
187.317	571
187.387	358
187.456	420
187.526	-175
187.595	52
187.664	-571
187.734	-50
187.803	-259
187.873	-59
187.942	-338
188.012	207
188.081	436
188.150	-954
188.220	634
188.289	1040
188.358	-401
188.428	78
188.497	-300
188.567	992
188.636	285
188.705	59
188.775	165
188.844	-503
188.913	765
188.983	-515
189.052	23
189.121	62
189.191	86
189.260	525
189.329	-88
189.399	428
189.468	-311
189.537	-158
189.606	202
189.676	234
189.745	310
189.814	696
189.883	-674
189.953	94
190.022	803
190.091	-153
190.161	770
190.230	139
190.299	-562
190.368	-468
190.437	-823
190.507	76
190.576	-533
190.645	493
190.714	-418
190.783	472
190.853	173
190.922	-204
190.991	-765
191.060	404
191.129	-589
191.198	347
191.268	-271
191.337	64
191.406	817
191.475	-436
191.544	634
191.613	-3
191.682	-659
191.752	-76
191.821	76
191.890	404
191.959	263
192.028	-370
192.097	-170
192.166	246
192.235	61
192.304	649
192.373	453
192.442	-276
192.511	684
192.580	107
192.650	154
192.719	-88
192.788	300
192.857	155
192.926	-441
192.995	-219
193.064	-7
193.133	-326
193.202	-922
193.271	-492
193.340	-618
193.409	-775
193.478	310
193.547	258
193.615	-223
193.684	217
193.753	-898
193.822	431
193.891	-800
193.960	215
194.029	276
194.098	-544
194.167	141
194.236	194
194.305	340
194.374	-361
194.443	-312
194.512	297
194.580	713
194.649	-25
194.718	636
194.787	283
194.856	-409
194.925	263
194.994	-869
195.062	268
195.131	423
195.200	-375
195.269	-129
195.338	72
195.407	14
195.475	371
195.544	-344
195.613	-366
195.682	-223
195.751	-388
195.819	575
195.888	-160
195.957	125
196.026	-151
196.094	441
196.163	-121
196.232	-58
196.301	32
196.369	561
196.438	-337
196.507	-453
196.576	657
196.644	-857
196.713	-1086
196.782	-872
196.850	293
196.919	218
196.988	-28
197.056	-171
197.125	-578
197.194	47
197.262	-314
197.331	-16
197.400	-379
197.468	-244
197.537	-862
197.606	-430
197.674	186
197.743	-294
197.812	-325
197.880	-277
197.949	-597
198.017	-248
198.086	-158
198.155	295
198.223	-129
198.292	-336
198.360	138
198.429	-719
198.497	-420
198.566	-23
198.635	-96
198.703	-548
198.772	245
198.840	245
198.909	38
198.977	-693
199.046	-708
199.114	218
199.183	-432
199.251	-135
199.320	331
199.388	634
199.457	-589
199.525	-336
199.594	591
199.662	-99
199.731	-233
199.799	-289
199.867	-253
199.936	-435
200.004	-4
200.073	810
200.141	225
200.210	-153
200.278	-270
200.346	-68
200.415	362
200.483	-381
200.552	249
200.620	3
200.688	89
200.757	-168
200.825	125
200.893	-1031
200.962	216
201.030	390
201.098	-211
201.167	515
201.235	-649
201.303	-51
201.372	256
201.440	329
201.508	-83
201.577	-382
201.645	-876
201.713	432
201.781	26
201.850	100
201.918	-923
201.986	-12
202.055	171
202.123	-126
202.191	-632
202.259	162
202.327	-914
202.396	59
202.464	-386
202.532	-1070
202.600	-78
202.669	-640
202.737	-763
202.805	-395
202.873	-539
202.941	569
203.009	-478
203.078	-299
203.146	-339
203.214	-608
203.282	-1140
203.350	201
203.418	-49
203.487	-159
203.555	-249
203.623	-114
203.691	128
203.759	-1290
203.827	236
203.895	-998
203.963	-250
204.031	-1083
204.099	429
204.168	-417
204.236	-133
204.304	-584
204.372	-485
204.440	377
204.508	-181
204.576	-1127
204.644	-52
204.712	-239
204.780	-279
204.848	-141
204.916	-563
204.984	26
205.052	-312
205.120	-1302
205.188	177
205.256	-556
205.324	-242
205.392	-1005
205.460	-182
205.528	-562
205.596	-263
205.664	-120
205.732	-888
205.799	-136
205.867	80
205.935	-1079
206.003	17
206.071	-285
206.139	-99
206.207	-539
206.275	-140
206.343	-300
206.411	262
206.478	-446
206.546	-187
206.614	-1062
206.682	-659
206.750	-445
206.818	92
206.885	473
206.953	-1474
207.021	-141
207.089	234
207.157	-901
207.225	-574
207.292	-246
207.360	-674
207.428	-684
207.496	-855
207.563	-130
207.631	106
207.699	-693
207.767	-309
207.834	-820
207.902	49
207.970	-339
208.038	-23
208.105	339
208.173	-705
208.241	-861
208.309	-414
208.376	121
208.444	-555
208.512	-144
208.579	-1229
208.647	-140
208.715	151
208.782	-1363
208.850	195
208.918	-849
208.985	-17
209.053	161
209.120	-328
209.188	-1261
209.256	-701
209.323	-663
209.391	-698
209.459	-199
209.526	-149
209.594	-841
209.661	-818
209.729	199
209.796	-977
209.864	-245
209.932	-1014
209.999	489
210.067	-542
210.134	-272
210.202	-415
210.269	183
210.337	499
210.404	-617
210.472	-226
210.539	-423
210.607	-485
210.674	-473
210.742	-1030
210.809	-416
210.877	-301
210.944	207
211.012	-1240
211.079	972
211.146	-143
211.214	121
211.281	68
211.349	234
211.416	153
211.484	-833
211.551	-395
211.618	-587
211.686	22
211.753	-596
211.821	65
211.888	207
211.955	-977
212.023	-727
212.090	-776
212.157	160
212.225	-361
212.292	-6
212.359	-570
212.427	-684
212.494	-502
212.561	-316
212.629	-280
212.696	-1100
212.763	-284
212.831	-538
212.898	-118
212.965	80
213.032	-511
213.100	-301
213.167	-1127
213.234	180
213.301	-92
213.369	-900
213.436	-249
213.503	-785
213.570	159
213.638	-74
213.705	-1282
213.772	-771
213.839	-598
213.906	4
213.973	-424
214.041	-905
214.108	394
214.175	-359
214.242	-812
214.309	-201
214.376	-78
214.444	-1241
214.511	-649
214.578	-130
214.645	-207
214.712	16
214.779	-869
214.846	-790
214.913	127
214.980	-1128
215.048	-113
215.115	-90
215.182	343
215.249	-83
215.316	-1056
215.383	363
215.450	-147
215.517	-760
215.584	-482
215.651	-668
215.718	-355
215.785	-716
215.852	-659
215.919	462
215.986	-50
216.053	-665
216.120	-670
216.187	20
216.254	-81
216.321	-602
216.388	-387
216.455	-306
216.522	-501
216.589	-616
216.656	-613
216.722	-465
216.789	-808
216.856	-573
216.923	32
216.990	-377
217.057	-963
217.124	-98
217.191	-1097
217.258	-701
217.324	-205
217.391	-524
217.458	-538
217.525	-671
217.592	-754
217.659	-2023
217.725	462
217.792	-1219
217.859	259
217.926	-1244
217.993	-279
218.059	196
218.126	-487
218.193	325
218.260	-64
218.327	-1175
218.393	-689
218.460	-464
218.527	-806
218.594	-959
218.660	-842
218.727	-93
218.794	-257
218.860	44
218.927	-687
218.994	-269
219.061	-1572
219.127	-482
219.194	-325
219.261	-268
219.327	-648
219.394	-729
219.461	-1286
219.527	-442
219.594	-207
219.661	-495
219.727	-1024
219.794	295
219.860	-494
219.927	-239
219.994	485
220.060	189
220.127	662
220.193	-188
220.260	-288
220.326	-727
220.393	-494
220.460	-455
220.526	-606
220.593	-760
220.659	478
220.726	-1165
220.792	148
220.859	-1043
220.925	-1462
220.992	-845
221.058	-606
221.125	-110
221.191	-952
221.258	-1115
221.324	-597
221.391	-866
221.457	-74
221.524	-796
221.590	11
221.657	-392
221.723	-1381
221.789	-810
221.856	-676
221.922	-874
221.989	383
222.055	-933
222.121	-1651
222.188	340
222.254	-468
222.321	-184
222.387	-147
222.453	-142
222.520	-757
222.586	-253
222.652	-843
222.719	-80
222.785	-385
222.851	-759
222.918	-461
222.984	-518
223.050	-667
223.116	-881
223.183	-307
223.249	-536
223.315	-458
223.382	-792
223.448	-397
223.514	-1092
223.580	-1243
223.647	-1184
223.713	-1061
223.779	-150
223.845	-981
223.911	-519
223.978	-581
224.044	-371
224.110	-1313
224.176	78
224.242	-474
224.309	-1073
224.375	-189
224.441	-142
224.507	-1294
224.573	-1241
224.639	-601
224.705	-940
224.772	-141
224.838	-922
224.904	341
224.970	-505
225.036	-863
225.102	-1352
225.168	-271
225.234	624
225.300	-921
225.366	-951
225.432	-643
225.499	-1125
225.565	-368
225.631	-1236
225.697	-901
225.763	-167
225.829	-671
225.895	-177
225.961	-447
226.027	-679
226.093	-1197
226.159	271
226.225	780
226.291	240
226.357	-1091
226.423	-533
226.489	-685
226.554	-858
226.620	-506
226.686	-748
226.752	-957
226.818	-933
226.884	281
226.950	-651
227.016	-895
227.082	62
227.148	-628
227.214	-54
227.279	-961
227.345	-627
227.411	444
227.477	953
227.543	894
227.609	1781
227.674	1383
227.740	-278
227.806	774
227.872	-684
227.938	411
228.003	-12
228.069	-779
228.135	-818
228.201	-435
228.267	-820
228.332	-345
228.398	-2059
228.464	-20
228.530	-1054
228.595	-705
228.661	-1804
228.727	-797
228.792	352
228.858	-810
228.924	-2193
228.990	933
229.055	-1152
229.121	-368
229.187	-533
229.252	-1303
229.318	-1162
229.384	-339
229.449	-343
229.515	-1293
229.581	-1626
229.646	1083
229.712	-1546
229.777	-997
229.843	-689
229.909	-744
229.974	-336
230.040	-600
230.105	-761
230.171	-1437
230.236	-558
230.302	-672
230.368	-475
230.433	-1215
230.499	-705
230.564	-391
230.630	-1085
230.695	-687
230.761	205
230.826	-1572
230.892	539
230.957	-739
231.023	-1058
231.088	-202
231.154	-588
231.219	-403
231.284	-1195
231.350	102
231.415	-1730
231.481	-361
231.546	-426
231.612	135
231.677	-385
231.742	-1777
231.808	521
231.873	-1371
231.939	-1952
232.004	-314
232.069	-361
232.135	-968
232.200	-1707
232.265	-367
232.331	-721
232.396	-458
232.461	-977
232.527	-673
232.592	-1024
232.657	-141
232.723	-520
232.788	-546
232.853	62
232.918	-512
232.984	-631
233.049	-531
233.114	-1471
233.179	-99
233.245	-207
233.310	-382
233.375	-1404
233.440	-345
233.506	-1201
233.571	-1078
233.636	-686
233.701	-430
233.766	-844
233.832	-977
233.897	-1073
233.962	-2188
234.027	-293
234.092	-264
234.157	-1150
234.222	-1076
234.288	-1146
234.353	-510
234.418	52
234.483	-43
234.548	-678
234.613	-560
234.678	-1399
234.743	-1757
234.808	44
234.873	-2132
234.938	-278
235.004	-1268
235.069	-864
235.134	-1221
235.199	403
235.264	-877
235.329	-1606
235.394	-110
235.459	229
235.524	-1603
235.589	525
235.654	-1149
235.719	-2279
235.784	-180
235.849	-675
235.913	-491
235.978	-873
236.043	-570
236.108	-743
236.173	-1343
236.238	125
236.303	-963
236.368	-1684
236.433	-230
236.498	-1869
236.563	-695
236.627	-768
236.692	-813
236.757	-1236
236.822	-577
236.887	-1615
236.952	-813
237.017	-2842
237.081	370
237.146	-1883
237.211	-55
237.276	-1277
237.341	-200
237.405	-2178
237.470	-999
237.535	-917
237.600	-874
237.664	-460
237.729	-1292
237.794	-1794
237.859	-549
237.923	-429
237.988	-767
238.053	-205
238.118	-582
238.182	-1804
238.247	685
238.312	-1403
238.376	-1119
238.441	-2000
238.506	39
238.570	-2471
238.635	961
238.700	-248
238.764	-1255
238.829	-664
238.893	-1140
238.958	-18
239.023	-1248
239.087	-1344
239.152	-239
239.216	-551
239.281	-15
239.346	-710
239.410	-839
239.475	-1031
239.539	297
239.604	-1048
239.668	-192
239.733	12
239.797	2275
239.862	3356
239.926	3396
239.991	2161
240.055	337
240.120	-564
240.184	180
240.249	-1314
240.313	-700
240.378	-934
240.442	-1124
240.507	-531
240.571	-637
240.635	-1184
240.700	-1265
240.764	-724
240.829	-124
240.893	-1671
240.957	-61
241.022	106
241.086	-173
241.151	-1522
241.215	-1295
241.279	-13
241.344	-1320
241.408	-265
241.472	-969
241.537	-159
241.601	-85
241.665	-2126
241.730	-1550
241.794	151
241.858	-1396
241.922	-810
241.987	-323
242.051	-1827
242.115	-694
242.179	-1234
242.244	-1428
242.308	-1045
242.372	-1355
242.436	-1625
242.501	-404
242.565	-1756
242.629	-1353
242.693	541
242.757	-1460
242.822	-643
242.886	-616
242.950	-10
243.014	-528
243.078	-792
243.142	-1565
243.206	-1449
243.271	-950
243.335	-877
243.399	-180
243.463	-1642
243.527	-378
243.591	-1120
243.655	-1213
243.719	-1502
243.783	-495
243.847	-116
243.911	-265
243.975	-1622
244.040	-1960
244.104	484
244.168	-836
244.232	-1487
244.296	-655
244.360	-763
244.424	-1455
244.488	-623
244.552	-875
244.615	-1766
244.679	-862
244.743	-1113
244.807	-2199
244.871	-387
244.935	-59
244.999	-2013
245.063	-973
245.127	-23
245.191	-1743
245.255	-1260
245.319	-1191
245.383	-2518
245.446	690
245.510	-1544
245.574	-1366
245.638	-396
245.702	-1767
245.766	-858
245.829	56
245.893	-1673
245.957	-582
246.021	-108
246.085	-1027
246.149	-289
246.212	-3
246.276	-1410
246.340	-1868
246.404	-439
246.467	-460
246.531	-3255
246.595	-192
246.659	114
246.722	-1650
246.786	-524
246.850	-930
246.913	-832
246.977	-1372
247.041	-867
247.104	-71
247.168	-659
247.232	-624
247.295	-345
247.359	-836
247.423	-1345
247.486	-1284
247.550	-238
247.614	-1177
247.677	-780
247.741	-1045
247.804	-1043
247.868	-990
247.932	-1182
247.995	83
248.059	-843
248.122	-1769
248.186	169
248.249	-454
248.313	-111
248.376	134
248.440	-548
248.503	-1871
248.567	186
248.630	-1771
248.694	-1683
248.757	-55
248.821	-538
248.884	473
248.948	-1549
249.011	214
249.075	1277
249.138	555
249.202	-475
249.265	-2604
249.328	274
249.392	-1768
249.455	-794
249.519	-69
249.582	-1387
249.645	-331
249.709	-901
249.772	-591
249.835	-915
249.899	-1814
249.962	-635
250.025	-1537
250.089	-687
250.152	385
250.215	-1016
250.279	-542
250.342	-1125
250.405	-840
250.468	-2045
250.532	-1272
250.595	-120
250.658	-2207
250.721	-844
250.785	-1827
250.848	-111
250.911	-2231
250.974	188
251.038	-1567
251.101	-299
251.164	-1340
251.227	-583
251.290	-1371
251.354	-1103
251.417	-1192
251.480	-1100
251.543	-1134
251.606	-1570
251.669	-1507
251.732	-861
251.795	-1244
251.859	-296
251.922	-645
251.985	-973
252.048	106
252.111	23
252.174	-2321
252.237	-897
252.300	841
252.363	-680
252.426	154
252.489	-1653
252.552	-894
252.615	-2183
252.678	-214
252.741	640
252.804	-879
252.867	-618
252.930	-229
252.993	-1455
253.056	-117
253.119	-1462
253.182	-1086
253.245	-1102
253.308	-182
253.371	-1230
253.434	-686
253.497	-851
253.559	-412
253.622	-10
253.685	-1454
253.748	-782
253.811	-893
253.874	11
253.937	-1374
254.000	-72
254.062	-1201
254.125	-621
254.188	70
254.251	-1865
254.314	-899
254.376	-761
254.439	-667
254.502	-1206
254.565	-1939
254.628	64
254.690	-622
254.753	-1707
254.816	-1014
254.878	-1042
254.941	102
255.004	-679
255.067	-913
255.129	-1233
255.192	-349
255.255	-1394
255.317	-676
255.380	-210
255.443	-908
255.505	-566
255.568	-1828
255.631	-1281
255.693	-736
255.756	-1740
255.819	408
255.881	-218
255.944	306
256.006	-1474
256.069	-804
256.132	-1667
256.194	-1060
256.257	-713
256.319	-677
256.382	-858
256.444	267
256.507	-120
256.569	-1338
256.632	-460
256.694	-1141
256.757	-710
256.819	-782
256.882	-1631
256.944	-746
257.007	136
257.069	-1674
257.132	-1173
257.194	29
257.257	-1247
257.319	-734
257.381	-1413
257.444	610
257.506	-1232
257.569	-872
257.631	-1164
257.693	-696
257.756	-681
257.818	-620
257.880	-766
257.943	-48
258.005	-1506
258.067	-659
258.130	-1093
258.192	-732
258.254	-1237
258.317	-760
258.379	-381
258.441	-1363
258.503	-424
258.566	-1589
258.628	-430
258.690	-2127
258.753	151
258.815	-737
258.877	-1795
258.939	-1617
259.001	-359
259.064	-1342
259.126	-1408
259.188	-970
259.250	-489
259.312	-541
259.375	-1309
259.437	-933
259.499	-1084
259.561	-1470
259.623	-177
259.685	-853
259.747	-564
259.809	-1030
259.872	-989
259.934	-240
259.996	-220
260.058	-839
260.120	-1279
260.182	-137
260.244	-705
260.306	-1116
260.368	-593
260.430	-1199
260.492	-764
260.554	-583
260.616	-1266
260.678	-687
260.740	-1414
260.802	-1814
260.864	-876
260.926	-1601
260.988	149
261.050	-1327
261.112	-1679
261.174	511
261.236	-871
261.298	-1416
261.359	-1305
261.421	126
261.483	-1730
261.545	-5
261.607	-1145
261.669	11
261.731	-507
261.793	-220
261.854	-1301
261.916	-254
261.978	-958
262.040	-1239
262.102	-296
262.164	-1460
262.225	-224
262.287	-699
262.349	-1590
262.411	-661
262.472	-675
262.534	-1408
262.596	-767
262.658	-233
262.719	-1417
262.781	-107
262.843	-2557
262.904	-996
262.966	-668
263.028	-753
263.090	-341
263.151	-455
263.213	-587
263.275	-1163
263.336	-711
263.398	92
263.459	-1203
263.521	-1000
263.583	-698
263.644	-1043
263.706	-1231
263.767	-1089
263.829	-451
263.891	-600
263.952	-1211
264.014	-996
264.075	-964
264.137	-876
264.198	-747
264.260	-793
264.321	-666
264.383	-1080
264.444	-98
264.506	-1065
264.567	-669
264.629	-56
264.690	-2385
264.752	-635
264.813	-549
264.875	-1397
264.936	149
264.998	-1178
265.059	-440
265.120	-633
265.182	-777
265.243	-1067
265.305	-667
265.366	-421
265.427	-489
265.489	49
265.550	-1978
265.611	-329
265.673	-843
265.734	-987
265.795	-408
265.857	-1087
265.918	-714
265.979	-1040
266.040	-827
266.102	-640
266.163	-118
266.224	-866
266.286	-617
266.347	-1433
266.408	-966
266.469	-948
266.530	-662
266.592	-851
266.653	-1049
266.714	-1320
266.775	-149
266.836	-1100
266.898	-1596
266.959	-934
267.020	-935
267.081	205
267.142	-752
267.203	-1114
267.264	-2040
267.326	-290
267.387	-1193
267.448	-652
267.509	-927
267.570	-755
267.631	-1138
267.692	-1215
267.753	-459
267.814	-1695
267.875	-24
267.936	-809
267.997	-1328
268.058	-1060
268.119	-1591
268.180	-529
268.241	-1725
268.302	-21
268.363	-1458
268.424	-1229
268.485	-1269
268.546	-1527
268.607	-1098
268.668	-550
268.729	-1406
268.790	-798
268.851	-152
268.912	-798
268.972	-491
269.033	-1088
269.094	-1131
269.155	-871
269.216	-918
269.277	-596
269.338	-982
269.398	-556
269.459	-953
269.520	-1301
269.581	-598
269.642	-664
269.702	-1062
269.763	-754
269.824	-1111
269.885	-821
269.945	-866
270.006	-1305
270.067	-688
270.128	-1756
270.188	-1149
270.249	-1764
270.310	-1166
270.370	-858
270.431	-990
270.492	-860
270.553	-437
270.613	-601
270.674	-590
270.734	-798
270.795	-234
270.856	-817
270.916	-1287
270.977	-1125
271.038	-214
271.098	-456
271.159	-1076
271.219	-1089
271.280	-587
271.340	-440
271.401	-1020
271.462	-818
271.522	-577
271.583	-994
271.643	-649
271.704	-1133
271.764	-1301
271.825	-788
271.885	470
271.946	225
272.006	-123
272.066	-363
272.127	1156
272.187	3565
272.248	1042
272.308	-797
272.369	628
272.429	-149
272.489	-216
272.550	-1107
272.610	-210
272.671	-628
272.731	-216
272.791	-965
272.852	-1440
272.912	-764
272.972	-962
273.033	-450
273.093	-1352
273.153	-651
273.214	-950
273.274	-888
273.334	-288
273.394	-1223
273.455	-906
273.515	-348
273.575	390
273.635	301
273.696	-438
273.756	-183
273.816	-270
273.876	273
273.936	-528
273.997	-500
274.057	-1564
274.117	-967
274.177	-759
274.237	-84
274.297	536
274.358	-6
274.418	-385
274.478	-535
274.538	-1185
274.598	-900
274.658	-20
274.718	-711
274.778	-813
274.838	-846
274.898	-612
274.958	-407
275.018	77
275.078	11
275.138	-258
275.198	-899
275.258	-1126
275.318	0
275.378	-842
275.438	-737
275.498	80
275.558	-290
275.618	-208
275.678	-147
275.738	900
275.798	-841
275.858	-1144
275.918	-1263
275.978	-570
276.038	-688
276.098	-796
276.157	-1298
276.217	168
276.277	-764
276.337	-1254
276.397	-733
276.457	-108
276.517	-504
276.576	-874
276.636	-914
276.696	-546
276.756	-249
276.815	-1079
276.875	-310
276.935	-342
276.995	-67
277.055	121
277.114	-363
277.174	-832
277.234	-613
277.293	-542
277.353	-654
277.413	-158
277.472	-1386
277.532	-827
277.592	-314
277.651	-173
277.711	-429
277.771	-329
277.830	882
277.890	392
277.950	530
278.009	2467
278.069	885
278.128	800
278.188	1002
278.248	-28
278.307	1072
278.367	964
278.426	-433
278.486	-884
278.545	-640
278.605	-610
278.664	-246
278.724	-318
278.783	208
278.843	710
278.902	-678
278.962	-58
279.021	-230
279.081	-800
279.140	-923
279.199	-808
279.259	-143
279.318	108
279.378	23
279.437	1049
279.496	3649
279.556	9260
279.615	6468
279.675	973
279.734	139
279.793	1045
279.853	2990
279.912	1410
279.971	516
280.031	345
280.090	872
280.149	2753
280.208	1628
280.268	3381
280.327	5676
280.386	279
280.445	1093
280.505	-911
280.564	55
280.623	-120
280.682	-89
280.742	-473
280.801	-527
280.860	-766
280.919	-697
280.978	-401
281.037	-619
281.097	-1348
281.156	-325
281.215	-384
281.274	-11
281.333	328
281.392	-534
281.451	-6
281.510	227
281.569	-996
281.628	-981
281.688	-40
281.747	130
281.806	-310
281.865	184
281.924	-726
281.983	466
282.042	-1039
282.101	-675
282.160	-742
282.219	-772
282.278	-837
282.337	423
282.396	-824
282.454	60
282.513	-1392
282.572	-225
282.631	-998
282.690	-562
282.749	-628
282.808	163
282.867	-455
282.926	-121
282.985	100
283.043	-752
283.102	-590
283.161	-440
283.220	-59
283.279	-450
283.338	-4
283.396	-281
283.455	-687
283.514	-331
283.573	-71
283.631	-251
283.690	-71
283.749	-1217
283.808	24
283.866	771
283.925	-829
283.984	524
284.043	-694
284.101	299
284.160	-448
284.219	-487
284.277	-312
284.336	-47
284.395	-438
284.453	258
284.512	54
284.570	-118
284.629	319
284.688	-184
284.746	-224
284.805	-149
284.863	149
284.922	-110
284.981	933
285.039	1154
285.098	2786
285.156	7506
285.215	19227
285.273	19946
285.332	10252
285.390	4450
285.449	2249
285.507	1099
285.566	1224
285.624	637
285.683	1238
285.741	-520
285.799	-242
285.858	-248
285.916	140
285.975	178
286.033	-757
286.091	488
286.150	-894
286.208	104
286.267	-407
286.325	-249
286.383	-157
286.442	-709
286.500	-554
286.558	312
286.616	579
286.675	-533
286.733	88
286.791	-1061
286.850	-97
286.908	4
286.966	-860
287.024	-444
287.083	-108
287.141	-602
287.199	485
287.257	554
287.315	568
287.374	-226
287.432	63
287.490	-315
287.548	64
287.606	-155
287.664	542
287.723	-190
287.781	222
287.839	-195
287.897	83
287.955	-599
288.013	-351
288.071	-600
288.129	-163
288.187	-20
288.245	-418
288.303	-579
288.361	-1313
288.419	-174
288.477	12
288.535	-242
288.593	77
288.651	83
288.709	-338
288.767	105
288.825	-327
288.883	274
288.941	16
288.999	-632
289.057	546
289.115	349
289.173	12
289.231	-723
289.289	-23
289.346	-121
289.404	-425
289.462	-303
289.520	463
289.578	118
289.636	502
289.694	228
289.751	-248
289.809	105
289.867	430
289.925	961
289.983	-211
290.040	246
290.098	-331
290.156	-128
290.214	-714
290.271	-31
290.329	-415
290.387	-105
290.444	-21
290.502	-579
290.560	515
290.617	-19
290.675	371
290.733	298
290.790	61
290.848	-143
290.906	-428
290.963	-413
291.021	-511
291.078	37
291.136	-343
291.194	-117
291.251	-819
291.309	-278
291.366	391
291.424	147
291.481	-737
291.539	-250
291.596	140
291.654	185
291.711	-49
291.769	590
291.826	325
291.884	-416
291.941	675
291.999	409
292.056	-653
292.114	84
292.171	-127
292.228	80
292.286	1797
292.343	325
292.401	177
292.458	448
292.515	331
292.573	357
292.630	-81
292.687	-300
292.745	-100
292.802	-593
292.859	1222
292.917	578
292.974	192
293.031	136
293.089	191
293.146	71
293.203	32
293.260	-228
293.318	394
293.375	91
293.432	653
293.489	641
293.546	180
293.604	210
293.661	590
293.718	1623
293.775	383
293.832	178
293.889	-42
293.947	637
294.004	-368
294.061	290
294.118	-343
294.175	652
294.232	282
294.289	266
294.346	206
294.403	-497
294.460	-277
294.517	-97
294.574	-26
294.631	-399
294.688	-302
294.745	403
294.802	1194
294.859	707
294.916	32
294.973	-173
295.030	-408
295.087	-104
295.144	250
295.201	106
295.258	-553
295.315	410
295.372	183
295.429	1084
295.486	45
295.542	373
295.599	-419
295.656	5
295.713	160
295.770	443
295.827	-110
295.883	-626
295.940	-1112
295.997	213
296.054	-1460
296.111	19
296.167	464
296.224	-253
296.281	-1464
296.338	114
296.394	-738
296.451	-358
296.508	958
296.564	380
296.621	1150
296.678	1225
296.734	1954
296.791	678
296.848	-102
296.904	214
296.961	-64
297.018	548
297.074	558
297.131	-466
297.187	-452
297.244	23
297.301	547
297.357	2583
297.414	814
297.470	499
297.527	256
297.583	434
297.640	680
297.696	-52
297.753	-187
297.809	242
297.866	-443
297.922	3
297.979	-885
298.035	-698
298.092	-464
298.148	-204
298.204	251
298.261	-396
298.317	215
298.374	1326
298.430	729
298.486	63
298.543	106
298.599	-441
298.656	-20
298.712	20
298.768	-538
298.824	98
298.881	-292
298.937	-158
298.993	-744
299.050	396
299.106	-228
299.162	474
299.218	178
299.275	-419
299.331	-30
299.387	639
299.443	2426
299.500	8028
299.556	7282
299.612	3231
299.668	1808
299.724	6314
299.780	10245
299.837	3296
299.893	2262
299.949	5196
300.005	8770
300.061	6924
300.117	10557
300.173	5450
300.229	1779
300.285	804
300.341	1385
300.397	946
300.453	-77
300.510	547
300.566	1043
300.622	3071
300.678	10594
300.734	16276
300.790	7662
300.845	3819
300.901	5053
300.957	10046
301.013	5531
301.069	1898
301.125	1387
301.181	639
301.237	981
301.293	1340
301.349	-626
301.405	1032
301.461	216
301.516	-19
301.572	-98
301.628	-965
301.684	-636
301.740	42
301.796	124
301.851	-1030
301.907	334
301.963	-87
302.019	1136
302.074	4603
302.130	4738
302.186	2214
302.242	449
302.297	623
302.353	380
302.409	50
302.464	-90
302.520	-459
302.576	116
302.631	1481
302.687	-919
302.743	-495
302.798	311
302.854	-467
302.910	190
302.965	-486
303.021	454
303.076	-626
303.132	-363
303.187	91
303.243	-905
303.299	267
303.354	-332
303.410	-170
303.465	-361
303.521	-1245
303.576	-521
303.632	211
303.687	-300
303.743	1013
303.798	893
303.853	377
303.909	-823
303.964	-379
304.020	-245
304.075	186
304.130	-226
304.186	-15
304.241	638
304.297	-70
304.352	-138
304.358	-99
304.407	219
304.449	191
304.463	184
304.518	-675
304.539	-423
304.573	-45
304.629	298
304.630	290
304.684	-37
304.720	60
304.739	103
304.794	1705
304.811	1412
304.850	720
304.902	-147
304.905	-205
304.960	-168
304.992	-171
305.015	-186
305.071	80
305.083	-69
305.126	-578
305.173	-396
305.181	-367
305.236	-691
305.264	-558
305.292	-424
305.347	-619
305.354	-577
305.402	-238
305.445	160
305.457	246
305.512	547
305.535	305
305.567	20
305.622	-235
305.626	-213
305.678	168
305.716	229
305.733	228
305.788	722
305.807	462
305.843	40
305.897	811
305.898	822
305.953	1235
305.988	648
306.008	276
306.063	43
306.078	-60
306.118	-161
306.168	-134
306.173	-133
306.228	177
306.259	168
306.283	104
306.338	36
306.349	-41
306.393	-334
306.440	-101
306.448	-36
306.503	51
306.530	12
306.558	-3
306.613	89
306.620	90
306.668	-1
306.711	309
306.723	364
306.778	-64
306.801	226
306.833	737
306.888	80
306.892	54
306.943	-310
306.982	-165
306.997	-74
307.052	638
307.072	504
307.107	141
307.162	398
307.163	389
307.217	-32
307.253	23
307.272	22
307.327	78
307.343	158
307.381	471
307.434	106
307.436	85
307.491	81
307.524	119
307.546	146
307.600	609
307.614	553
307.655	319
307.704	84
307.710	93
307.765	26
307.795	268
307.819	389
307.874	531
307.885	482
307.929	350
307.975	622
307.984	645
308.038	605
308.065	506
308.093	623
308.148	513
308.156	523
308.202	296
308.246	446
308.257	501
308.312	413
308.336	483
308.366	606
308.421	693
308.426	636
308.475	195
308.517	419
308.530	458
308.585	-6
308.607	-45
308.639	51
308.694	264
308.697	279
308.748	511
308.787	391
308.803	332
308.857	-8
308.877	-94
308.912	-178
308.967	299
308.967	289
309.021	252
309.058	605
309.076	614
309.130	758
309.148	736
309.185	1004
309.238	1380
309.239	1390
309.293	1345
309.328	1511
309.348	1489
309.402	1113
309.418	1092
309.457	1223
309.508	921
309.511	922
309.566	1268
309.598	1293
309.620	1371
309.674	1614
309.688	1779
309.729	1681
309.778	1010
309.783	1014
309.837	1169
309.868	1292
309.892	1402
309.946	1664
309.959	1691
310.001	1523
310.049	1204
310.055	1167
310.109	1290
310.139	1101
310.163	986
310.218	637
310.229	608
310.272	1044
310.319	1540
310.326	1495
310.381	965
310.409	688
310.435	762
310.489	953
310.499	1004
310.543	1059
310.589	1007
310.598	1023
310.652	869
310.679	949
310.706	975
310.760	974
310.769	912
310.814	1343
310.859	2027
310.868	1932
310.923	1277
310.948	995
310.977	1185
311.031	1371
311.038	1411
311.085	1451
311.128	1294
311.139	1317
311.193	1666
311.218	1725
311.247	1737
311.301	1813
311.308	1805
311.356	1520
311.398	1280
311.410	1300
311.464	1351
311.488	1390
311.518	1279
311.572	1062
311.578	1027
311.626	1133
311.668	1218
311.680	1280
311.734	1576
311.758	1692
311.788	1817
311.842	2037
311.847	2053
311.896	2184
311.937	2264
311.950	2165
312.004	1726
312.027	1521
312.058	1405
312.112	1197
312.117	1175
312.165	1345
312.207	1491
312.297	1619
312.386	1652
312.476	1997
312.566	1672
312.656	2041
312.745	1622
312.835	2322
312.925	2352
313.015	1403
313.104	1536
313.194	2141
313.284	2525
313.374	1848
313.463	3201
313.553	2659
313.643	2103
313.732	2682
313.822	2413
313.912	3406
314.001	3110
314.091	3360
314.180	2696
314.270	3340
314.360	3109
314.449	2805
314.539	2152
314.628	3400
314.718	2432
314.808	3823
314.897	3570
314.987	3910
315.076	3105
315.166	3626
315.255	3377
315.345	3077
315.434	3143
315.524	3001
315.613	2902
315.703	3370
315.792	7051
315.881	14686
315.971	5561
316.060	4284
316.150	2761
316.239	3707
316.328	3552
316.418	3634
316.507	3715
316.597	4382
316.686	4046
316.775	4302
316.865	3493
316.954	3405
317.043	3383
317.133	2579
317.222	2506
317.311	2549
317.400	1924
317.490	3753
317.579	2458
317.668	2764
317.757	4337
317.847	9455
317.936	22398
318.025	9420
318.114	7978
318.203	4789
318.293	3439
318.382	4728
318.471	5349
318.560	4661
318.649	3853
318.738	3058
318.828	2756
318.917	1982
319.006	1470
319.095	2185
319.184	2932
319.273	2541
319.362	2470
319.451	1874
319.540	2014
319.629	1873
319.718	2795
319.807	2414
319.896	1775
319.985	3882
320.074	1990
320.163	1896
320.252	2632
320.341	2685
320.430	3287
320.519	3071
320.608	3030
320.697	4778
320.786	4268
320.875	5114
320.964	5341
321.053	5288
321.142	5655
321.230	6598
321.319	6524
321.408	6727
321.497	7504
321.586	6330
321.675	5346
321.764	5123
321.852	6331
321.941	5256
322.030	4697
322.119	5718
322.207	7269
322.296	9042
322.385	9144
322.474	9544
322.562	9212
322.651	8704
322.740	6694
322.829	5771
322.917	4466
323.006	4325
323.095	4566
323.183	4308
323.272	3897
323.361	3157
323.449	4095
323.538	2623
323.626	3606
323.715	3488
323.804	2768
323.892	2781
323.981	2961
324.069	3270
324.158	2858
324.246	3282
324.335	2969
324.424	3106
324.512	2679
324.601	2183
324.689	3169
324.778	2246
324.866	2685
324.954	3446
325.043	2004
325.131	2203
325.220	3247
325.308	2598
325.397	2672
325.485	2439
325.574	3036
325.662	2612
325.750	1934
325.839	2916
325.927	1950
326.015	2735
326.104	2128
326.192	2410
326.280	2642
326.369	2165
326.457	2450
326.545	2253
326.634	2420
326.722	3102
326.810	2727
326.898	3622
326.987	2609
327.075	2603
327.163	2922
327.251	2925
327.340	3052
327.428	4271
327.516	3151
327.604	3503
327.692	2340
327.781	2565
327.869	2395
327.957	2676
328.045	2629
328.133	2619
328.221	1792
328.309	1662
328.397	2511
328.485	3054
328.574	4418
328.662	5465
328.750	4103
328.838	3961
328.926	3174
329.014	2179
329.102	2635
329.190	3025
329.278	2164
329.366	2120
329.454	1937
329.542	1810
329.630	1748
329.718	2915
329.806	2243
329.893	2669
329.981	1713
330.069	2507
330.157	2945
330.245	3010
330.333	2441
330.421	2533
330.509	1605
330.597	2559
330.684	2610
330.772	2530
330.860	2004
330.948	2191
331.036	2559
331.123	2304
331.211	1384
331.299	2280
331.387	1893
331.475	2371
331.562	2665
331.650	2757
331.738	2044
331.825	2882
331.913	2285
332.001	2475
332.089	2623
332.176	2090
332.264	2185
332.352	3267
332.439	2250
332.527	2863
332.614	2166
332.702	2260
332.790	2630
332.877	3132
332.965	3290
333.052	2799
333.140	3170
333.228	3078
333.315	3216
333.403	2566
333.490	3096
333.578	3553
333.665	3928
333.753	4328
333.840	2835
333.928	4212
334.015	4828
334.103	5394
334.190	6531
334.278	9173
334.365	12005
334.452	12549
334.540	9204
334.627	8011
334.715	9966
334.802	14013
334.889	19901
334.977	25430
335.064	18281
335.151	9629
335.239	7194
335.326	6541
335.413	6485
335.501	6754
335.588	7591
335.675	7963
335.762	9883
335.850	12315
335.937	17361
336.024	25340
336.111	35336
336.199	31864
336.286	16680
336.373	9757
336.460	7558
336.547	6241
336.635	5018
336.722	4924
336.809	3869
336.896	4029
336.983	3997
337.070	3675
337.157	3155
337.245	3675
337.332	4001
337.419	3775
337.506	3625
337.593	3405
337.680	3504
337.767	4089
337.854	2889
337.941	3156
338.028	3300
338.115	2372
338.202	3807
338.289	3340
338.376	2553
338.463	3056
338.550	2570
338.637	2163
338.724	2551
338.811	3630
338.898	2616
338.984	2967
339.071	1997
339.158	2917
339.245	2071
339.332	2759
339.419	2989
339.506	3069
339.593	1822
339.679	2589
339.766	1937
339.853	3039
339.940	2646
340.027	2638
340.113	2694
340.200	2611
340.287	1898
340.374	2170
340.460	2339
340.547	939
340.634	2442
340.720	2461
340.807	1636
340.894	2481
340.980	2020
341.067	1852
341.154	2969
341.240	2713
341.327	2317
341.414	3061
341.500	2176
341.587	3069
341.674	3485
341.760	3258
341.847	2462
341.933	1518
342.020	1690
342.106	2034
342.193	2195
342.279	2961
342.366	2061
342.452	2440
342.539	1983
342.625	2227
342.712	2242
342.798	2660
342.885	1994
342.971	1475
343.058	2019
343.144	2420
343.230	2818
343.317	2499
343.403	1614
343.490	2801
343.576	1423
343.662	2857
343.749	1460
343.835	1906
343.921	1987
344.008	4833
344.094	7012
344.180	3066
344.267	2134
344.353	2310
344.439	2705
344.525	2277
344.612	2115
344.698	1968
344.784	2184
344.870	1968
344.957	1766
345.043	3207
345.129	1444
345.215	2587
345.301	1773
345.387	2198
345.474	2073
345.560	1960
345.646	1170
345.732	2740
345.818	1285
345.904	2694
345.990	1901
346.076	2654
346.162	1572
346.249	2671
346.335	1282
346.421	2932
346.507	1926
346.593	3826
346.679	1036
346.765	3456
346.851	4033
346.937	3036
347.023	3623
347.108	2194
347.194	1895
347.280	1915
347.366	3221
347.452	8692
347.538	7843
347.624	6820
347.710	3152
347.796	2327
347.882	2510
347.967	3046
348.053	2115
348.139	2087
348.225	2211
348.311	2211
348.397	2302
348.482	3689
348.568	3727
348.654	4445
348.740	11344
348.825	11659
348.911	6244
348.997	4718
349.083	4934
349.168	2805
349.254	2658
349.340	2822
349.425	2477
349.511	2646
349.597	1845
349.682	2713
349.768	4163
349.854	2767
349.939	2605
350.025	2174
350.110	2942
350.196	1841
350.282	1764
350.367	3871
350.453	2377
350.538	2396
350.624	1784
350.709	2681
350.795	2708
350.880	2041
350.966	3728
351.051	3208
351.137	2101
351.222	2713
351.308	2405
351.393	2177
351.479	1812
351.564	1669
351.649	2042
351.735	1495
351.820	2757
351.906	2164
351.991	1904
352.076	2357
352.162	2591
352.247	3150
352.332	2699
352.418	1499
352.503	1758
352.588	3575
352.673	1705
352.759	2520
352.844	1838
352.929	1847
353.014	1701
353.100	2722
353.185	2120
353.270	1181
353.355	2688
353.441	2543
353.526	1960
353.611	2020
353.696	2043
353.781	2499
353.866	762
353.952	3409
354.037	1944
354.122	2647
354.207	2509
354.292	2137
354.377	2101
354.462	2609
354.547	1135
354.632	2705
354.717	1648
354.802	2049
354.887	2040
354.972	2013
355.057	1818
355.142	1287
355.227	2605
355.312	1584
355.397	1620
355.482	2787
355.567	1987
355.652	3442
355.737	1591
355.822	2467
355.907	1238
355.991	2944
356.076	1365
356.161	3054
356.246	2113
356.331	2653
356.416	1845
356.501	5165
356.585	4452
356.670	1459
356.755	4816
356.840	3542
356.924	4236
357.009	7650
357.094	4409
357.179	2115
357.263	2422
357.348	3523
357.433	2212
357.517	3181
357.602	2099
357.687	2589
357.771	3273
357.856	2662
357.941	3487
358.025	3793
358.110	9616
358.195	4659
358.279	2652
358.364	2769
358.448	3376
358.533	4155
358.617	1972
358.702	4011
358.787	2740
358.871	2381
358.956	2450
359.040	2708
359.125	1647
359.209	3139
359.294	2926
359.378	4456
359.462	3771
359.547	2928
359.631	2857
359.716	2808
359.800	1981
359.885	3363
359.969	1913
360.053	3095
360.138	2632
360.222	2178
360.306	2216
360.391	2680
360.475	2978
360.559	3056
360.644	3458
360.728	2566
360.812	4592
360.896	6191
360.981	3841
361.065	3148
361.149	3121
361.233	3240
361.318	2255
361.402	2723
361.486	4654
361.570	3356
361.654	3302
361.739	3761
361.823	5668
361.907	7769
361.991	5776
362.075	6206
362.159	7602
362.243	16687
362.327	30835
362.411	42643
362.495	18027
362.580	10843
362.664	10181
362.748	12038
362.832	17850
362.916	33289
363.000	72867
363.084	84996
363.168	36960
363.252	14655
363.336	9549
363.420	8416
363.503	6454
363.587	5632
363.671	6497
363.755	5680
363.839	7876
363.923	7819
364.007	10418
364.091	14174
364.175	20102
364.258	40562
364.342	80019
364.426	117321
364.510	65025
364.594	26962
364.677	14814
364.761	10339
364.845	8120
364.929	6143
365.013	4466
365.096	4925
365.180	4016
365.264	4097
365.347	4186
365.431	3658
365.515	2950
365.598	2351
365.682	4877
365.766	3257
365.849	3581
365.933	3795
366.017	5798
366.100	3403
366.184	3552
366.267	4964
366.351	3144
366.435	3352
366.518	2952
366.602	4641
366.685	2937
366.769	3786
366.852	3572
366.936	4102
367.019	3374
367.103	2918
367.186	4308
367.270	3313
367.353	2754
367.436	4516
367.520	3248
367.603	4322
367.687	2761
367.770	3485
367.853	4496
367.937	4547
368.020	4716
368.104	2661
368.187	3704
368.270	3409
368.353	3361
368.437	2976
368.520	3066
368.603	2967
368.687	2350
368.770	3270
368.853	3379
368.936	3433
369.020	3165
369.103	3446
369.186	1847
369.269	2611
369.352	3294
369.436	2087
369.519	3106
369.602	880
369.685	3831
369.768	1915
369.851	3256
369.934	2134
370.018	1838
370.101	950
370.184	4563
370.267	3719
370.350	3272
370.433	3105
370.516	5547
370.599	9917
370.682	3369
370.765	5114
370.848	4256
370.931	2372
371.014	4155
371.097	1769
371.180	2905
371.263	2767
371.346	1734
371.429	3857
371.511	1611
371.594	2636
371.677	2777
371.760	4110
371.843	2374
371.926	5559
372.009	8054
372.091	6272
372.174	3127
372.257	4813
372.340	2801
372.423	3508
372.505	3571
372.588	3002
372.671	3474
372.754	2736
372.836	2378
372.919	3598
373.002	3720
373.085	1733
373.167	3420
373.250	2565
373.332	5187
373.415	7757
373.498	9477
373.580	8234
373.663	15179
373.746	15217
373.828	4933
373.911	5287
373.993	2863
374.076	3736
374.159	3694
374.241	3652
374.324	4249
374.406	5444
374.489	4885
374.571	8564
374.654	4593
374.736	4761
374.819	6027
374.901	10166
374.983	7281
375.066	5468
375.148	4189
375.231	4058
375.313	4585
375.395	4730
375.478	4161
375.560	4865
375.643	4700
375.725	5181
375.807	6619
375.890	6834
375.972	1406
376.054	3620
376.136	4014
376.219	3789
376.301	4322
376.383	4886
376.465	3756
376.548	3029
376.630	3070
376.712	4778
376.794	2915
376.877	3038
376.959	1512
377.041	3148
377.123	2004
377.205	2686
377.287	2462
377.369	3463
377.452	3791
377.534	3479
377.616	3263
377.698	2731
377.780	2608
377.862	2880
377.944	4397
378.026	2874
378.108	3575
378.190	3175
378.272	2882
378.354	2950
378.436	2081
378.518	1743
378.600	2869
378.682	3101
378.764	3373
378.846	3650
378.928	2925
379.010	2165
379.091	3541
379.173	3266
379.255	2772
379.337	2164
379.419	2675
379.501	3633
379.583	2816
379.664	2592
379.746	1625
379.828	4493
379.910	3372
379.991	4013
380.073	1479
380.155	2596
380.237	2547
380.318	2636
380.400	1950
380.482	2737
380.564	2099
380.645	2384
380.727	2011
380.809	3753
380.890	2508
380.972	1118
381.053	2684
381.135	3562
381.217	2046
381.298	3662
381.380	2491
381.461	2768
381.543	4399
381.624	4434
381.706	2851
381.787	2597
381.869	2615
381.951	3501
382.032	5723
382.113	7502
382.195	1445
382.276	4257
382.358	2692
382.439	4207
382.521	5489
382.602	6665
382.684	4341
382.765	4682
382.846	4240
382.928	8165
383.009	4719
383.090	5151
383.172	10982
383.253	14857
383.334	6542
383.416	5244
383.497	4804
383.578	4193
383.659	4828
383.741	10651
383.822	21927
383.903	11268
383.984	4685
384.066	7545
384.147	3825
384.228	4789
384.309	3657
384.390	4718
384.471	4547
384.553	3910
384.634	3808
384.715	3751
384.796	3156
384.877	3202
384.958	3418
385.039	2789
385.120	3444
385.201	3961
385.282	3676
385.363	4458
385.444	4015
385.525	5636
385.606	5337
385.687	5905
385.768	4793
385.849	4719
385.930	8542
386.011	9563
386.092	4775
386.173	5254
386.254	5143
386.335	5894
386.416	4391
386.496	4977
386.577	4855
386.658	5321
386.739	4570
386.820	5374
386.901	4545
386.981	6674
387.062	5912
387.143	6461
387.224	8059
387.304	9687
387.385	9950
387.466	7581
387.547	9342
387.627	8747
387.708	9556
387.789	9955
387.869	9055
387.950	7819
388.031	6197
388.111	4322
388.192	6318
388.273	6705
388.353	5176
388.434	4685
388.514	5086
388.595	7274
388.676	5999
388.756	5383
388.837	5551
388.917	4595
388.998	2908
389.078	4758
389.159	4388
389.239	3073
389.320	6180
389.400	2720
389.480	5046
389.561	3950
389.641	4641
389.722	4228
389.802	3607
389.883	6152
389.963	5898
390.043	4167
390.124	2939
390.204	4882
390.284	4476
390.365	3537
390.445	4235
390.525	3478
390.605	4298
390.686	3161
390.766	5046
390.846	6190
390.927	2636
391.007	2724
391.087	4947
391.167	3889
391.247	2186
391.328	4557
391.408	4732
391.488	4413
391.568	3418
391.648	4036
391.728	5443
391.808	5767
391.888	5058
391.969	5781
392.049	5500
392.129	6481
392.209	6744
392.289	8887
392.369	7888
392.449	7927
392.529	7993
392.609	10659
392.689	11600
392.769	12881
392.849	15766
392.929	19708
393.009	24725
393.089	35613
393.169	61798
393.248	118378
393.328	206318
393.408	196095
393.488	106551
393.568	55168
393.648	31487
393.728	21393
393.807	15254
393.887	14110
393.967	11458
394.047	8744
394.127	7682
394.206	7602
394.286	6891
394.366	6164
394.446	7310
394.525	5305
394.605	5910
394.685	5907
394.764	7533
394.844	12628
394.924	15515
395.003	7758
395.083	4844
395.163	5342
395.242	5196
395.322	4881
395.402	3185
395.481	5889
395.561	6631
395.640	19608
395.720	37990
395.799	17631
395.879	7763
395.958	5869
396.038	6022
396.117	6519
396.197	7691
396.276	9045
396.356	9111
396.435	11946
396.515	16573
396.594	24899
396.673	48455
396.753	110622
396.832	187417
396.912	140330
396.991	58285
397.070	30412
397.150	18648
397.229	19000
397.308	33777
397.388	54988
397.467	27848
397.546	11541
397.625	6346
397.705	8184
397.784	6588
397.863	6163
397.942	5455
398.022	5740
398.101	4103
398.180	5012
398.259	3043
398.338	5017
398.417	4030
398.497	3950
398.576	4515
398.655	3950
398.734	3328
398.813	3834
398.892	2949
398.971	3512
399.050	1960
399.129	3121
399.208	3401
399.287	3865
399.366	2613
399.445	2905
399.524	3164
399.603	1264
399.682	2738
399.761	3375
399.840	3589
399.919	4126
399.998	2530
400.077	2153
400.156	1489
400.235	4832
400.313	2397
400.392	1429
400.471	3593
400.550	3670
400.629	442
400.708	3551
400.786	1241
400.865	2337
400.944	1222
401.023	4630
401.102	1631
401.180	3261
401.259	2420
401.338	2626
401.416	2172
401.495	1848
401.574	3120
401.652	2623
401.731	3408
401.810	1623
401.888	2882
401.967	1805
402.046	1553
402.124	2293
402.203	1224
402.281	1944
402.360	1286
402.438	2193
402.517	704
402.596	2298
402.674	2164
402.753	2036
402.831	2103
402.910	3334
402.988	3003
403.066	9054
403.145	6222
403.223	5949
403.302	8305
403.380	6508
403.459	6577
403.537	3788
403.615	3514
403.694	1722
403.772	2551
403.850	2814
403.929	1950
404.007	1938
404.085	3986
404.164	2032
404.242	2529
404.320	3005
404.398	2616
404.477	1833
404.555	5026
404.633	3081
404.711	2596
404.789	2642
404.868	1081
404.946	1307
405.024	1916
405.102	1147
405.180	1115
405.258	496
405.336	2157
405.415	506
405.493	1850
405.571	2855
405.649	953
405.727	650
405.805	2311
405.883	2527
405.961	2856
406.039	1014
406.117	515
406.195	2235
406.273	-154
406.351	3890
406.429	3396
406.507	1257
406.585	1413
406.663	2480
406.740	2141
406.818	781
406.896	823
406.974	2295
407.052	295
407.130	3306
407.208	3169
407.285	2789
407.363	716
407.441	1933
407.519	1871
407.596	2405
407.674	7723
407.752	26436
407.830	17125
407.907	4610
407.985	1407
408.063	1744
408.141	950
408.218	1624
408.296	688
408.373	2135
408.451	2363
408.529	3327
408.606	3204
408.684	3987
408.762	3195
408.839	2800
408.917	3593
408.994	3671
409.072	3665
409.149	5831
409.227	8141
409.304	11400
409.382	12515
409.459	14882
409.537	18785
409.614	16874
409.692	12638
409.769	13602
409.846	19455
409.924	21968
410.001	14811
410.079	11684
410.156	9702
410.233	7368
410.311	6224
410.388	5391
410.465	5011
410.543	5021
410.620	5815
410.697	4631
410.775	5004
410.852	5039
410.929	6211
411.006	5602
411.083	3791
411.161	3652
411.238	4346
411.315	3484
411.392	3389
411.469	4344
411.547	3502
411.624	991
411.701	2568
411.778	2752
411.855	2743
411.932	1888
412.009	2931
412.086	2816
412.163	2526
412.240	2576
412.317	2879
412.394	2465
412.471	3454
412.548	1407
412.625	2455
412.702	2671
412.779	1939
412.856	2118
412.933	2031
413.010	2080
413.087	2338
413.164	1387
413.241	1573
413.318	1225
413.395	2029
413.471	1689
413.548	1853
413.625	2121
413.702	918
413.779	1964
413.855	1545
413.932	886
414.009	342
414.086	2130
414.162	2039
414.239	2529
414.316	1985
414.393	3122
414.469	863
414.546	1410
414.623	1415
414.699	944
414.776	1357
414.853	1421
414.929	1898
415.006	1396
415.082	1483
415.159	1775
415.236	1459
415.312	1465
415.389	1610
415.465	460
415.542	1259
415.618	397
415.695	1625
415.771	1096
415.848	880
415.924	1180
416.000	846
416.077	2300
416.153	633
416.230	928
416.306	636
416.383	1024
416.459	1560
416.535	1375
416.612	437
416.688	1076
416.764	1393
416.841	856
416.917	1034
416.993	1835
417.069	666
417.146	184
417.222	601
417.298	1316
417.374	800
417.451	1952
417.527	944
417.603	1664
417.679	1461
417.755	1409
417.831	408
417.908	1867
417.984	1649
418.060	902
418.136	1271
418.212	1196
418.288	2054
418.364	1999
418.440	1825
418.516	2122
418.592	1327
418.668	1681
418.744	1071
418.820	2089
418.896	2497
418.972	1185
419.048	1643
419.124	3584
419.200	1305
419.276	2383
419.352	1348
419.428	2764
419.504	1833
419.579	2739
419.655	2145
419.731	3237
419.807	3049
419.883	3270
419.959	2159
420.034	3823
420.110	3182
420.186	3383
420.262	3931
420.337	3897
420.413	4086
420.489	4679
420.565	5719
420.640	5265
420.716	5737
420.792	5376
420.867	6709
420.943	7045
421.019	7239
421.094	7324
421.170	8875
421.245	9324
421.321	10616
421.397	11781
421.472	18703
421.548	29358
421.623	22221
421.699	17643
421.774	19401
421.850	23013
421.925	26003
422.001	31718
422.076	38256
422.152	45999
422.227	57227
422.302	72898
422.378	91799
422.453	120066
422.529	144177
422.604	134287
422.679	105300
422.755	136010
422.830	142237
422.905	116196
422.981	93053
423.056	75427
423.131	60828
423.207	48769
423.282	40303
423.357	33503
423.432	28584
423.508	25099
423.583	22139
423.658	19316
423.733	16020
423.808	15791
423.883	15192
423.959	14995
424.034	16639
424.109	14524
424.184	11536
424.259	9829
424.334	9137
424.409	8580
424.484	7911
424.559	7029
424.634	6112
424.709	6423
424.784	5771
424.859	6089
424.934	4233
425.009	4544
425.084	5596
425.159	4015
425.234	5397
425.309	3969
425.384	5152
425.459	3241
425.534	4355
425.609	3852
425.683	3457
425.758	3807
425.833	3078
425.908	3867
425.983	2764
426.058	4433
426.132	3053
426.207	2501
426.282	4425
426.357	2551
426.431	3431
426.506	2742
426.581	2917
426.655	3746
426.730	2040
426.805	1419
426.879	3176
426.954	2416
427.029	1854
427.103	2871
427.178	3117
427.253	2381
427.327	2109
427.402	1603
427.476	1919
427.551	2077
427.625	1524
427.700	2674
427.774	517
427.849	2272
427.923	1933
427.998	2319
428.072	3011
428.147	7606
428.221	26645
428.296	64536
428.370	35089
428.444	7315
428.519	3321
428.593	3135
428.667	2858
428.742	4240
428.816	11424
428.890	43132
428.965	56427
429.039	16109
429.113	5017
429.188	2617
429.262	2856
429.336	2710
429.410	2151
429.485	2683
429.559	2606
429.633	2879
429.707	3790
429.781	10882
429.855	40665
429.930	51188
430.004	16228
430.078	12565
430.152	33576
430.226	86447
430.300	78138
430.374	23814
430.448	9136
430.522	5711
430.596	5564
430.670	16978
430.744	52080
430.818	49795
430.892	11494
430.966	3518
431.040	2721
431.114	1484
431.188	1377
431.262	1295
431.336	490
431.410	1463
431.484	537
431.557	2355
431.631	2357
431.705	6029
431.779	21697
431.853	62978
431.927	40454
432.000	8729
432.074	3104
432.148	2092
432.222	811
432.295	1273
432.369	814
432.443	700
432.516	1523
432.590	1829
432.664	1279
432.737	479
432.811	58
432.885	959
432.958	1091
433.032	509
433.106	301
433.179	-20
433.253	457
433.326	457
433.400	631
433.473	110
433.547	-516
433.620	307
433.694	587
433.767	589
433.841	-49
433.914	912
433.988	545
434.061	434
434.134	187
434.208	272
434.281	582
434.355	-117
434.428	68
434.501	261
434.575	-287
434.648	280
434.721	219
434.795	-272
434.868	-209
434.941	445
435.014	70
435.088	178
435.161	616
435.234	1945
435.307	2002
435.381	3282
435.454	5211
435.527	9276
435.600	9987
435.673	8486
435.746	6786
435.819	5494
435.892	4335
435.966	2949
436.039	2021
436.112	2128
436.185	1471
436.258	611
436.331	227
436.404	1440
436.477	650
436.550	1209
436.623	391
436.696	312
436.769	-56
436.842	916
436.915	83
436.987	681
437.060	769
437.133	19
437.206	404
437.279	706
437.352	501
437.425	236
437.498	138
437.570	326
437.643	178
437.716	426
437.789	1
437.861	413
437.934	200
438.007	688
438.080	-200
438.152	849
438.225	344
438.298	1035
438.370	3548
438.443	2182
438.516	626
438.588	562
438.661	0
438.734	57
438.806	432
438.879	1010
438.951	63
439.024	453
439.096	671
439.169	292
439.241	191
439.314	-229
439.386	-20
439.459	962
439.531	-87
439.604	-74
439.676	94
439.749	258
439.821	1081
439.893	1550
439.966	370
440.038	577
440.110	196
440.183	303
440.255	269
440.327	1068
440.400	1529
440.472	2269
440.544	1725
440.617	864
440.689	1774
440.761	1128
440.833	285
440.905	415
440.978	233
441.050	532
441.122	757
441.194	735
441.266	851
441.338	930
441.411	960
441.483	1769
441.555	1273
441.627	1623
441.699	1297
441.771	1534
441.843	1059
441.915	1493
441.987	1551
442.059	2161
442.131	1908
442.203	3276
442.275	4798
442.347	8144
442.419	19022
442.491	62292
442.563	103454
442.635	49524
442.706	15619
442.778	7957
442.850	5240
442.922	4552
442.994	3896
443.066	5513
443.137	7062
443.209	10108
443.281	14167
443.353	29818
443.425	73911
443.496	151195
443.568	146208
443.640	75291
443.711	28046
443.783	13184
443.855	7880
443.926	5897
443.998	4779
444.070	4239
444.141	3509
444.213	3187
444.285	2356
444.356	2040
444.428	1955
444.499	2742
444.571	2320
444.642	3678
444.714	2683
444.785	3423
444.857	4517
444.928	4367
445.000	5400
445.071	7351
445.143	9597
445.214	15427
445.285	25232
445.357	52935
445.428	120654
445.500	168066
445.571	145322
445.642	108418
445.714	49885
445.785	21569
445.856	10678
445.928	6206
445.999	5789
446.070	3891
446.141	3735
446.213	3396
446.284	2516
446.355	2704
446.426	1222
446.497	1069
446.569	694
446.640	1041
446.711	1471
446.782	664
446.853	1026
446.924	207
446.995	1278
447.066	-119
447.138	546
447.209	1177
447.280	-418
447.351	140
447.422	-183
447.493	-36
447.564	-341
447.635	-312
447.706	434
447.777	-138
447.847	-580
447.918	-412
447.989	-229
448.060	-420
448.131	-257
448.202	-238
448.273	-203
448.344	-377
448.414	100
448.485	361
448.556	65
448.627	-170
448.698	392
448.768	306
448.839	-274
448.910	-297
448.981	55
449.051	665
449.122	-166
449.193	470
449.263	329
449.334	254
449.405	43
449.475	9
449.546	266
449.616	841
449.687	120
449.758	370
449.828	-402
449.899	-567
449.969	-155
450.040	-77
450.110	-687
450.181	-95
450.251	-38
450.322	-86
450.392	-101
450.463	-242
450.533	50
450.604	480
450.674	-88
450.744	424
450.815	103
450.885	927
450.955	1766
451.026	1013
451.096	433
451.166	475
451.237	788
451.307	1701
451.377	1166
451.447	116
451.518	38
451.588	708
451.658	-227
451.728	-399
451.799	-532
451.869	634
451.939	-93
452.009	541
452.079	157
452.149	538
452.219	377
452.289	333
452.360	592
452.430	1002
452.500	1399
452.570	5221
452.640	10091
452.710	24298
452.780	27398
452.850	17261
452.920	9188
452.990	5321
453.060	3202
453.129	1657
453.199	1206
453.269	1714
453.339	1147
453.409	586
453.479	161
453.549	648
453.619	292
453.688	68
453.758	-251
453.828	-185
453.898	-989
453.968	414
454.037	-345
454.087	-317
454.107	-323
454.168	-91
454.177	-79
454.247	-301
454.249	-303
454.316	-910
454.330	-805
454.386	-459
454.411	-565
454.456	-832
454.492	-488
454.525	-213
454.574	235
454.595	432
454.655	-610
454.665	-816
454.734	236
454.736	264
454.804	645
454.817	657
454.873	604
454.898	590
454.943	523
454.979	339
455.013	130
455.060	253
455.082	268
455.141	330
455.152	345
455.221	518
455.222	552
455.291	1624
455.303	2186
455.360	4174
455.384	5856
455.430	8113
455.465	6422
455.499	5034
455.546	2040
455.569	618
455.627	647
455.638	675
455.707	560
455.708	585
455.777	889
455.789	886
455.846	924
455.869	1058
455.916	1218
455.950	1023
455.985	770
456.031	775
456.054	796
456.112	963
456.124	961
456.193	1443
456.193	1426
456.262	1164
456.274	1347
456.332	2020
456.355	1763
456.401	1213
456.436	1332
456.470	1421
456.516	1316
456.540	1242
456.597	1299
456.609	1290
456.678	1669
456.678	1648
456.747	1052
456.759	1220
456.817	2104
456.840	2141
456.886	2046
456.920	2232
456.955	2420
457.001	2439
457.024	2390
457.082	2493
457.093	2510
457.162	2830
457.163	2852
457.232	3031
457.243	3039
457.301	2991
457.324	2917
457.370	2794
457.405	3665
457.439	4559
457.485	4608
457.508	4593
457.566	5141
457.577	5455
457.646	8832
457.647	8905
457.715	19074
457.727	21479
457.784	39574
457.808	51629
457.853	65854
457.889	76800
457.922	74873
457.969	54598
457.991	55474
458.050	62572
458.060	64970
458.129	104962
458.130	106196
458.198	105695
458.211	98944
458.267	62739
458.292	45412
458.336	32333
458.372	28707
458.405	34119
458.453	46984
458.474	58871
458.533	103106
458.543	106695
458.611	156978
458.614	158053
458.680	105852
458.694	88934
458.749	50158
458.775	35949
458.818	22450
458.855	17053
458.887	14075
458.936	11390
458.955	10604
459.016	8788
459.024	8561
459.093	7361
459.097	7329
459.162	6597
459.177	6525
459.230	6115
459.257	5804
459.299	5448
459.338	5394
459.368	5333
459.418	5166
459.437	5094
459.499	4912
459.505	4921
459.574	5043
459.579	5101
459.643	4942
459.659	4705
459.711	4815
459.740	5142
459.780	4703
459.820	4552
459.849	5035
459.900	5185
459.917	5000
459.981	4974
459.986	4957
460.054	4319
460.061	4293
460.123	4458
460.141	4670
460.191	5168
460.222	5230
460.260	5225
460.302	5352
460.328	5655
460.382	6201
460.397	6353
460.462	7307
460.465	7554
460.534	13734
460.543	14495
460.602	37243
460.623	46460
460.671	71157
460.703	93393
460.739	86236
460.783	68596
460.808	57216
460.864	17392
460.876	14405
460.944	7584
460.945	7504
461.013	5902
461.024	5684
461.081	5467
461.104	5437
461.150	5351
461.184	5215
461.218	5165
461.264	5635
461.286	5742
461.345	5101
461.355	4999
461.423	5348
461.425	5337
461.491	4747
461.505	4762
461.559	5073
461.585	5159
461.628	5025
461.665	5014
461.696	5148
461.745	5080
461.764	4983
461.825	4987
461.832	5070
461.901	5383
461.905	5457
461.969	5413
461.985	5219
462.037	5585
462.065	5869
462.105	5345
462.145	4932
462.173	5058
462.225	5418
462.241	5462
462.305	4961
462.310	4947
462.378	5152
462.385	5177
462.446	4939
462.465	4928
462.514	5306
462.545	5339
462.582	5075
462.625	4847
462.650	4905
462.705	5033
462.718	4982
462.785	4665
462.786	4675
462.854	5143
462.865	5184
462.922	4983
462.945	5105
462.990	5526
463.025	5552
463.058	5262
463.104	4994
463.126	5128
463.184	5782
463.194	5785
463.262	4961
463.264	4952
463.330	5192
463.344	5170
463.398	5944
463.424	6308
463.466	5625
463.504	5027
463.533	5343
463.583	5951
463.601	5849
463.663	5297
463.669	5329
463.737	5890
463.743	5905
463.805	6144
463.823	6278
463.873	6241
463.903	6109
463.940	5635
463.982	5212
464.008	5439
464.062	5861
464.076	5836
464.142	5682
464.144	5691
464.211	5655
464.221	5643
464.279	5755
464.301	5819
464.347	5671
464.381	5534
464.414	5513
464.461	5502
464.482	5594
464.540	5653
464.550	5602
464.617	5439
464.620	5422
464.685	5421
464.699	5383
464.753	5641
464.779	5859
464.820	6165
464.859	6294
464.888	5862
464.938	5119
464.956	5390
465.018	6450
465.023	6416
465.091	5758
465.098	5664
465.158	5558
465.177	5606
465.226	6127
465.257	6369
465.293	6431
465.336	6426
465.361	6544
465.416	6812
465.428	6804
465.495	6669
465.496	6677
465.563	5897
465.575	5747
465.631	5940
465.654	6042
465.698	6164
465.734	6140
465.765	6398
465.813	6768
465.833	6716
465.893	6602
465.900	6606
465.968	6569
465.972	6547
466.035	7211
466.052	7368
466.102	6740
466.131	6381
466.170	6464
466.210	6522
466.237	6680
466.290	6911
466.304	6857
466.369	6492
466.372	6524
466.439	7183
466.449	7253
466.506	6716
466.528	6478
466.573	6814
466.607	7032
466.641	7029
466.687	7091
466.708	7228
466.766	7425
466.775	7450
466.842	7608
466.845	7597
466.909	7532
466.925	7513
466.977	7730
467.004	7812
467.044	7470
467.083	7102
467.111	7403
467.163	7926
467.178	7890
467.242	7661
467.245	7682
467.312	7803
467.321	7805
467.379	7903
467.400	7915
467.446	8049
467.480	8120
467.559	8662
467.638	7901
467.717	8506
467.796	8802
467.875	9620
467.955	10122
468.034	11352
468.113	12782
468.192	15272
468.271	18263
468.350	24965
468.429	32362
468.508	33564
468.588	22764
468.667	14860
468.746	12061
468.825	10481
468.904	10306
468.983	9409
469.062	8645
469.141	9099
469.220	8586
469.299	8470
469.378	7092
469.456	9010
469.535	7706
469.614	7613
469.693	7390
469.772	8920
469.851	8050
469.930	8226
470.009	8007
470.088	8243
470.166	8244
470.245	8983
470.324	8321
470.403	8856
470.482	8239
470.560	8525
470.639	7650
470.718	8128
470.797	7994
470.875	7889
470.954	7165
471.033	8641
471.111	8313
471.190	7516
471.269	8160
471.347	7261
471.426	7872
471.505	7454
471.583	7733
471.662	7604
471.740	7555
471.819	7791
471.898	7092
471.976	7116
472.055	7998
472.133	9858
472.212	12268
472.290	9070
472.369	6962
472.447	8001
472.526	7689
472.604	8955
472.683	8007
472.761	6941
472.839	7722
472.918	8515
472.996	8125
473.075	8226
473.153	8724
473.231	8264
473.310	8816
473.388	8562
473.466	8039
473.545	8596
473.623	8630
473.701	8391
473.780	8807
473.858	7430
473.936	10358
474.014	9276
474.093	11278
474.171	12647
474.249	9763
474.327	8323
474.405	7880
474.484	9092
474.562	8209
474.640	8278
474.718	8038
474.796	8128
474.874	7773
474.952	8251
475.030	8242
475.108	7538
475.187	8575
475.265	8512
475.343	9460
475.421	9720
475.499	7861
475.577	7368
475.655	8931
475.733	8235
475.811	7482
475.889	8247
475.966	8285
476.044	7781
476.122	8489
476.200	8431
476.278	8366
476.356	7718
476.434	8292
476.512	8269
476.590	8625
476.667	9451
476.745	8658
476.823	7519
476.901	8578
476.979	8080
477.056	8156
477.134	7613
477.212	7119
477.290	8180
477.367	6691
477.445	7554
477.523	7700
477.601	7610
477.678	7970
477.756	7893
477.834	8046
477.911	7900
477.989	8427
478.066	8291
478.144	7273
478.222	8007
478.299	10593
478.377	12231
478.454	10883
478.532	7654
478.609	7261
478.687	8158
478.764	7585
478.842	7727
478.919	7563
478.997	8362
479.074	8180
479.152	7825
479.229	7634
479.307	7561
479.384	8372
479.461	8011
479.539	7752
479.616	7150
479.694	7856
479.771	8405
479.848	7505
479.926	7018
480.003	9198
480.080	7492
480.157	8408
480.235	7943
480.312	8074
480.389	7789
480.467	8481
480.544	8480
480.621	9463
480.698	9767
480.775	9121
480.853	8614
480.930	8860
481.007	9359
481.084	15731
481.161	25271
481.238	15521
481.315	8720
481.392	8387
481.470	8653
481.547	8977
481.624	8078
481.701	8803
481.778	9099
481.855	9246
481.932	9415
482.009	9838
482.086	10465
482.163	11716
482.240	13226
482.317	14856
482.393	13528
482.470	11567
482.547	11933
482.624	10483
482.701	10644
482.778	11003
482.855	10241
482.932	10904
483.009	11315
483.085	14816
483.162	21010
483.239	20113
483.316	12653
483.393	14510
483.469	11992
483.546	11504
483.623	10884
483.699	9633
483.776	9009
483.853	9227
483.930	9278
484.006	9047
484.083	10476
484.160	9825
484.236	10691
484.313	9755
484.389	10693
484.466	12888
484.543	15174
484.619	18174
484.696	19596
484.772	13723
484.849	10450
484.925	10498
485.002	9789
485.078	9552
485.155	8629
485.231	8165
485.308	8770
485.384	8435
485.461	9539
485.537	8333
485.614	7997
485.690	8760
485.766	8151
485.843	7979
485.919	7492
485.995	7921
486.072	7706
486.148	7835
486.224	7779
486.301	7073
486.377	7890
486.453	6281
486.530	8450
486.606	9042
486.682	8812
486.758	9834
486.835	10027
486.911	10522
486.987	11042
487.063	12022
487.139	16848
487.215	23803
487.292	24174
487.368	20583
487.444	25988
487.520	37764
487.596	60310
487.672	116540
487.748	324075
487.824	510459
487.900	221632
487.976	71203
488.052	36309
488.128	25352
488.204	18073
488.280	15442
488.356	13751
488.432	11696
488.508	11739
488.584	9992
488.660	10068
488.736	9747
488.812	8690
488.888	9023
488.964	8100
489.039	8285
489.115	11001
489.191	12120
489.267	9805
489.343	7734
489.418	8343
489.494	7601
489.570	7116
489.646	8978
489.722	7332
489.797	7656
489.873	8772
489.949	8879
490.024	8303
490.100	8117
490.176	7263
490.251	8657
490.327	7816
490.403	6988
490.478	8000
490.554	8709
490.629	8041
490.705	8873
490.781	8134
490.856	7522
490.932	7848
491.007	7125
491.083	6937
491.158	6910
491.234	7942
491.309	7371
491.385	6445
491.460	7128
491.536	7942
491.611	7083
491.686	8107
491.762	6613
491.837	7074
491.913	7094
491.988	7883
492.063	7267
492.139	7197
492.214	6769
492.289	6725
492.365	6149
492.440	7047
492.515	6277
492.590	6883
492.666	6477
492.741	7069
492.816	6736
492.891	6751
492.967	7020
493.042	7105
493.117	6840
493.192	7997
493.267	9464
493.342	22651
493.418	28685
493.493	8085
493.568	7085
493.643	6542
493.718	7565
493.793	5479
493.868	6056
493.943	6714
494.018	6662
494.093	6158
494.168	6348
494.243	5608
494.318	6518
494.393	6082
494.468	6037
494.543	6978
494.618	6261
494.693	5737
494.768	5683
494.842	6051
494.917	6449
494.992	6937
495.067	5862
495.142	5793
495.217	5414
495.292	5441
495.366	5432
495.441	4964
495.516	5620
495.591	5655
495.665	7687
495.740	8640
495.815	6994
495.890	5450
495.964	4970
496.039	8984
496.114	10753
496.188	22690
496.263	16597
496.338	6886
496.412	5565
496.487	6166
496.561	6462
496.636	6410
496.710	7435
496.785	8906
496.860	5663
496.934	6409
497.009	5423
497.083	5942
497.158	5049
497.232	5967
497.307	7191
497.381	5968
497.455	6553
497.530	5743
497.604	5902
497.679	5448
497.753	6349
497.827	4140
497.902	5621
497.976	5021
498.050	6055
498.125	6133
498.199	6276
498.273	5949
498.348	6233
498.422	5810
498.496	6793
498.570	6660
498.645	5047
498.719	4117
498.793	6106
498.867	6366
498.941	5681
499.016	5171
499.090	5058
499.164	6048
499.238	6594
499.312	6265
499.386	6310
499.460	6794
499.534	6493
499.609	6060
499.683	6051
499.757	7052
499.831	7193
499.905	5894
499.979	5752
500.053	5912
500.127	5642
500.201	5215
500.275	7219
500.349	6340
500.422	5208
500.496	6353
500.570	6814
500.644	6489
500.718	6352
500.792	7005
500.866	6861
500.940	6587
501.013	6514
501.087	5858
501.161	7034
501.235	4294
501.309	7985
501.382	5561
501.456	6357
501.530	6293
501.603	5948
501.677	6753
501.751	4714
501.825	7941
501.898	6165
501.972	5886
502.046	5961
502.119	5950
502.193	6380
502.266	5825
502.340	6389
502.413	6137
502.487	5934
502.561	5283
502.634	6489
502.708	7157
502.781	5689
502.855	7270
502.928	5925
503.002	6137
503.075	5947
503.149	6390
503.222	6343
503.295	7030
503.369	8787
503.442	7933
503.516	9906
503.589	10684
503.662	11266
503.736	14481
503.809	20254
503.882	25498
503.956	38059
504.029	73445
504.102	192267
504.175	286424
504.249	133214
504.322	52401
504.395	29818
504.468	19581
504.542	14080
504.615	10688
504.688	10437
504.761	7243
504.834	9660
504.907	7969
504.980	6793
505.053	5924
505.127	5204
505.200	9415
505.273	6087
505.346	5575
505.419	5278
505.492	7444
505.565	5726
505.638	6721
505.711	5309
505.784	4365
505.857	4747
505.930	7268
506.003	4474
506.076	6727
506.149	4439
506.221	3158
506.294	6080
506.367	3441
506.440	4370
506.513	5212
506.586	5590
506.659	4470
506.731	5243
506.804	5164
506.877	4195
506.950	4541
507.022	6133
507.095	3659
507.168	5333
507.241	5527
507.313	4343
507.386	3577
507.459	5858
507.531	3441
507.604	3443
507.677	6064
507.749	3467
507.822	5618
507.894	3481
507.967	5394
508.040	4140
508.112	4956
508.185	4601
508.257	3746
508.330	5711
508.402	3376
508.475	4375
508.547	4918
508.620	4307
508.692	4744
508.765	4574
508.837	4578
508.909	4784
508.982	4398
509.054	4261
509.127	4034
509.199	4894
509.271	3504
509.344	4808
509.416	5465
509.488	4523
509.560	4555
509.633	4678
509.705	4535
509.777	3911
509.849	4624
509.922	3735
509.994	4235
510.066	3953
510.138	2537
510.210	5747
510.283	4375
510.355	4234
510.427	4013
510.499	4070
510.571	4532
510.643	3439
510.715	5256
510.787	3234
510.859	4949
510.931	4554
511.003	4363
511.076	5225
511.148	3797
511.219	3343
511.291	4978
511.363	5324
511.435	4604
511.507	3122
511.579	3848
511.651	5465
511.723	3486
511.795	4496
511.867	4800
511.939	4665
512.010	3810
512.082	4791
512.154	3642
512.226	3782
512.298	5000
512.369	3294
512.441	5188
512.513	4806
512.585	3465
512.656	5670
512.728	3177
512.800	4568
512.871	5455
512.943	4677
513.015	3425
513.086	5288
513.158	4586
513.230	3789
513.301	3414
513.373	4686
513.444	4607
513.516	4193
513.588	3956
513.659	4521
513.731	4007
513.802	2380
513.874	6205
513.945	3984
514.016	4004
514.088	5002
514.159	3099
514.231	4930
514.302	4523
514.374	4301
514.445	2309
514.516	6260
514.588	4315
514.659	4529
514.730	3511
514.802	5304
514.873	2314
514.944	6494
515.016	4978
515.087	4407
515.158	3798
515.229	5890
515.301	3090
515.372	5100
515.443	3954
515.514	4757
515.585	5246
515.656	6121
515.728	6439
515.799	3386
515.870	5311
515.941	5112
516.012	3227
516.083	5561
516.154	3098
516.225	5114
516.296	6013
516.367	5129
516.438	5213
516.509	5245
516.580	5590
516.651	10345
516.722	19002
516.793	11642
516.864	5421
516.935	6472
517.006	6586
517.077	7777
517.148	9430
517.219	27499
517.289	41428
517.360	9196
517.431	7252
517.502	5097
517.573	6511
517.643	6050
517.714	5276
517.785	6849
517.856	6592
517.926	9157
517.997	9803
518.068	8360
518.138	12931
518.209	13862
518.280	27193
518.350	78264
518.421	41152
518.492	26598
518.562	31778
518.633	44146
518.703	68788
518.774	148243
518.845	334021
518.915	314926
518.986	107903
519.056	48157
519.127	29165
519.197	19840
519.268	15083
519.338	13488
519.408	9570
519.479	9655
519.549	7440
519.620	8906
519.690	7266
519.760	6625
519.831	6395
519.901	5721
519.971	6558
520.042	5013
520.112	5110
520.182	5626
520.253	6048
520.323	5101
520.393	4559
520.463	7274
520.534	2676
520.604	7418
520.674	6331
520.744	4387
520.814	5386
520.885	5669
520.955	4760
521.025	4476
521.095	4940
521.165	5940
521.235	4529
521.305	4223
521.375	5903
521.445	6585
521.515	4303
521.585	6346
521.655	3601
521.725	5904
521.795	6285
521.865	2427
521.935	7171
522.005	4776
522.075	4999
522.145	6937
522.215	5525
522.285	5411
522.355	5280
522.424	6058
522.494	4965
522.564	5508
522.634	6775
522.704	7346
522.774	4411
522.843	6999
522.913	6427
522.983	5170
523.053	4912
523.122	6613
523.192	5236
523.262	5115
523.331	5487
523.401	6222
523.471	5607
523.540	6355
523.610	4620
523.680	6724
523.749	6485
523.819	8408
523.888	9055
523.958	7111
524.027	6096
524.097	5684
524.166	5783
524.236	4953
524.305	7403
524.375	5352
524.444	4599
524.514	7931
524.583	5381
524.653	6048
524.722	7198
524.791	5733
524.861	8498
524.930	6548
524.999	7208
525.069	8136
525.138	7280
525.207	7101
525.277	8454
525.346	9098
525.415	11623
525.484	11492
525.554	11616
525.623	17469
525.692	24066
525.761	24741
525.830	29473
525.900	37703
525.969	59384
526.038	113262
526.107	209035
526.176	546565
526.245	441527
526.314	149148
526.383	288174
526.452	387412
526.522	476105
526.591	446352
526.660	102972
526.729	59847
526.797	61136
526.867	83350
526.935	208012
527.004	625326
527.073	445504
527.142	94204
527.211	40146
527.280	26879
527.349	20104
527.418	14733
527.487	14837
527.555	11231
527.624	10846
527.693	9027
527.762	10601
527.831	8269
527.899	10017
527.968	8959
528.037	7447
528.106	8894
528.174	7418
528.243	7886
528.312	7314
528.380	7232
528.449	6539
528.518	8182
528.586	5800
528.655	8602
528.723	7056
528.792	6921
528.861	6510
528.929	5977
528.998	8232
529.066	6297
529.135	6935
529.203	6524
529.272	6288
529.340	7191
529.409	7980
529.477	5884
529.545	5106
529.614	8841
529.682	4601
529.751	5585
529.819	9404
529.887	6664
529.956	6165
530.024	7266
530.092	6210
530.161	7523
530.229	7116
530.297	6197
530.365	8244
530.434	7699
530.502	6711
530.570	6519
530.638	5792
530.707	7686
530.775	8953
530.843	7074
530.911	7080
530.979	8500
531.047	6643
531.115	7807
531.183	7465
531.252	7679
531.320	7843
531.388	6751
531.456	8100
531.524	6828
531.592	8204
531.660	10644
531.728	6988
531.796	7673
531.864	8193
531.932	7707
532.000	7306
532.067	6647
532.135	8747
532.203	10351
532.271	9366
532.339	10236
532.407	10878
532.475	10877
532.542	10331
532.610	9933
532.678	8731
532.746	12468
532.814	13552
532.881	11190
532.949	11687
533.017	10967
533.084	9353
533.152	9122
533.220	10032
533.287	8351
533.355	9671
533.423	10221
533.490	10111
533.558	10570
533.625	11018
533.693	11083
533.761	10691
533.828	10595
533.896	9583
533.963	12461
534.031	12779
534.098	14967
534.166	17378
534.233	16217
534.300	20029
534.368	18979
534.435	18201
534.503	20279
534.570	22159
534.637	24587
534.705	26735
534.772	32452
534.840	60581
534.907	232315
534.974	286716
535.041	51411
535.109	25841
535.176	20278
535.243	18401
535.310	19791
535.378	17372
535.445	17514
535.512	18854
535.579	17994
535.646	17197
535.714	18722
535.781	19582
535.848	19579
535.915	20718
535.982	17352
536.049	17880
536.116	19374
536.183	17628
536.250	18141
536.317	17354
536.384	19028
536.451	19978
536.518	20304
536.585	18708
536.652	20560
536.719	20426
536.786	17630
536.853	18646
536.920	20317
536.987	19081
537.053	18394
537.120	21519
537.187	21490
537.254	21364
537.321	21030
537.388	22512
537.454	20754
537.521	20637
537.588	20444
537.654	22626
537.721	23181
537.788	22846
537.855	20724
537.921	22447
537.988	20308
538.055	20142
538.121	19004
538.188	18228
538.254	17888
538.321	18706
538.388	20725
538.454	23307
538.521	23948
538.587	24324
538.654	23027
538.720	22244
538.787	21291
538.853	22620
538.920	21228
538.986	19023
539.053	19314
539.119	19928
539.185	20874
539.252	23144
539.318	22540
539.385	26054
539.451	22530
539.517	23124
539.583	22407
539.650	22106
539.716	21632
539.782	21280
539.849	20239
539.915	22045
539.981	20866
540.047	20143
540.114	21816
540.180	22128
540.246	22249
540.312	24679
540.378	22896
540.444	23986
540.510	23278
540.576	24788
540.643	21933
540.709	20496
540.775	21582
540.841	21854
540.907	21190
540.973	21190
541.039	21279
541.105	22342
541.171	23314
541.237	24299
541.303	24031
541.369	25461
541.435	23668
541.500	23074
541.566	20907
541.632	20520
541.698	22034
541.764	24159
541.830	22506
541.896	21757
541.961	23097
542.027	21998
542.093	24131
542.159	24636
542.224	21686
542.290	23757
542.356	21732
542.421	22660
542.487	21007
542.553	19500
542.618	21248
542.684	20478
542.750	22215
542.815	23479
542.881	21803
542.947	24395
543.012	24286
543.078	21524
543.143	20540
543.209	21646
543.274	20778
543.340	23141
543.405	23386
543.471	22634
543.536	23276
543.602	23843
543.667	21832
543.732	23434
543.798	22446
543.863	23866
543.928	23496
543.994	22742
544.059	23270
544.124	24993
544.190	24763
544.255	26735
544.320	25811
544.386	24338
544.451	26613
544.516	25551
544.581	24955
544.646	26446
544.712	27678
544.777	27547
544.842	26402
544.907	25562
544.972	26725
545.037	27735
545.102	29380
545.168	28338
545.233	29173
545.298	29886
545.363	29358
545.428	30230
545.493	32076
545.558	29927
545.623	30979
545.688	31067
545.753	33118
545.818	33913
545.883	36398
545.947	36142
546.012	36951
546.077	37807
546.142	41973
546.207	41886
546.272	44980
546.337	45986
546.401	48012
546.466	50435
546.531	50678
546.596	55543
546.661	57722
546.725	61056
546.790	65016
546.855	71273
546.919	75984
546.984	84427
547.049	90933
547.113	102649
547.178	114183
547.243	127304
547.307	145785
547.372	161532
547.436	162832
547.501	171755
547.565	183957
547.630	169985
547.695	163241
547.759	164607
547.823	165928
547.888	169703
547.952	174956
548.017	182821
548.081	191219
548.146	183292
548.210	185439
548.274	200077
548.339	198838
548.403	180977
548.468	171048
548.532	169011
548.596	170730
548.660	174053
548.725	186082
548.789	200479
548.853	197622
548.917	187578
548.982	185997
549.046	166475
549.110	152688
549.174	156638
549.238	179835
549.303	196770
549.367	202621
549.431	192945
549.495	181634
549.559	180616
549.623	205890
549.687	226142
549.751	218048
549.815	257978
549.879	261691
549.943	254009
550.007	264553
550.071	261911
550.135	235217
550.199	227253
550.263	224985
550.327	213662
550.391	220244
550.455	240575
550.519	251342
550.582	261991
550.646	292072
550.710	296650
550.774	292687
550.838	292710
550.901	303736
550.965	316667
551.029	324909
551.093	343132
551.156	363990
551.220	380794
551.284	388637
551.347	341217
551.411	310427
551.475	300636
551.538	314440
551.602	294716
551.666	283482
551.729	270279
551.793	262341
551.856	259138
551.920	255974
551.983	253471
552.047	253595
552.110	253132
552.174	256806
552.237	262388
552.301	244622
552.364	234132
552.428	229311
552.491	234766
552.554	239271
552.618	238927
552.681	242227
552.745	231321
552.808	238447
552.871	248545
552.934	245951
552.998	238419
553.061	235902
553.124	228685
553.187	227201
553.251	233130
553.314	231381
553.377	231804
553.440	249407
553.503	267750
553.567	278017
553.630	254229
553.693	248688
553.756	250610
553.819	244495
553.882	237942
553.945	237457
554.008	240146
554.071	240409
554.134	243456
554.197	230568
554.260	227278
554.323	230764
554.386	231840
554.449	240969
554.512	239972
554.575	229262
554.638	230070
554.701	226654
554.764	228319
554.827	219313
554.889	213839
554.952	202251
555.015	198912
555.078	199404
555.141	204465
555.203	199772
555.266	199414
555.329	198111
555.391	190585
555.454	189659
555.517	183203
555.580	176314
555.642	170629
555.705	169270
555.768	167932
555.830	163285
555.893	154770
555.955	151114
556.018	148095
556.080	147996
556.143	151991
556.206	151513
556.268	146775
556.330	143436
556.393	141227
556.455	137185
556.518	135616
556.580	129730
556.643	124772
556.705	124682
556.767	120411
556.830	119825
556.892	118198
556.955	114677
557.017	112978
557.079	112189
557.142	106852
557.204	105754
557.266	104340
557.328	99708
557.391	94258
557.453	92182
557.515	90769
557.577	93320
557.639	91987
557.701	91973
557.764	90242
557.826	92100
557.888	91974
557.950	93991
558.012	98585
558.074	114304
558.136	192357
558.198	372563
558.260	176290
558.322	96322
558.384	92721
558.446	94731
558.508	97851
558.570	104850
558.632	115353
558.694	138584
558.756	204246
558.818	432946
558.880	754227
558.942	427154
559.003	406265
559.065	228272
559.127	112642
559.189	103661
559.251	111127
559.312	142761
559.374	263309
559.436	595402
559.498	371904
559.559	128918
559.621	103168
559.683	110437
559.744	156014
559.806	362141
559.868	496749
559.929	167631
559.991	113068
560.052	153369
560.114	350026
560.176	249975
560.237	220939
560.299	325400
560.360	102603
560.422	54977
560.483	47902
560.545	45582
560.606	42953
560.667	41379
560.729	40300
560.790	38317
560.852	37961
560.913	37361
560.974	36560
561.036	36319
561.097	36076
561.158	35771
561.220	35006
561.281	32739
561.342	31963
561.403	33528
561.465	31103
561.526	33405
561.587	31682
561.648	31456
561.709	29820
561.771	30568
561.832	29880
561.893	29261
561.954	28578
562.015	28855
562.076	28248
562.137	27392
562.198	28402
562.259	27565
562.320	27997
562.381	27986
562.442	28161
562.503	26347
562.564	26767
562.625	26005
562.686	25982
562.747	25306
562.808	25572
562.869	25038
562.930	25294
562.991	23697
563.051	23883
563.112	24310
563.173	24042
563.234	23207
563.294	23860
563.355	24043
563.416	23333
563.477	22882
563.537	22817
563.598	23189
563.659	22979
563.720	22376
563.780	21668
563.841	22482
563.901	23031
563.962	22040
564.023	22011
564.083	22219
564.144	22463
564.204	21974
564.265	21484
564.325	20151
564.386	21267
564.446	21354
564.507	21269
564.567	20048
564.628	20510
564.688	20517
564.749	20442
564.809	21436
564.869	21766
564.930	20524
564.990	22111
565.050	19985
565.111	20627
565.171	20311
565.231	20205
565.292	21152
565.352	19387
565.412	20546
565.472	20169
565.532	21537
565.593	20059
565.653	20518
565.713	20385
565.773	21180
565.833	21202
565.893	22007
565.953	21146
566.013	19516
566.074	18880
566.134	19806
566.194	18793
566.254	19904
566.314	18615
566.374	18837
566.434	19593
566.494	19286
566.554	19972
566.614	19295
566.673	19924
566.733	21077
566.793	20987
566.853	20660
566.913	20041
566.973	19813
567.033	20320
567.092	19487
567.152	20626
567.212	20722
567.272	20368
567.331	20606
567.391	22167
567.451	21378
567.511	22403
567.570	21764
567.630	21477
567.690	21074
567.749	20339
567.809	20257
567.868	20343
567.928	19444
567.988	20000
568.047	21567
568.107	21288
568.166	20852
568.226	20540
568.285	20178
568.345	21418
568.404	22000
568.464	21457
568.523	19896
568.582	20103
568.642	20586
568.701	19767
568.761	19612
568.820	19265
568.879	19451
568.939	19915
568.998	20049
569.057	19461
569.116	19526
569.176	20383
569.235	20947
569.294	20277
569.353	19276
569.413	19712
569.472	19376
569.531	18679
569.590	19072
569.649	20248
569.708	18698
569.767	19507
569.827	19948
569.886	19143
569.945	19451
570.004	20657
570.063	20595
570.122	20475
570.181	20400
570.240	21995
570.299	20024
570.358	21308
570.417	21293
570.475	21914
570.534	21624
570.593	20817
570.652	21657
570.711	21641
570.770	20225
570.829	20229
570.887	22012
570.946	22234
571.005	21091
571.064	20981
571.122	21504
571.181	20789
571.240	19684
571.299	19671
571.357	20476
571.416	20212
571.475	19533
571.533	21002
571.592	22075
571.650	22412
571.709	22272
571.768	23136
571.826	24938
571.885	23362
571.943	22383
572.002	20973
572.060	21868
572.119	20686
572.177	20531
572.236	20985
572.294	21820
572.352	22605
572.411	21252
572.469	20876
572.528	21015
572.586	20311
572.644	19805
572.703	20366
572.761	19064
572.819	19778
572.877	18743
572.936	19043
572.994	18124
573.052	18439
573.110	19820
573.169	20334
573.227	20535
573.285	19379
573.343	19734
573.401	19053
573.459	19532
573.517	19109
573.576	20292
573.634	20172
573.692	18955
573.750	19670
573.808	18076
573.866	18451
573.924	18427
573.982	18719
574.040	17967
574.098	18851
574.155	18057
574.213	18359
574.271	17968
574.329	19830
574.387	18385
574.445	18304
574.503	17678
574.560	16145
574.618	16744
574.676	17442
574.734	17233
574.792	17127
574.849	16877
574.907	16176
574.965	14930
575.022	14772
575.080	14526
575.138	14580
575.195	14507
575.253	14701
575.311	15150
575.368	14926
575.426	14504
575.483	14690
575.541	15015
575.598	15337
575.656	15010
575.713	14422
575.771	14934
575.828	15332
575.886	13742
575.943	15116
576.001	13732
576.058	14129
576.115	12555
576.173	14713
576.230	14681
576.287	14221
576.345	15072
576.402	14346
576.459	15039
576.517	12997
576.574	13912
576.631	14157
576.688	12777
576.746	13484
576.803	13767
576.860	12595
576.917	13876
576.974	14229
577.031	14757
577.089	13824
577.146	12754
577.203	14098
577.260	12780
577.317	12475
577.374	12395
577.431	13717
577.488	13608
577.545	13458
577.602	13669
577.659	13329
577.716	14204
577.773	13923
577.830	13762
577.886	13678
577.943	12728
578.000	12934
578.057	12838
578.114	12614
578.171	13048
578.227	12362
578.284	12744
578.341	13736
578.398	12553
578.454	12613
578.511	14260
578.568	13297
578.625	12817
578.681	12861
578.738	13111
578.794	13637
578.851	12994
578.908	12631
578.964	12592
579.021	13584
579.077	13357
579.134	13702
579.190	13637
579.247	13288
579.303	13190
579.360	13508
579.416	14002
579.473	13042
579.529	13272
579.586	12204
579.642	14153
579.698	13637
579.755	12984
579.811	14310
579.867	13932
579.924	13203
579.980	13230
580.036	14272
580.093	14269
580.149	13096
580.205	14031
580.261	14436
580.317	14500
580.374	14048
580.430	15211
580.486	14721
580.542	13914
580.598	14257
580.619	14024
580.654	13632
580.692	13944
580.710	14121
580.765	15004
580.767	15043
580.823	15624
580.838	15373
580.879	14763
580.911	15141
580.935	15432
580.984	14471
580.991	14356
581.047	14910
581.057	15069
581.103	15802
581.130	14788
581.159	13742
581.203	14102
581.215	14213
581.270	13231
581.276	13270
581.326	13722
581.349	13839
581.382	14029
581.422	14413
581.438	14588
581.494	14883
581.494	14872
581.550	14363
581.567	14568
581.606	14986
581.640	14659
581.661	14464
581.713	13900
581.717	13868
581.773	14476
581.786	14492
581.829	14492
581.859	14343
581.885	14292
581.932	14413
581.940	14427
581.996	15186
582.004	15175
582.052	15111
582.077	14782
582.107	14380
582.150	14609
582.163	14678
582.219	13879
582.223	13929
582.274	14678
582.296	14379
582.330	13924
582.368	14352
582.386	14555
582.441	14353
582.441	14353
582.497	14887
582.514	14785
582.552	14643
582.587	14760
582.608	14826
582.659	15444
582.663	15481
582.719	14439
582.732	14347
582.774	14259
582.805	14452
582.830	14597
582.877	14436
582.885	14400
582.941	14515
582.950	14433
582.996	13950
583.023	13737
583.052	13686
583.095	14561
583.107	14739
583.162	14439
583.168	14477
583.218	14683
583.240	14136
583.273	13425
583.313	13806
583.328	14073
583.384	15177
583.385	15162
583.439	13840
583.458	13836
583.494	14324
583.531	14188
583.549	14101
583.603	14716
583.605	14726
583.660	13908
583.676	14299
583.715	15432
583.748	15548
583.770	15580
583.820	14987
583.825	14922
583.881	14798
583.893	14819
583.936	15144
583.965	15258
583.991	15284
584.038	15366
584.046	15391
584.101	15341
584.110	15399
584.156	15527
584.183	15522
584.211	15654
584.255	16086
584.266	16207
584.321	16579
584.328	16515
584.376	15920
584.400	16166
584.431	16341
584.472	16632
584.486	16855
584.541	17524
584.545	17537
584.596	17516
584.617	17691
584.651	18348
584.689	19036
584.706	19153
584.761	19235
584.762	19232
584.816	19623
584.834	20057
584.871	21015
584.906	21113
584.926	21031
584.978	22449
584.980	22534
585.035	23909
585.051	24479
585.090	26025
585.123	27799
585.145	28923
585.195	30466
585.200	30691
585.254	35101
585.267	36215
585.309	39716
585.340	42414
585.364	45042
585.412	52667
585.419	53889
585.473	64208
585.484	67210
585.528	83482
585.556	100475
585.583	127349
585.628	191522
585.637	211583
585.692	383210
585.700	411339
585.747	512481
585.772	455099
585.801	330891
585.845	165963
585.856	138152
585.910	77652
585.917	72353
585.965	54001
585.989	48077
586.019	43884
586.061	39769
586.074	38684
586.128	34983
586.133	34727
586.183	33065
586.205	32903
586.237	33236
586.277	32669
586.292	32359
586.346	31959
586.349	31931
586.401	32209
586.421	32373
586.455	32421
586.493	31932
586.509	31923
586.564	32074
586.565	32075
586.618	33426
586.637	34174
586.672	37188
586.709	40763
586.727	42121
586.781	45339
586.781	45362
586.835	40250
586.853	38909
586.889	36598
586.925	34741
586.944	34388
586.996	33638
586.998	33649
587.052	33642
587.068	33784
587.106	34710
587.140	35191
587.161	35343
587.212	35081
587.215	35126
587.269	35940
587.284	36188
587.323	36843
587.356	37514
587.377	37930
587.427	38324
587.431	38379
587.485	38742
587.499	38717
587.539	39633
587.571	40556
587.593	41354
587.643	43556
587.648	43762
587.702	44953
587.715	45102
587.755	44536
587.786	44221
587.810	44662
587.858	45227
587.864	45272
587.917	44838
587.930	44746
587.971	45198
588.001	45564
588.025	45535
588.073	45192
588.079	45237
588.133	44966
588.145	44958
588.187	45002
588.217	44823
588.241	45158
588.288	45917
588.295	46081
588.348	47055
588.360	47126
588.402	46774
588.431	46257
588.456	46265
588.503	46781
588.510	47033
588.564	49096
588.575	49220
588.617	49909
588.646	50862
588.671	51719
588.718	53007
588.725	53331
588.778	56038
588.789	56609
588.832	64457
588.861	71203
588.886	89644
588.932	129407
588.939	133612
588.993	168697
589.004	167931
589.047	102497
589.075	66466
589.100	59422
589.147	51658
589.154	51477
589.207	50277
589.218	50011
589.261	51333
589.290	51877
589.314	51857
589.361	52428
589.368	53000
589.421	57155
589.433	58326
589.475	74356
589.504	86559
589.528	104348
589.576	144009
589.582	140982
589.635	91150
589.647	81044
589.689	62321
589.718	52187
589.742	52114
589.790	51709
589.795	51784
589.849	51809
589.861	51870
589.902	51739
589.932	51262
589.955	51641
590.004	52048
590.009	52187
590.062	53100
590.075	53201
590.115	52601
590.146	51939
590.168	52137
590.218	52182
590.222	52382
590.275	54509
590.289	54805
590.328	55465
590.360	55916
590.381	56302
590.431	57013
590.435	57173
590.488	58081
590.503	58218
590.541	59199
590.574	59937
590.594	60442
590.645	61420
590.647	61616
590.700	63826
590.716	64462
590.753	66318
590.787	67611
590.806	67900
590.859	68367
590.859	68518
590.912	70237
590.930	70710
590.965	71745
591.001	72619
591.018	72686
591.071	72031
591.072	71885
591.124	70314
591.143	69687
591.177	70167
591.214	70456
591.230	71139
591.283	73068
591.285	72988
591.336	71876
591.356	71458
591.389	71853
591.427	71684
591.442	71593
591.495	70892
591.498	70715
591.547	72187
591.569	72671
591.600	73793
591.640	74709
591.653	74783
591.706	74590
591.711	74433
591.759	76828
591.782	77821
591.811	80126
591.853	83119
591.864	83099
591.917	82003
591.924	81662
591.969	82128
591.995	82230
592.022	83232
592.066	84415
592.075	84848
592.127	86482
592.137	86594
592.180	87792
592.208	88291
592.233	89313
592.279	90788
592.285	91240
592.338	93440
592.350	93748
592.390	94855
592.421	95352
592.443	95513
592.491	95234
592.495	95542
592.548	97095
592.562	97324
592.600	96794
592.633	95965
592.653	96479
592.704	96769
592.705	97372
592.775	99776
592.846	103986
592.916	104378
592.987	106023
593.058	106290
593.128	109052
593.199	107767
593.270	109015
593.341	111152
593.411	116221
593.482	118751
593.553	122608
593.623	124155
593.694	128155
593.764	129099
593.835	129038
593.906	129850
593.976	134714
594.047	135945
594.117	142730
594.188	146435
594.258	146540
594.329	145305
594.399	149300
594.470	155205
594.540	159782
594.611	160506
594.681	160939
594.751	162360
594.822	166382
594.892	171342
594.963	178119
595.033	180086
595.103	187449
595.174	187608
595.244	192405
595.314	197829
595.384	204230
595.455	209933
595.525	215116
595.595	222237
595.665	223125
595.736	217031
595.806	222698
595.876	223745
595.946	225886
596.016	233595
596.087	244682
596.157	243156
596.227	243981
596.297	253182
596.367	272793
596.437	284167
596.507	282780
596.577	281670
596.647	294316
596.717	303587
596.787	310740
596.857	308128
596.927	310325
596.997	308278
597.067	315028
597.137	317657
597.207	320497
597.277	321323
597.347	310450
597.417	304112
597.487	304278
597.557	309901
597.626	316138
597.696	319612
597.766	318037
597.836	300068
597.906	286248
597.975	285246
598.045	288411
598.115	298739
598.185	317396
598.254	351423
598.324	376677
598.394	382174
598.464	371855
598.533	363992
598.603	342087
598.672	332628
598.742	339572
598.812	340313
598.881	351136
598.951	346299
599.020	355642
599.090	364163
599.159	366551
599.229	355182
599.299	348747
599.368	356686
599.437	353091
599.507	326303
599.576	316278
599.646	312747
599.715	308997
599.785	305114
599.854	299447
599.924	292248
599.993	294191
600.062	298301
600.132	306648
600.201	323693
600.270	370007
600.340	384786
600.409	379031
600.478	375085
600.547	382750
600.617	345645
600.686	284505
600.755	257488
600.824	244571
600.894	240149
600.963	240164
601.032	235790
601.101	229811
601.170	218984
601.239	214133
601.308	212052
601.378	213695
601.447	211487
601.516	214902
601.585	215280
601.654	217889
601.723	218396
601.792	224161
601.861	234020
601.930	238459
601.999	240202
602.068	238735
602.137	240426
602.206	244753
602.275	249296
602.343	250671
602.412	251514
602.481	253093
602.550	255739
602.619	262629
602.688	266792
602.756	265862
602.825	268427
602.894	276040
602.963	282316
603.032	285197
603.100	286467
603.169	286307
603.238	286902
603.307	293692
603.375	294057
603.444	298138
603.513	304613
603.581	306788
603.650	308325
603.719	306904
603.787	316107
603.856	326360
603.924	330185
603.993	341728
604.061	352400
604.130	366178
604.198	373423
604.267	378410
604.335	382984
604.404	391409
604.472	390842
604.541	397981
604.609	399151
604.678	401158
604.746	401615
604.815	410348
604.883	416138
604.951	417239
605.020	426265
605.088	435196
605.156	440969
605.225	450410
605.293	447307
605.361	446936
605.429	453233
605.498	460104
605.566	474002
605.634	491428
605.702	506947
605.771	516955
605.839	519302
605.907	511839
605.975	495778
606.043	490924
606.111	490168
606.180	488527
606.248	485434
606.316	481548
606.384	478950
606.452	485651
606.520	498535
606.588	512775
606.656	514032
606.724	507542
606.792	482909
606.860	444896
606.928	411755
606.996	394964
607.064	390804
607.132	400538
607.200	421521
607.267	433478
607.335	440878
607.403	448265
607.471	431845
607.539	424025
607.607	424107
607.674	379352
607.742	377322
607.810	376847
607.878	374805
607.946	384634
608.013	401951
608.081	408902
608.149	410145
608.216	423452
608.284	433176
608.352	434705
608.419	432077
608.487	423338
608.555	417408
608.622	429070
608.690	452265
608.757	490427
608.825	495004
608.893	487011
608.960	462157
609.028	445606
609.095	446240
609.163	445446
609.230	402487
609.298	376793
609.365	395391
609.432	423665
609.500	457426
609.567	505584
609.635	564349
609.702	580726
609.769	552844
609.837	448181
609.904	398441
609.971	403459
610.039	415743
610.106	456014
610.173	584525
610.241	850692
610.308	658790
610.375	467811
610.442	427886
610.509	414161
610.577	413731
610.644	420482
610.711	431207
610.778	442832
610.845	460309
610.912	482523
610.980	497079
611.047	494660
611.114	487682
611.181	477199
611.248	476416
611.315	497821
611.382	511163
611.449	525274
611.516	528246
611.583	523714
611.650	525200
611.717	527134
611.784	531246
611.851	544149
611.918	554514
611.984	586832
612.051	651074
612.118	813603
612.185	1109700
612.252	947452
612.319	679367
612.386	631743
612.452	597759
612.519	576886
612.586	572927
612.653	581479
612.719	598566
612.786	581126
612.853	550450
612.919	542023
612.986	551181
613.053	526890
613.120	502126
613.186	487917
613.253	486484
613.319	489132
613.386	491580
613.453	500387
613.519	501127
613.586	492354
613.652	497722
613.719	492987
613.785	500222
613.852	504754
613.918	501065
613.985	507170
614.051	522544
614.118	516069
614.184	501470
614.250	503720
614.317	510783
614.383	506924
614.449	515849
614.516	512431
614.582	514243
614.648	505149
614.715	502194
614.781	493725
614.847	495077
614.914	495310
614.980	484065
615.046	485679
615.112	496831
615.179	499831
615.245	501566
615.311	497089
615.377	500696
615.443	508149
615.509	509646
615.575	520285
615.642	517010
615.708	523981
615.774	539356
615.840	550265
615.906	554279
615.972	587845
616.038	668049
616.104	881521
616.170	1169847
616.236	1074241
616.302	759560
616.368	679653
616.434	593162
616.500	571333
616.565	580143
616.631	638833
616.697	599209
616.763	595169
616.829	680047
616.895	883512
616.961	853067
617.026	622612
617.092	538831
617.158	524414
617.224	514849
617.289	487200
617.355	470914
617.421	468832
617.487	468544
617.552	451841
617.618	451578
617.684	450067
617.749	450785
617.815	437225
617.880	431075
617.946	431446
618.012	438280
618.077	445956
618.143	430254
618.208	433267
618.274	459892
618.339	460952
618.405	395638
618.470	399646
618.536	398851
618.601	392898
618.667	370813
618.732	358144
618.798	353454
618.863	353244
618.928	350802
618.994	352546
619.059	351120
619.124	351920
619.190	351034
619.255	351080
619.320	353644
619.386	354756
619.451	351601
619.516	344536
619.581	348696
619.647	356514
619.712	354962
619.777	346707
619.842	349003
619.907	352821
619.972	356787
620.038	354555
620.103	345599
620.168	347266
620.233	353986
620.298	355898
620.363	358386
620.428	365323
620.493	371796
620.558	376835
620.623	380344
620.688	378067
620.753	375398
620.818	383443
620.883	385871
620.948	384341
621.013	380586
621.078	377574
621.143	378378
621.207	383574
621.272	377991
621.337	370250
621.402	367256
621.467	366081
621.532	363248
621.596	364344
621.661	358485
621.726	355890
621.791	360196
621.855	359424
621.920	356654
621.985	361232
622.049	366489
622.114	367272
622.179	370975
622.243	375612
622.308	388312
622.373	396574
622.437	387817
622.502	377184
622.566	371739
622.631	371577
622.695	377737
622.760	376405
622.824	374402
622.889	378349
622.953	378270
623.018	397175
623.082	396496
623.147	393551
623.211	387454
623.276	387078
623.340	374292
623.404	371155
623.469	368593
623.533	371259
623.597	367355
623.662	364692
623.726	344116
623.790	330638
623.854	322667
623.919	328725
623.983	328761
624.047	334137
624.111	337209
624.176	341599
624.240	343033
624.304	351537
624.368	341491
624.432	342304
624.496	348979
624.560	359970
624.625	361317
624.689	359843
624.753	372575
624.817	358182
624.881	351685
624.945	325276
625.009	319794
625.073	324576
625.137	329147
625.201	340062
625.265	340509
625.329	329088
625.393	332709
625.456	334611
625.520	342364
625.584	343351
625.648	351278
625.712	355913
625.776	350358
625.839	333686
625.903	297950
625.967	281036
626.031	294467
626.095	334257
626.158	314825
626.222	263344
626.286	250464
626.349	242526
626.413	231476
626.477	228636
626.540	230747
626.604	228695
626.668	223489
626.731	222068
626.795	222547
626.858	220135
626.922	218204
626.986	216313
627.049	215193
627.113	222052
627.176	216573
627.240	212231
627.303	209083
627.366	207107
627.430	209785
627.493	205746
627.557	202275
627.620	207138
627.684	209629
627.747	209400
627.810	194136
627.874	179503
627.937	172055
628.000	177664
628.064	173805
628.127	159544
628.190	157810
628.253	154247
628.317	147952
628.380	140081
628.443	137820
628.506	137757
628.569	133288
628.632	128323
628.696	126765
628.759	126149
628.822	121750
628.885	120354
628.948	116744
629.011	114564
629.074	111451
629.137	109076
629.200	106492
629.263	105667
629.326	101957
629.389	104851
629.452	102378
629.515	100470
629.578	99030
629.641	100297
629.704	100160
629.767	98932
629.830	96727
629.892	95160
629.955	92501
630.018	95756
630.081	92732
630.144	92578
630.207	90819
630.269	93114
630.332	88011
630.395	87531
630.458	85297
630.520	81251
630.583	84490
630.646	83361
630.708	85591
630.771	86554
630.834	90225
630.896	87696
630.959	87257
631.021	83806
631.084	82968
631.146	83749
631.209	84500
631.272	83081
631.334	84983
631.397	85956
631.459	83710
631.522	85606
631.584	84721
631.646	87159
631.709	86437
631.771	86109
631.834	83909
631.896	83313
631.958	81005
632.021	81961
632.083	79210
632.145	80121
632.208	78450
632.270	79722
632.332	77823
632.395	77956
632.457	79140
632.519	78081
632.581	78110
632.643	77106
632.706	77562
632.768	74703
632.830	76403
632.892	79122
632.954	77545
633.016	82032
633.078	78183
633.141	78991
633.203	77714
633.265	78415
633.327	75838
633.389	76587
633.451	77523
633.513	76483
633.575	77549
633.637	77149
633.698	79392
633.760	81483
633.822	84032
633.884	83553
633.946	85304
634.008	83555
634.070	84093
634.132	85198
634.193	86957
634.255	91237
634.317	90670
634.379	91212
634.441	85287
634.502	82795
634.564	79228
634.626	76175
634.687	73117
634.749	73692
634.811	72814
634.873	70508
634.934	73200
634.996	73281
635.057	71967
635.119	73879
635.181	74231
635.242	74162
635.304	73167
635.365	76860
635.427	73364
635.488	73547
635.550	72138
635.611	71741
635.673	70080
635.734	74028
635.796	74668
635.857	79096
635.918	80152
635.980	85151
636.041	86348
636.102	88983
636.164	86679
636.225	86186
636.286	77710
636.348	75474
636.409	73095
636.470	71074
636.531	72108
636.593	71836
636.654	71840
636.715	68738
636.776	70360
636.838	67925
636.899	67366
636.960	67014
637.021	65867
637.082	66641
637.143	66017
637.204	63383
637.265	64424
637.326	64682
637.387	66304
637.448	63994
637.509	66058
637.570	65581
637.631	65265
637.692	62220
637.753	62551
637.814	62061
637.875	62124
637.936	62846
637.997	62486
638.058	61731
638.119	61384
638.179	62206
638.240	62122
638.301	63357
638.362	61062
638.423	59964
638.483	61623
638.544	58191
638.605	59401
638.666	59222
638.726	59279
638.787	59665
638.848	60428
638.908	58880
638.969	56633
639.030	56477
639.090	56246
639.151	56935
639.211	57866
639.272	57190
639.332	56679
639.393	58600
639.453	59032
639.514	59589
639.574	55591
639.635	54802
639.695	55456
639.756	54069
639.816	53006
639.877	54056
639.937	54117
639.997	55212
640.058	52202
640.118	53663
640.178	54744
640.239	54288
640.299	54284
640.359	53324
640.420	55884
640.480	58241
640.540	60461
640.600	61675
640.661	60214
640.721	58401
640.781	63148
640.841	62089
640.901	55449
640.961	55431
641.021	55665
641.082	55731
641.142	54782
641.202	55481
641.262	50758
641.322	52859
641.382	51604
641.442	52615
641.502	52136
641.562	54347
641.622	52011
641.682	54747
641.742	55858
641.802	55440
641.861	52991
641.921	49964
641.981	50163
642.041	49539
642.101	48299
642.161	47070
642.221	48648
642.280	48354
642.340	48612
642.400	50099
642.460	49599
642.519	50771
642.579	49645
642.639	50164
642.698	47951
642.758	53210
642.818	51211
642.877	50466
642.937	50154
642.997	50864
643.056	51067
643.116	50988
643.175	51346
643.235	51197
643.294	52491
643.354	53241
643.414	55173
643.473	58106
643.532	61401
643.592	71228
643.651	86762
643.711	120606
643.770	189091
643.830	359700
643.889	550454
643.948	237306
644.008	96992
644.067	71060
644.126	58013
644.186	55080
644.245	50968
644.304	48856
644.363	50583
644.423	47477
644.482	48406
644.541	50387
644.600	48349
644.659	56250
644.719	60222
644.778	71938
644.837	98114
644.896	163312
644.955	290438
645.014	130390
645.073	62253
645.132	53479
645.191	51652
645.250	51426
645.309	51340
645.368	53753
645.427	62241
645.486	84951
645.545	121436
645.604	58100
645.663	48343
645.722	47294
645.781	49454
645.840	49353
645.898	54194
645.957	65541
646.016	77891
646.075	112212
646.134	176718
646.192	360001
646.251	441866
646.310	145881
646.369	74769
646.427	66488
646.486	53956
646.545	49434
646.603	46207
646.662	45842
646.721	43059
646.779	43044
646.838	42183
646.896	47418
646.955	52048
647.014	69151
647.072	103910
647.131	218761
647.189	122728
647.248	46964
647.306	41922
647.365	40061
647.423	35655
647.481	39231
647.540	36896
647.598	38374
647.657	37660
647.715	38563
647.773	35105
647.832	35854
647.890	33111
647.948	33269
648.007	33975
648.065	32056
648.123	32235
648.181	33192
648.240	32530
648.298	31085
648.356	30250
648.414	31074
648.472	30341
648.531	30411
648.589	29157
648.647	29858
648.705	28689
648.763	29418
648.821	30339
648.879	29192
648.937	31675
648.995	33196
649.053	35909
649.111	44003
649.169	58102
649.227	87395
649.285	154425
649.343	334584
649.401	184990
649.459	54668
649.516	38246
649.574	32861
649.632	36156
649.690	37047
649.748	39710
649.806	49104
649.863	77339
649.921	163992
649.979	114138
650.037	35500
650.094	24931
650.152	25172
650.210	25087
650.268	26126
650.325	26223
650.383	29403
650.440	22104
650.498	22741
650.556	21188
650.613	21195
650.671	21901
650.728	21828
650.786	22682
650.843	26572
650.901	21218
650.958	21290
651.016	20051
651.073	19435
651.131	18624
651.188	18037
651.246	18606
651.303	17924
651.360	18215
651.418	18247
651.475	18013
651.532	17286
651.590	18593
651.647	17769
651.704	17292
651.762	18063
651.819	17769
651.876	16636
651.933	16406
651.990	17311
652.048	15439
652.105	16114
652.162	16722
652.219	15659
652.276	16829
652.333	17470
652.390	15298
652.448	16111
652.505	16165
652.562	15319
652.619	15418
652.676	15566
652.733	16907
652.790	14838
652.847	13288
652.904	15823
652.961	13376
653.017	14393
653.074	14652
653.131	15169
653.188	13119
653.245	15059
653.302	14207
653.359	14493
653.415	15073
653.472	14083
653.529	14853
653.586	13877
653.642	13355
653.699	14801
653.756	12425
653.813	13460
653.869	14521
653.926	13624
653.983	12984
654.039	13785
654.096	13692
654.152	14757
654.209	12324
654.266	14466
654.322	12001
654.379	13650
654.435	13864
654.492	14484
654.548	13760
654.605	12475
654.661	14702
654.717	14027
654.774	13792
654.830	13673
654.887	13594
654.943	15255
655.000	14946
655.056	14200
655.112	12976
655.168	12294
655.225	13774
655.281	13555
655.337	12380
655.394	13092
655.450	12371
655.506	13477
655.562	12064
655.618	13877
655.675	12142
655.731	12558
655.787	11846
655.843	14446
655.899	11968
655.955	13986
656.011	12909
656.067	11830
656.123	12227
656.179	13014
656.235	13219
656.291	12351
656.347	14049
656.403	12143
656.459	12362
656.515	12970
656.571	12474
656.627	12351
656.683	13092
656.739	12658
656.795	12398
656.850	13731
656.906	12209
656.962	14437
657.018	13625
657.074	15285
657.129	18034
657.185	26055
657.241	51327
657.297	31575
657.352	14819
657.408	12136
657.464	12597
657.519	11671
657.575	10973
657.630	11807
657.686	11781
657.742	11040
657.797	11479
657.853	11900
657.908	12162
657.964	11031
658.019	11733
658.075	11776
658.130	11895
658.186	11012
658.241	12048
658.297	10459
658.352	10411
658.407	10645
658.463	9216
658.518	10988
658.573	10974
658.629	11102
658.684	11046
658.739	11849
658.795	10419
658.850	12175
658.905	10036
658.960	11600
659.016	10982
659.071	11026
659.126	10036
659.181	10021
659.236	11241
659.291	11673
659.346	10690
659.401	11624
659.457	11710
659.512	11387
659.567	11601
659.622	10776
659.677	10523
659.732	9254
659.787	10009
659.842	11049
659.897	10194
659.952	11812
660.007	9741
660.061	10674
660.116	10175
660.171	9732
660.226	10589
660.281	11313
660.336	9536
660.391	10456
660.445	8997
660.500	10752
660.555	9707
660.610	9760
660.664	10139
660.719	9860
660.774	9897
660.828	10193
660.883	9024
660.938	10044
660.992	9085
661.047	9513
661.101	8562
661.156	9282
661.211	9122
661.265	9913
661.320	9117
661.374	10052
661.429	8607
661.483	10257
661.538	7530
661.592	10530
661.647	10282
661.701	13185
661.755	10391
661.810	9664
661.864	8949
661.919	9246
661.973	9935
662.027	9219
662.081	9208
662.136	10092
662.190	8970
662.244	9698
662.299	8720
662.353	9614
662.407	8391
662.461	8664
662.515	9069
662.569	8369
662.624	9086
662.678	8527
662.732	9228
662.786	8244
662.840	8409
662.894	9248
662.948	9037
663.002	9181
663.056	8926
663.110	8314
663.164	9033
663.218	9501
663.272	8872
663.326	9204
663.380	7689
663.434	9165
663.488	8260
663.542	9459
663.595	9023
663.649	8811
663.703	8825
663.757	8365
663.811	8432
663.864	8767
663.918	9211
663.972	9137
664.026	8956
664.079	8399
664.133	9147
664.187	10511
664.240	9634
664.294	10246
664.348	9662
664.401	9150
664.455	8952
664.508	8202
664.562	8576
664.615	8842
664.669	8118
664.722	8927
664.776	8658
664.829	8644
664.883	8116
664.936	9367
664.990	9033
665.043	10031
665.097	8084
665.150	10210
665.203	8207
665.257	9523
665.310	9270
665.363	9238
665.417	10161
665.470	9768
665.523	7849
665.576	8769
665.630	8940
665.683	9565
665.736	8920
665.789	9169
665.842	8550
665.895	9346
665.949	9116
666.002	9537
666.055	9031
666.108	10564
666.161	10055
666.214	9584
666.267	8899
666.320	10296
666.373	10172
666.426	9592
666.479	9350
666.532	9728
666.585	9614
666.638	10203
666.691	9611
666.744	10651
666.796	9676
666.849	10469
666.902	9729
666.955	9540
667.008	9701
667.060	9879
667.113	9759
667.166	10798
667.219	10493
667.271	10899
667.324	11202
667.377	11876
667.430	9923
667.482	9954
667.535	10558
667.587	10672
667.640	9250
667.693	9499
667.745	9804
667.798	11480
667.850	9327
667.903	10206
667.955	10213
668.008	10423
668.060	9924
668.113	10301
668.165	9516
668.218	10643
668.270	9807
668.322	9996
668.375	9662
668.427	9893
668.479	9446
668.532	10012
668.584	9044
668.636	9739
668.689	9622
668.741	9510
668.793	10108
668.845	9708
668.898	9262
668.950	9141
669.002	9678
669.054	10003
669.106	9383
669.158	10211
669.211	8856
669.263	9291
669.315	9925
669.367	10280
669.419	8126
669.471	9357
669.523	9157
669.575	10235
669.627	8472
669.679	8655
669.731	8549
669.783	9254
669.835	7688
669.886	8877
669.938	8301
669.990	9249
670.042	8022
670.094	8952
670.146	8326
670.197	8866
670.249	8360
670.301	8240
670.353	8681
670.404	9107
670.456	7566
670.508	8591
670.560	8923
670.611	9635
670.663	9387
670.715	13522
670.766	15601
670.818	11115
670.869	9436
670.921	9319
670.972	8769
671.024	8341
671.075	8191
671.127	8180
671.178	9393
671.230	10282
671.281	9041
671.333	11053
671.384	10650
671.436	13427
671.487	17497
671.538	22132
671.590	31566
671.641	48281
671.692	80804
671.744	138044
671.795	104316
671.846	47310
671.897	25954
671.949	18653
672.000	14038
672.051	12315
672.102	10412
672.153	9644
672.204	8834
672.256	9034
672.307	8436
672.358	8384
672.409	7445
672.460	7961
672.511	6804
672.562	6349
672.613	5668
672.664	7083
672.715	7233
672.766	6759
672.817	5662
672.868	6273
672.919	5901
672.970	5829
673.021	7004
673.071	5704
673.122	6024
673.173	5228
673.224	6223
673.275	6371
673.326	5505
673.376	5995
673.427	4392
673.478	5741
673.528	6595
673.579	5568
673.630	5330
673.680	6689
673.731	5749
673.782	6386
673.832	6288
673.883	6376
673.934	5073
673.984	6057
674.035	5760
674.085	6198
674.136	5593
674.186	5932
674.237	6053
674.287	5423
674.338	6023
674.388	5820
674.438	5789
674.489	6355
674.539	6281
674.589	6395
674.640	5840
674.690	6789
674.740	5729
674.791	6563
674.841	5321
674.891	5183
674.942	4719
674.992	4900
675.042	4625
675.092	4692
675.142	3710
675.193	4870
675.243	4192
675.293	4969
675.343	5455
675.393	5609
675.443	5403
675.493	5558
675.543	4656
675.593	5293
675.643	4561
675.693	4735
675.743	4393
675.793	4525
675.843	3566
675.893	4980
675.943	4110
675.993	5269
676.043	4328
676.093	5642
676.142	4532
676.192	5332
676.242	4444
676.292	4762
676.341	4642
676.391	5296
676.441	3979
676.491	4230
676.540	4056
676.590	4732
676.640	4229
676.689	5015
676.739	3847
676.789	4108
676.838	4200
676.888	3643
676.937	4431
676.987	4636
677.037	3693
677.086	3798
677.136	3242
677.185	3649
677.235	3577
677.284	4377
677.333	4092
677.383	4515
677.432	3112
677.482	3241
677.531	3823
677.580	3855
677.630	4054
677.679	3778
677.728	3183
677.778	4046
677.827	3503
677.876	3528
677.925	4677
677.975	5335
678.024	4339
678.073	4367
678.122	3914
678.171	4386
678.220	4798
678.269	4507
678.319	3581
678.368	5462
678.417	4489
678.466	4571
678.515	3993
678.564	3484
678.613	2864
678.662	4344
678.711	3655
678.760	3314
678.809	3712
678.857	3741
678.906	3505
678.955	3800
679.004	4087
679.053	4377
679.102	3949
679.151	3525
679.199	3281
679.248	4054
679.297	3871
679.346	3472
679.394	3005
679.443	4157
679.492	3164
679.540	3775
679.589	3531
679.638	3608
679.686	3437
679.735	4546
679.784	4459
679.832	5211
679.881	3592
679.929	4341
679.978	3611
680.026	3635
680.075	4208
680.123	2803
680.172	3653
680.220	3349
680.268	3200
680.317	3248
680.365	2006
680.414	3570
680.462	2471
680.510	4381
680.559	2724
680.607	2957
680.655	3412
680.703	3759
680.752	3294
680.800	3542
680.848	2615
680.896	3447
680.945	2894
680.993	2589
681.041	3112
681.089	4032
681.137	2889
681.185	3041
681.233	3452
681.258	3706
681.281	3903
681.329	2706
681.377	2594
681.380	2664
681.425	3127
681.473	3758
681.502	3715
681.521	3607
681.569	4680
681.617	4000
681.624	4119
681.665	4514
681.713	4531
681.745	4622
681.761	4598
681.809	3668
681.857	4616
681.867	4544
681.904	4113
681.952	4906
681.989	4515
682.000	4334
682.048	3995
682.096	4865
682.111	4825
682.143	4598
682.191	4063
682.233	5589
682.239	5782
682.286	4755
682.334	5471
682.354	5335
682.382	5020
682.430	5130
682.476	5086
682.477	5044
682.525	5703
682.572	4778
682.598	5206
682.620	5519
682.667	5594
682.715	5664
682.720	5692
682.763	5579
682.810	5931
682.841	5932
682.857	5855
682.905	6920
682.952	5704
682.963	5849
683.000	6211
683.047	6180
683.085	7545
683.095	7865
683.142	6586
683.190	7047
683.206	6787
683.237	6253
683.284	7125
683.328	6670
683.332	6590
683.379	7213
683.426	6286
683.449	6566
683.473	6852
683.521	7490
683.568	7495
683.571	7527
683.615	7356
683.662	7361
683.693	6941
683.709	6642
683.757	7064
683.804	6920
683.814	6952
683.851	7063
683.898	7341
683.936	7962
683.945	8084
683.992	7489
684.039	7716
684.057	7837
684.086	7917
684.133	7540
684.179	7324
684.180	7286
684.227	8445
684.274	8049
684.300	7978
684.321	7978
684.368	7416
684.415	9421
684.422	9283
684.462	8236
684.509	8390
684.543	8181
684.556	8084
684.603	8668
684.649	9670
684.665	9569
684.696	9243
684.743	9157
684.786	9297
684.790	9288
684.837	9528
684.883	10132
684.908	10034
684.930	9945
684.977	9655
685.023	10048
685.029	10110
685.070	10238
685.117	9780
685.150	9438
685.164	9340
685.210	10058
685.257	10489
685.272	10623
685.303	10798
685.350	10700
685.393	10544
685.396	10490
685.443	10022
685.490	9392
685.514	9750
685.536	10168
685.583	9981
685.629	10121
685.636	10036
685.675	9485
685.722	10709
685.757	10055
685.768	9818
685.815	10576
685.861	10952
685.878	10900
685.908	10838
685.954	10586
686.000	10711
686.000	10703
686.047	10895
686.093	10975
686.121	11749
686.139	12209
686.185	11728
686.232	12086
686.242	12030
686.278	11783
686.324	11614
686.363	12136
686.370	12216
686.416	11582
686.463	12559
686.484	12342
686.509	12031
686.555	12563
686.601	11002
686.606	11079
686.647	11916
686.693	12021
686.727	12001
686.739	11959
686.785	11978
686.831	11891
686.848	11925
686.877	11944
686.923	11487
686.969	12071
686.969	12075
687.015	12882
687.061	12832
687.090	13810
687.107	14226
687.153	13326
687.199	13769
687.211	13618
687.245	13080
687.291	13169
687.332	12468
687.336	12444
687.382	13858
687.428	13706
687.453	14166
687.474	14524
687.520	14325
687.565	15703
687.574	15564
687.611	15678
687.657	17952
687.695	18525
687.702	18819
687.748	21929
687.794	25012
687.816	25930
687.839	24445
687.885	21206
687.931	18435
687.937	18043
687.976	17071
688.022	16046
688.058	15173
688.067	15122
688.113	14683
688.158	14494
688.179	14398
688.204	14621
688.249	14492
688.295	15114
688.300	15188
688.340	15529
688.386	15911
688.421	15221
688.431	15055
688.477	14636
688.522	15494
688.542	15568
688.567	16013
688.613	16277
688.658	17168
688.663	17211
688.703	16835
688.749	16533
688.784	16209
688.794	16265
688.839	16453
688.884	16883
688.905	17162
688.930	17186
688.975	16582
689.020	16277
689.026	16237
689.065	16624
689.110	17032
689.146	17491
689.155	17661
689.201	18365
689.246	18737
689.267	18725
689.291	18073
689.336	17574
689.381	16714
689.388	16541
689.426	16592
689.471	16922
689.509	17096
689.516	17120
689.561	17476
689.606	17004
689.630	17220
689.651	17435
689.696	17273
689.741	16977
689.750	16941
689.785	16961
689.830	17503
689.871	17689
689.875	17712
689.920	17025
689.965	16945
689.992	16969
690.010	17033
690.054	16977
690.099	16760
690.112	16699
690.144	16694
690.189	16593
690.233	16704
690.233	16727
690.278	17241
690.323	16648
690.354	17044
690.367	17253
690.412	16947
690.457	17368
690.474	17255
690.501	17062
690.546	17153
690.590	17200
690.595	17126
690.635	16749
690.680	16695
690.716	16751
690.724	16863
690.769	16999
690.813	17574
690.836	17536
690.857	17586
690.902	18244
690.946	18624
690.957	18672
690.991	18498
691.035	18106
691.077	18031
691.080	18078
691.124	18047
691.168	18684
691.198	18483
691.213	18288
691.257	18543
691.301	18530
691.318	18400
691.346	18516
691.390	18238
691.434	18685
691.439	18650
691.478	18643
691.522	19389
691.559	19153
691.567	19176
691.611	19972
691.655	19960
691.680	20266
691.699	20267
691.743	19884
691.787	19820
691.800	19582
691.831	19283
691.875	19544
691.919	19098
691.921	19069
691.964	19459
692.008	19373
692.041	19642
692.052	19777
692.096	19800
692.139	20002
692.162	19948
692.183	19836
692.227	20065
692.271	19539
692.282	19527
692.315	19637
692.359	19390
692.402	19497
692.403	19534
692.447	19312
692.490	19399
692.523	19129
692.534	19119
692.578	19416
692.622	19238
692.643	19386
692.666	19480
692.709	19110
692.753	19177
692.763	19074
692.797	19169
692.840	19443
692.884	19541
692.884	19579
692.928	19488
692.971	19744
693.004	19726
693.015	19821
693.059	19796
693.102	20396
693.124	20388
693.146	20297
693.189	20161
693.233	20056
693.245	20033
693.276	20114
693.320	20117
693.363	19885
693.365	19827
693.407	19900
693.450	20738
693.485	20810
693.493	20808
693.537	21048
693.580	20626
693.605	20841
693.624	20914
693.667	20262
693.710	19940
693.725	19792
693.753	20123
693.797	20436
693.840	20881
693.845	20895
693.883	20994
693.926	20858
693.966	20922
693.970	20972
694.013	20527
694.056	20797
694.086	20688
694.099	20815
694.142	20885
694.185	21150
694.206	21320
694.229	21667
694.272	21919
694.315	22488
694.326	22520
694.358	22346
694.401	22062
694.444	21689
694.446	21638
694.487	21885
694.530	21891
694.566	21781
694.573	21864
694.616	21986
694.659	22421
694.686	22483
694.702	22556
694.745	22990
694.787	22948
694.806	22970
694.830	22865
694.873	22699
694.916	22311
694.926	22226
694.959	23146
695.002	24201
695.044	25091
695.046	25080
695.087	25424
695.130	25582
695.166	25744
695.172	25812
695.215	25625
695.258	25772
695.286	25651
695.301	25913
695.343	26682
695.386	27365
695.406	27598
695.428	28685
695.471	30630
695.514	32922
695.526	33458
695.556	35123
695.599	37531
695.641	39497
695.646	39626
695.684	37611
695.726	35514
695.766	33518
695.769	33563
695.811	32951
695.854	32245
695.886	31631
695.896	31773
695.938	32296
695.981	32483
696.005	32814
696.023	33909
696.065	35795
696.108	38240
696.125	39012
696.150	39761
696.192	40880
696.235	42128
696.245	42329
696.277	42181
696.319	41896
696.361	41594
696.365	41463
696.404	40670
696.446	39719
696.485	38771
696.488	38879
696.530	39040
696.572	39241
696.604	39307
696.614	39400
696.656	39340
696.698	39409
696.724	39229
696.740	39463
696.783	40026
696.825	40568
696.844	40685
696.867	41013
696.909	41450
696.951	41863
696.964	41932
696.992	42200
697.034	42240
697.076	42383
697.083	42308
697.118	43756
697.160	45423
697.202	46933
697.203	46864
697.244	45986
697.286	44969
697.323	43690
697.327	43826
697.369	44386
697.411	44823
697.442	45046
697.453	45194
697.494	45319
697.536	45494
697.562	45452
697.578	45504
697.620	45409
697.661	45206
697.682	45086
697.703	46114
697.744	47795
697.786	49639
697.801	50098
697.828	49600
697.869	48734
697.911	47813
697.921	47488
697.952	47566
697.994	47385
698.035	47350
698.040	47224
698.077	47537
698.118	47723
698.160	47858
698.160	47737
698.201	49601
698.243	51334
698.279	52773
698.284	53017
698.325	53986
698.367	55033
698.399	55654
698.408	55908
698.449	56480
698.491	57000
698.518	57244
698.532	57486
698.573	57749
698.614	58029
698.638	58030
698.656	58077
698.697	57859
698.738	57623
698.757	57374
698.779	57522
698.820	57521
698.862	57511
698.877	57359
698.903	57569
698.944	57679
698.985	57784
698.996	57668
699.026	57645
699.067	57405
699.116	56974
699.235	56769
699.354	55673
699.474	52151
699.593	51747
699.713	52824
699.832	53066
699.951	55988
700.070	53915
700.190	51174
700.309	48671
700.428	48423
700.547	48352
700.667	48883
700.786	47997
700.905	45643
701.024	46945
701.143	45501
701.262	47960
701.381	49062
701.500	49420
701.619	48279
701.738	49145
701.857	47893
701.976	46129
702.095	46917
702.214	48594
702.333	45771
702.452	48617
702.571	48299
702.690	48569
702.809	48276
702.928	46225
703.047	42234
703.165	45154
703.284	43370
703.403	42768
703.522	43007
703.640	41386
703.759	41038
703.878	41073
703.997	40407
704.115	42569
704.234	40705
704.353	41633
704.471	38393
704.590	38292
704.708	38784
704.827	39109
704.946	38152
705.064	38054
705.183	36865
705.301	38800
705.420	36091
705.538	35630
705.656	33405
705.775	34732
705.893	43189
706.012	44394
706.130	34157
706.249	36796
706.367	33226
706.485	34408
706.604	32731
706.722	34287
706.840	43100
706.958	63262
707.077	43764
707.195	33217
707.313	31583
707.431	30936
707.549	31730
707.668	28224
707.786	33234
707.904	31052
708.022	33737
708.140	29671
708.258	29517
708.376	31973
708.494	27905
708.612	30957
708.730	30397
708.848	28865
708.966	29614
709.084	29921
709.202	30461
709.320	26801
709.438	27968
709.556	28447
709.674	25359
709.791	27237
709.909	26841
710.027	25688
710.145	25799
710.263	25783
710.380	26380
710.498	24518
710.616	25309
710.733	22929
710.851	24095
710.969	25512
711.086	24544
711.204	26396
711.322	24654
711.439	23704
711.557	22245
711.674	24038
711.792	24132
711.909	24217
712.027	23813
712.144	22148
712.262	22924
712.379	23491
712.497	22826
712.614	22701
712.732	23810
712.849	22012
712.966	23548
713.084	23815
713.201	19308
713.318	22493
713.436	24409
713.553	21263
713.670	24163
713.787	23347
713.905	21218
714.022	25206
714.139	25739
714.256	28924
714.373	39460
714.490	69952
714.608	166647
714.725	528008
714.842	441303
714.959	80504
715.076	37716
715.193	31169
715.310	27155
715.427	22112
715.544	23429
715.661	22395
715.778	20156
715.895	19947
716.011	20238
716.128	19787
716.245	20222
716.362	19844
716.479	17313
716.596	19033
716.713	19242
716.829	17898
716.946	16978
717.063	17255
717.180	16455
717.296	17946
717.413	17481
717.530	17435
717.646	14704
717.763	16446
717.880	16285
717.996	15606
718.113	16108
718.229	16402
718.346	14374
718.462	15498
718.579	16005
718.695	16041
718.812	15193
718.928	16090
719.045	14592
719.161	15247
719.277	16702
719.394	17431
719.510	17029
719.626	17323
719.743	20863
719.859	32238
719.975	62354
720.092	216790
720.208	374104
720.324	65057
720.440	24304
720.557	19498
720.673	17664
720.789	15841
720.905	14806
721.021	15622
721.137	13741
721.253	13477
721.369	14419
721.486	14487
721.602	12975
721.718	14026
721.834	13486
721.950	13347
722.066	13694
722.181	13065
722.297	13430
722.413	12859
722.529	14037
722.645	12509
722.761	12986
722.877	13195
722.993	13744
723.108	17884
723.224	14825
723.340	13695
723.456	12490
723.571	12122
723.687	12052
723.803	13229
723.918	13473
724.034	10844
724.150	11986
724.265	11775
724.381	11073
724.497	11664
724.612	12018
724.728	12341
724.843	10823
724.959	11421
725.074	12278
725.190	12593
725.305	11195
725.421	11290
725.536	12291
725.651	13092
725.767	12214
725.882	11743
725.997	11564
726.113	12041
726.228	11577
726.343	10941
726.459	11549
726.574	11332
726.689	11033
726.804	12102
726.920	10807
727.035	10758
727.150	11003
727.265	11170
727.380	11181
727.495	11973
727.610	11011
727.725	10886
727.841	12070
727.956	16782
728.071	13252
728.186	10813
728.301	10884
728.416	11652
728.531	10488
728.645	9981
728.760	11138
728.875	10749
728.990	11774
729.105	10905
729.220	10644
729.335	11061
729.449	11469
729.564	10429
729.679	10473
729.794	11733
729.908	10941
730.023	11554
730.138	11201
730.253	10919
730.367	11029
730.482	10607
730.596	11116
730.711	14705
730.826	23482
730.940	24778
731.055	15805
731.169	15797
731.284	15596
731.398	15651
731.513	16243
731.627	19501
731.742	26201
731.856	31697
731.970	30978
732.085	38695
732.199	53080
732.313	88528
732.428	201240
732.542	443549
732.656	252656
732.771	75960
732.885	48443
732.999	44118
733.113	44595
733.227	43480
733.342	40923
733.456	39508
733.570	38272
733.684	36513
733.798	34954
733.912	34820
734.026	34098
734.140	34217
734.254	33648
734.368	32582
734.482	33271
734.596	33118
734.710	32271
734.824	32108
734.938	32393
735.052	32719
735.166	31248
735.280	30366
735.393	30462
735.507	31454
735.621	29231
735.735	28033
735.849	31151
735.962	28017
736.076	30836
736.190	28872
736.303	29212
736.417	28730
736.531	27219
736.644	27811
736.758	28730
736.872	27396
736.985	27256
737.099	26190
737.212	27017
737.326	24723
737.439	28559
737.553	25364
737.666	26446
737.780	25235
737.893	26127
738.007	24650
738.120	26891
738.233	22697
738.347	24835
738.460	23182
738.573	26245
738.687	24021
738.800	24217
738.913	25680
739.026	23439
739.140	23269
739.253	24576
739.366	22647
739.479	23767
739.592	23938
739.705	20461
739.818	25455
739.932	20879
740.045	23011
740.158	21515
740.271	23744
740.384	21485
740.497	20574
740.610	22734
740.723	21500
740.836	21141
740.949	20773
741.062	22368
741.174	19884
741.287	21039
741.400	21781
741.513	17612
741.626	22508
741.739	19324
741.851	19756
741.964	22162
742.077	19078
742.189	17904
742.302	20466
742.415	18805
742.527	18864
742.640	18896
742.753	16693
742.865	19202
742.978	18485
743.090	17766
743.203	19599
743.316	16787
743.428	18307
743.541	18622
743.653	15311
743.766	17846
743.878	18797
743.990	16914
744.103	18173
744.215	16283
744.327	15508
744.440	20064
744.552	15914
744.664	15956
744.777	19142
744.889	15325
745.001	15694
745.113	18118
745.226	15398
745.338	14964
745.450	18683
745.562	15231
745.674	14247
745.786	18654
745.898	16301
746.010	15871
746.122	17792
746.234	16315
746.347	16769
746.459	15347
746.570	13437
746.682	16142
746.794	17688
746.906	13275
747.018	14675
747.130	15402
747.242	13058
747.354	13193
747.466	15368
747.577	14122
747.689	14749
747.801	14970
747.913	12953
748.024	13681
748.136	14155
748.248	11967
748.359	13960
748.471	14802
748.583	11800
748.694	12288
748.806	14734
748.918	13419
749.029	13604
749.141	13915
749.252	14039
749.364	12312
749.475	11477
749.587	11668
749.698	12723
749.809	13040
749.921	11910
750.032	12540
750.144	11658
750.255	11836
750.366	11849
750.478	11442
750.589	12357
750.700	10944
750.811	12765
750.923	10355
751.034	11273
751.145	12860
751.256	11346
751.367	10963
751.479	12096
751.590	11261
751.701	9792
751.812	9274
751.923	10442
752.034	13087
752.145	10905
752.256	12011
752.367	11796
752.478	10769
752.589	11254
752.700	11882
752.811	10193
752.922	11342
753.032	11555
753.143	11275
753.254	10027
753.365	11882
753.476	12851
753.586	11217
753.697	10765
753.808	10716
753.919	9692
754.029	10751
754.140	10723
754.251	10342
754.361	11081
754.472	11975
754.582	9435
754.693	9693
754.804	11473
754.914	9958
755.025	8855
755.135	10134
755.246	11192
755.356	8704
755.466	8053
755.577	10030
755.687	10633
755.798	9075
755.908	9642
756.018	11032
756.129	10239
756.239	10167
756.349	10543
756.460	10104
756.570	11047
756.680	9938
756.790	10746
756.900	10406
757.011	9071
757.121	8226
757.231	8770
757.341	9481
757.451	8414
757.561	8159
757.671	9590
757.781	10235
757.891	9065
758.001	8504
758.111	9443
758.221	10070
758.331	10544
758.441	8847
758.551	10156
758.661	10563
758.771	10521
758.880	9411
758.990	8704
759.100	8993
759.210	9910
759.320	8839
759.429	10285
759.539	10714
759.649	11880
759.758	11932
759.868	12498
759.978	12213
760.087	13257
760.197	12261
760.307	12136
760.416	11990
760.526	10806
760.635	12317
760.745	12954
760.854	12516
760.964	14782
761.073	13911
761.182	13956
761.292	11587
761.401	10755
761.511	9794
761.620	8731
761.729	9465
761.839	8086
761.948	7934
762.057	7899
762.166	9489
762.276	8338
762.385	8453
762.494	7427
762.603	6821
762.712	8783
762.822	8219
762.931	6965
763.040	6805
763.149	7680
763.258	6842
763.367	7819
763.476	7225
763.585	6584
763.694	6465
763.803	6888
763.912	7782
764.021	6610
764.130	7234
764.238	7722
764.347	6993
764.456	8014
764.565	7423
764.674	7090
764.783	6676
764.891	6364
765.000	7297
765.109	7502
765.217	6670
765.326	6744
765.435	7182
765.543	7187
765.652	6319
765.761	6256
765.869	6413
765.978	6130
766.086	8174
766.195	7117
766.303	8426
766.412	18885
766.520	13810
766.629	7196
766.737	6423
766.846	6664
766.954	5703
767.062	7999
767.171	7944
767.279	8207
767.387	6197
767.496	5996
767.604	5880
767.712	6145
767.820	5688
767.928	5803
768.037	5901
768.145	6522
768.253	6158
768.361	5663
768.469	5828
768.577	5536
768.685	6180
768.793	6401
768.901	6423
769.009	6684
769.117	6626
769.225	7062
769.333	6897
769.441	8158
769.549	7112
769.657	6604
769.765	9264
769.873	15804
769.981	8541
770.088	7398
770.196	8306
770.304	9291
770.412	9066
770.519	8826
770.627	9519
770.735	9316
770.842	9410
770.950	9658
771.058	9691
771.165	13281
771.273	14325
771.380	15124
771.488	22545
771.595	24651
771.703	20907
771.810	19842
771.918	21118
772.025	26733
772.133	29556
772.240	27146
772.348	31447
772.455	29464
772.562	26676
772.670	25966
772.777	26814
772.884	27374
772.991	25432
773.099	26502
773.206	25200
773.313	25319
773.420	25139
773.528	25793
773.635	23823
773.742	25927
773.849	23318
773.956	25844
774.063	23847
774.170	24533
774.277	25511
774.384	23280
774.491	21882
774.598	23944
774.705	22020
774.812	23966
774.919	22352
775.026	23073
775.133	23196
775.239	23106
775.346	21694
775.453	22622
775.560	20448
775.667	23199
775.773	20837
775.880	21639
775.987	19776
776.093	22192
776.200	23065
776.307	16885
776.413	19040
776.520	24197
776.627	19191
776.733	19641
776.840	18237
776.946	25207
777.053	19776
777.159	19796
777.266	17850
777.372	20245
777.478	21350
777.585	20110
777.691	16473
777.798	21270
777.904	18064
778.010	17885
778.117	19825
778.223	18089
778.329	17945
778.435	16345
778.542	19998
778.648	16785
778.754	16054
778.860	17788
778.966	17486
779.072	16275
779.178	17308
779.284	13930
779.391	16889
779.497	18027
779.603	17991
779.708	15117
779.815	13948
779.920	17404
780.026	14644
780.132	16570
780.238	15324
780.344	13958
780.450	19943
780.556	12995
780.661	14840
780.767	18056
780.873	11173
780.979	14396
781.085	15877
781.190	13562
781.296	14353
781.402	15003
781.507	14980
781.613	10890
781.719	14824
781.824	16113
781.930	13819
782.035	14644
782.141	16271
782.246	11187
782.352	12127
782.457	13996
782.563	14290
782.668	14730
782.773	12245
782.879	12205
782.984	13814
783.090	13071
783.195	13916
783.300	16362
783.405	12129
783.511	11271
783.616	12229
783.721	13080
783.826	11466
783.932	11535
784.037	12585
784.142	13023
784.247	12019
784.352	12706
784.457	10428
784.562	13614
784.667	13951
784.772	10117
784.877	8785
784.982	13597
785.087	12151
785.192	11193
785.297	10856
785.402	12886
785.507	11275
785.611	11346
785.716	9282
785.821	11349
785.926	11905
786.031	10157
786.135	10815
786.240	11948
786.345	8619
786.450	9983
786.554	11998
786.659	9257
786.763	10475
786.868	11587
786.973	11653
787.077	8883
787.182	9011
787.286	11978
787.391	12230
787.495	7660
787.600	7613
787.704	10335
787.809	10058
787.913	10614
788.017	10316
788.122	11418
788.226	9217
788.330	7513
788.435	10056
788.539	11801
788.643	8150
788.747	6816
788.852	9440
788.956	9216
789.060	9924
789.164	10363
789.268	8126
789.372	9696
789.476	8224
789.580	5953
789.684	7483
789.788	11037
789.892	9851
789.996	6937
790.100	6196
790.204	9189
790.308	11047
790.412	7060
790.516	6651
790.620	8291
790.724	10116
790.828	8816
790.931	5619
791.035	8286
791.139	8083
791.242	8428
791.346	9606
791.450	8643
791.554	7456
791.657	5740
791.761	7669
791.864	9009
791.968	8673
792.072	8355
792.175	6112
792.279	6706
792.382	6701
792.486	6350
792.589	6496
792.693	8296
792.796	6126
792.899	8058
793.003	8530
793.106	6515
793.209	6220
793.313	6370
793.416	4179
793.519	6153
793.623	9952
793.726	8510
793.829	5476
793.932	5330
794.035	5770
794.138	8993
794.242	9447
794.345	5688
794.448	5505
794.551	4707
794.654	7926
794.757	8328
794.860	4958
794.963	7485
795.066	6394
795.169	7720
795.272	5886
795.375	7789
795.477	5240
795.580	5418
795.683	4850
795.786	7481
795.889	6000
795.991	6449
796.094	5985
796.197	5450
796.300	7772
796.402	6959
796.505	3871
796.608	4422
796.710	5860
796.813	6884
796.915	6524
797.018	7485
797.120	6527
797.223	5617
797.326	8228
797.428	5374
797.530	4811
797.633	4623
797.735	7556
797.838	6796
797.940	8179
798.042	6025
798.145	4974
798.247	5099
798.349	4566
798.452	6076
798.554	5773
798.656	5960
798.758	6819
798.860	6382
798.962	5589
799.065	4891
799.167	4192
799.269	5979
799.371	6557
799.473	7927
799.575	5899
799.677	5093
799.779	6042
799.881	4299
799.983	6944
800.085	5615
800.187	5214
800.289	3959
800.390	4918
800.492	7314
800.594	5963
800.696	4478
800.798	4846
800.899	5080
801.001	4873
801.103	6089
801.205	4673
801.306	5078
801.408	4270
801.509	5364
801.611	6192
801.713	4849
801.814	4778
801.916	4028
802.017	3485
802.119	4664
802.220	5307
802.322	4223
802.423	6469
802.525	3611
802.626	3975
802.727	5888
802.829	4920
802.930	2042
803.031	5694
803.133	4999
803.234	5479
803.335	5567
803.436	4089
803.538	4983
803.639	4147
803.740	4961
803.841	5158
803.942	5349
804.043	5136
804.144	3304
804.245	4306
804.346	3486
804.447	4163
804.548	4224
804.649	4773
804.750	3520
804.851	3254
804.952	4721
805.053	4105
805.154	3001
805.255	5354
805.355	4475
805.456	4053
805.557	2497
805.658	3676
805.758	5022
805.859	4188
805.960	4464
806.061	3435
806.161	4258
806.262	4437
806.362	3504
806.463	3901
806.564	6198
806.664	5269
806.765	3636
806.865	3801
806.966	3633
807.066	3126
807.166	5280
807.267	4293
807.367	3163
807.468	5145
807.568	1672
807.668	4698
807.769	5157
807.869	3931
807.969	5187
808.069	3875
808.170	3990
808.270	4033
808.370	4386
808.470	3735
808.570	3245
808.670	3723
808.770	3705
808.870	2905
808.970	3903
809.070	3597
809.170	3802
809.271	4740
809.370	4713
809.470	4216
809.570	3019
809.670	2477
809.770	3803
809.870	4503
809.970	4764
810.070	5215
810.169	5151
810.269	3392
810.369	4843
810.469	3602
810.568	3755
810.668	3117
810.768	3362
810.867	3661
810.967	2766
811.066	3834
811.166	3090
811.265	4656
811.365	3477
811.464	3347
811.564	4012
811.663	4170
811.763	3319
811.862	5066
811.962	4741
812.061	3246
812.160	3823
812.260	2814
812.359	3800
812.458	2602
812.557	4866
812.657	3217
812.756	4057
812.855	4838
812.954	3750
813.053	3912
813.153	3579
813.252	2844
813.351	4103
813.450	4518
813.549	3481
813.648	3857
813.747	2762
813.846	5009
813.945	4566
814.044	4632
814.143	4725
814.242	4415
814.341	4527
814.439	4457
814.538	6076
814.637	5291
814.736	5522
814.835	5835
814.933	5905
815.032	7306
815.131	10615
815.229	19449
815.328	24407
815.427	17680
815.525	15799
815.624	15873
815.722	15321
815.821	17110
815.919	17554
816.018	16192
816.116	15293
816.215	15866
816.313	18404
816.412	21457
816.510	20941
816.609	22612
816.707	24551
816.805	21268
816.904	19947
817.002	20897
817.100	21046
817.198	22620
817.296	19540
817.395	21152
817.493	19881
817.591	18961
817.689	19334
817.787	19198
817.885	18783
817.983	17127
818.081	18159
818.179	17741
818.277	21081
818.375	17776
818.473	18426
818.571	16284
818.669	20025
818.767	20162
818.865	16542
818.963	14161
819.061	18315
819.158	16912
819.256	20194
819.354	15767
819.452	17409
819.549	15994
819.647	19287
819.745	15809
819.842	16704
819.940	18055
820.038	16166
820.135	14233
820.233	17679
820.330	15930
820.428	15584
820.525	17483
820.623	15609
820.720	14141
820.818	16089
820.915	16576
821.012	14518
821.110	13664
821.207	15215
821.304	14004
821.402	15791
821.499	15168
821.596	13301
821.693	14984
821.791	14920
821.888	13498
821.985	15914
822.082	12458
822.179	14549
822.276	14559
822.373	11946
822.470	13542
822.567	14329
822.664	12042
822.761	14057
822.858	14617
822.955	13702
823.052	11237
823.149	13785
823.246	14425
823.343	11145
823.440	11854
823.536	14571
823.633	12171
823.730	11387
823.827	13653
823.923	12146
824.020	10997
824.117	14242
824.213	14028
824.310	11091
824.407	9545
824.503	13900
824.600	11221
824.696	10762
824.793	14242
824.889	13865
824.986	10112
825.082	8986
825.179	10052
825.275	13374
825.371	14523
825.468	8006
825.564	5863
825.660	13008
825.757	15412
825.853	10949
825.949	9146
826.045	9297
826.142	12054
826.238	13161
826.334	11536
826.430	10700
826.526	7039
826.622	7644
826.718	12840
826.814	12841
826.910	10374
827.006	6174
827.102	7170
827.198	11056
827.294	12211
827.390	12580
827.486	8409
827.582	6122
827.678	8019
827.774	12523
827.869	8196
827.965	8952
828.061	7648
828.157	11453
828.252	11371
828.348	8605
828.444	8055
828.539	8296
828.635	8894
828.731	9694
828.826	6968
828.922	10398
829.017	10552
829.113	10900
829.208	6819
829.304	8344
829.399	12033
829.495	9766
829.590	7939
829.685	8929
829.781	10621
829.876	9686
829.971	4380
830.066	5109
830.162	9119
830.257	12861
830.352	8553
830.447	6217
830.543	7626
830.638	8963
830.733	10583
830.828	7917
830.923	8576
831.018	9052
831.113	10684
831.208	6758
831.303	4951
831.398	6250
831.493	7929
831.588	12665
831.683	6879
831.778	5460
831.873	7319
831.967	9369
832.062	8983
832.157	7630
832.252	6681
832.346	6671
832.441	8850
832.536	7472
832.631	8109
832.725	6282
832.820	7464
832.914	7623
833.009	6065
833.104	5115
833.198	5831
833.293	7204
833.387	8453
833.482	7908
833.576	7087
833.670	6226
833.765	7361
833.859	8363
833.954	7716
834.048	7816
834.142	5557
834.237	4311
834.331	7354
834.425	7586
834.519	6316
834.613	6311
834.708	5828
834.802	6286
834.896	7244
834.990	7770
835.084	5435
835.178	5033
835.272	5690
835.366	8237
835.460	8458
835.554	6019
835.648	4695
835.742	3575
835.836	4835
835.930	6018
836.024	6900
836.117	6879
836.211	6006
836.305	4399
836.399	5114
836.493	4491
836.586	6871
836.680	6659
836.774	4758
836.867	5156
836.961	3531
837.055	4110
837.148	5231
837.242	5915
837.335	5322
837.429	5218
837.522	4411
837.616	4445
837.709	4914
837.803	5025
837.896	6756
837.989	6097
838.083	3419
838.176	3206
838.269	2904
838.363	6339
838.456	4527
838.549	6345
838.642	4592
838.735	4769
838.829	4971
838.922	4813
839.015	4828
839.108	3666
839.201	5581
839.294	6448
839.387	5178
839.480	3823
839.573	3428
839.666	3353
839.759	4928
839.852	4704
839.945	5255
840.038	4047
840.131	3162
840.223	3810
840.316	4879
840.409	5832
840.502	5963
840.594	6123
840.687	2209
840.780	2676
840.873	2862
840.965	3395
841.058	5399
841.150	6157
841.243	3326
841.336	5284
841.428	3208
841.521	5180
841.613	4396
841.706	4703
841.798	4131
841.890	4306
841.983	2980
842.075	3567
842.167	3004
842.260	4811
842.352	5502
842.444	4976
842.537	2861
842.629	3306
842.721	2849
842.813	4365
842.905	2677
842.997	4856
843.090	4589
843.182	2859
843.274	1885
843.366	3487
843.458	3131
843.550	5836
843.642	3842
843.734	4575
843.826	2773
843.918	3022
844.009	3819
844.101	3810
844.193	3988
844.285	3869
844.377	4465
844.469	3264
844.560	1970
844.652	2898
844.744	2277
844.835	3732
844.927	4587
845.019	4481
845.110	3180
845.202	4790
845.293	2193
845.385	3186
845.476	3482
845.568	5383
845.659	3241
845.751	3650
845.842	3321
845.934	3728
846.025	2374
846.116	4013
846.208	4428
846.299	2576
846.390	1929
846.482	2696
846.573	3495
846.664	3433
846.755	2901
846.846	4052
846.937	2185
847.029	2416
847.120	2418
847.211	3041
847.302	4694
847.393	3244
847.484	3428
847.575	1434
847.666	1425
847.757	2452
847.847	2796
847.938	4895
848.029	4156
848.120	2730
848.211	2812
848.302	1924
848.392	2524
848.483	3224
848.574	2947
848.664	3768
848.755	3201
848.846	2731
848.936	3252
849.027	3739
849.118	3896
849.208	3366
849.299	4064
849.389	6940
849.480	8619
849.570	14332
849.661	25669
849.751	38294
849.841	15678
849.932	5580
850.022	4090
850.112	3792
850.203	3621
850.293	2542
850.383	2834
850.474	2686
850.564	2119
850.654	2286
850.744	2159
850.834	2488
850.924	3830
851.014	5436
851.104	3215
851.194	2294
851.284	2139
851.374	2502
851.464	2419
851.554	2856
851.644	3007
851.734	3613
851.824	3300
851.914	3391
852.004	3076
852.094	2800
852.183	1543
852.273	3010
852.363	2002
852.452	2927
852.542	3021
852.632	2540
852.721	2837
852.811	2765
852.901	3496
852.990	4331
853.080	4119
853.169	4010
853.259	3411
853.348	3867
853.438	3919
853.527	4913
853.617	6781
853.706	10896
853.795	16840
853.885	29986
853.974	49059
854.063	81784
854.152	99448
854.242	49714
854.331	18912
854.420	10470
854.509	8857
854.598	7174
854.687	5106
854.777	5120
854.866	3380
854.955	4044
855.044	2814
855.133	3030
855.222	3246
855.311	3362
855.400	2977
855.488	2234
855.577	3054
855.666	3081
855.755	3263
855.844	2517
855.933	3123
856.021	3318
856.110	2916
856.199	2305
856.288	1756
856.376	2238
856.465	1739
856.554	2828
856.642	3634
856.731	3473
856.819	3188
856.908	3354
856.996	2680
857.085	2208
857.173	2004
857.262	1882
857.350	1571
857.438	2222
857.527	2634
857.615	2258
857.703	3821
857.792	2009
857.880	1714
857.968	1997
858.056	2217
858.145	2304
858.233	2300
858.321	3044
858.409	2552
858.497	3324
858.585	2364
858.673	3138
858.761	1524
858.849	1356
858.937	1725
859.025	2270
859.113	2890
859.201	3130
859.289	4609
859.377	2922
859.465	1522
859.552	2075
859.640	1089
859.728	3191
859.816	2470
859.903	2050
859.991	1712
860.079	2704
860.166	2641
860.254	2471
860.342	2700
860.429	2594
860.517	2616
860.604	3176
860.692	2204
860.779	2778
860.867	2605
860.954	2470
861.042	3310
861.129	4141
861.216	3899
861.304	3384
861.391	2728
861.478	2608
861.565	3031
861.653	3813
861.740	1475
861.827	1893
861.914	2867
862.001	2782
862.089	3447
862.176	3203
862.263	1858
862.350	3133
862.437	2653
862.524	2964
862.611	2786
862.698	3094
862.785	2783
862.871	4544
862.958	4450
863.045	3436
863.132	3333
863.219	2648
863.306	1853
863.392	2959
863.479	2745
863.566	3267
863.652	2945
863.739	2946
863.826	4368
863.912	4339
863.999	3600
864.086	4110
864.172	4852
864.259	4528
864.345	4434
864.432	4776
864.518	3833
864.604	4893
864.691	4307
864.777	5172
864.863	7388
864.950	9947
865.036	13833
865.122	23968
865.209	23635
865.295	20814
865.381	19005
865.467	18000
865.553	18620
865.639	19801
865.726	23679
865.812	30864
865.898	42518
865.984	53954
866.070	80341
866.156	76740
866.242	38742
866.328	25268
866.414	19463
866.499	18711
866.585	17081
866.671	17119
866.757	17281
866.843	16584
866.928	16383
867.014	15682
867.100	16510
867.186	16615
867.271	15577
867.357	14927
867.442	14384
867.528	15706
867.614	14903
867.699	15192
867.785	15669
867.870	14323
867.956	14423
868.041	15232
868.127	13900
868.212	14125
868.297	14425
868.383	15215
868.468	14053
868.553	15708
868.639	14928
868.724	15275
868.809	14286
868.894	13919
868.979	14232
869.065	13440
869.150	11545
869.235	13529
869.320	14447
869.405	11617
869.490	14778
869.575	13696
869.660	10705
869.745	15364
869.830	15787
869.915	12981
870.000	12147
870.085	12718
870.169	15565
870.254	15867
870.339	10246
870.424	10777
870.509	13801
870.593	15116
870.678	14466
870.763	11851
870.847	11207
870.932	13694
871.016	13862
871.101	9277
871.186	12317
871.270	13946
871.355	10219
871.439	11263
871.523	13508
871.608	10186
871.692	10547
871.777	13668
871.861	13601
871.945	11845
872.030	11710
872.114	11800
872.198	10570
872.282	10954
872.367	11010
872.451	10948
872.535	10963
872.619	11242
872.703	11487
872.787	12282
872.871	11101
872.955	9408
873.039	8339
873.123	11254
873.207	11384
873.291	8336
873.375	10184
873.459	11917
873.543	10758
873.627	10458
873.711	8203
873.794	11694
873.878	9996
873.962	8201
874.045	8747
874.129	9982
874.137	9946
874.213	9587
874.245	9641
874.296	9739
874.352	8849
874.380	8410
874.460	9024
874.464	9052
874.547	9141
874.568	9417
874.631	10268
874.676	9788
874.714	9368
874.784	10147
874.798	10303
874.881	8459
874.892	8262
874.965	6985
874.999	7953
875.048	9231
875.107	9238
875.131	9244
875.215	6738
875.215	6737
875.298	7001
875.323	7698
875.381	9372
875.430	10312
875.465	10947
875.538	9155
875.548	8886
875.631	7649
875.646	7431
875.714	6684
875.753	6760
875.798	6804
875.861	9373
875.881	10152
875.964	7899
875.968	7817
876.047	6501
876.076	7021
876.130	7967
876.183	8671
876.213	9079
876.291	9582
876.296	9601
876.379	7553
876.398	7302
876.462	6493
876.506	5995
876.545	5657
876.613	6857
876.628	7112
876.711	7507
876.721	7694
876.794	9168
876.828	9055
876.877	8633
876.935	7351
876.960	6915
877.043	5694
877.043	5703
877.125	7888
877.150	8208
877.208	8646
877.258	7141
877.291	6083
877.365	6209
877.374	6241
877.456	6172
877.472	6049
877.539	5789
877.579	6944
877.622	8035
877.687	7633
877.704	7511
877.787	7534
877.794	7541
877.869	7771
877.901	7727
877.952	7223
878.008	5540
878.034	4930
878.115	5274
878.117	5285
878.199	6181
878.222	6542
878.282	7487
878.329	8036
878.364	8312
878.437	7517
878.447	7340
878.529	5289
878.544	5342
878.611	6042
878.651	6047
878.694	6325
878.758	7129
878.776	7214
878.858	7570
878.865	7484
878.941	5894
878.972	5245
879.023	4692
879.078	5165
879.105	5522
879.185	7237
879.187	7258
879.269	7425
879.292	7327
879.351	6992
879.399	6107
879.433	5442
879.506	5148
879.516	5180
879.598	5727
879.613	5695
879.680	5352
879.720	6107
879.762	6824
879.827	6043
879.844	5793
879.926	5526
879.933	5532
880.007	5957
880.040	5606
880.089	4999
880.147	5603
880.171	5992
880.253	7119
880.254	7115
880.335	5213
880.360	5479
880.417	6792
880.467	6734
880.499	6372
880.574	6149
880.580	6194
880.662	7323
880.680	7100
880.744	5189
880.787	4827
880.825	5143
880.893	5520
880.907	5478
880.989	4674
881.000	4721
881.070	5991
881.106	6330
881.152	5933
881.213	4984
881.233	4762
881.315	4913
881.319	4926
881.396	5929
881.426	5907
881.478	5578
881.532	6674
881.559	7168
881.639	5786
881.641	5740
881.722	5450
881.745	5238
881.803	5484
881.852	5778
881.885	5569
881.958	4351
881.966	4234
882.047	4819
882.064	4640
882.129	4204
882.171	4022
882.210	3672
882.277	3721
882.291	3899
882.372	5421
882.383	5559
882.454	6722
882.489	6950
882.535	6484
882.596	6393
882.616	6483
882.697	5804
882.702	5767
882.778	4171
882.808	3753
882.859	3633
882.914	3797
882.940	4084
883.020	5144
883.021	5153
883.102	5695
883.127	6197
883.183	7138
883.233	6837
883.264	5833
883.339	4087
883.345	4060
883.426	3333
883.445	3401
883.507	4386
883.551	5039
883.587	5331
883.657	6055
883.668	6190
883.749	6535
883.763	6509
883.830	4874
883.869	4119
883.910	3969
883.975	4222
883.991	4371
884.072	4916
884.081	4966
884.152	5893
884.187	6382
884.233	6690
884.292	6430
884.314	5818
884.394	3086
884.398	3012
884.475	2905
884.504	2921
884.555	3186
884.610	3048
884.636	3346
884.716	4923
884.716	4934
884.797	6659
884.821	6809
884.877	6020
884.927	5709
884.958	5445
885.033	4487
885.038	4411
885.118	3097
885.139	2888
885.199	3368
885.244	3801
885.279	4355
885.350	5623
885.359	5819
885.439	7447
885.456	7489
885.520	5411
885.561	4596
885.600	4244
885.667	3889
885.680	4098
885.760	5091
885.773	5181
885.840	3910
885.878	3517
885.920	3830
885.984	4076
886.000	4212
886.080	5185
886.089	5244
886.160	5611
886.195	5700
886.240	4992
886.300	4342
886.320	4611
886.400	5669
886.406	5715
886.480	4286
886.511	3795
886.560	3689
886.616	3453
886.640	3694
886.720	4576
886.722	4595
886.800	4131
886.827	3991
886.879	4315
886.932	4532
886.959	4905
887.038	6128
887.039	6129
887.119	5601
887.143	5478
887.198	4952
887.248	4465
887.278	4451
887.354	4382
887.358	4394
887.437	4494
887.459	4589
887.517	5165
887.564	5404
887.596	4800
887.669	3670
887.676	3616
887.755	2880
887.774	2728
887.835	3278
887.880	3680
887.914	4151
887.985	5071
887.994	5169
888.073	6061
888.090	6206
888.153	6897
888.195	7283
888.232	5911
888.300	3593
888.311	3554
888.391	3160
888.405	3103
888.470	3203
888.510	3229
888.549	3297
888.615	3584
888.628	3954
888.708	6105
888.720	6410
888.787	5225
888.825	4550
888.866	3918
888.930	3082
888.945	3195
889.024	3737
889.035	3810
889.103	4730
889.140	5202
889.182	4587
889.245	3738
889.261	3921
889.340	4771
889.349	4869
889.419	4001
889.454	3566
889.498	3648
889.559	3794
889.577	3881
889.656	4253
889.664	4293
889.735	5453
889.768	5989
889.814	5441
889.873	4687
889.978	3821
890.083	4124
890.187	5021
890.292	4980
890.397	4274
890.501	3892
890.606	3218
890.710	4349
890.815	5748
890.919	4413
891.024	3226
891.128	2707
891.233	2380
891.337	5265
891.442	5035
891.546	4945
891.650	3533
891.755	3338
891.859	5309
891.963	6026
892.068	4724
892.172	3399
892.276	1722
892.380	3050
892.484	5505
892.589	4703
892.693	3723
892.797	2293
892.901	2647
893.005	2783
893.109	6151
893.213	5249
893.317	3810
893.421	2651
893.525	1922
893.629	3347
893.733	5147
893.837	3131
893.941	3771
894.045	3259
894.148	1671
894.252	3453
894.356	5389
894.460	6296
894.564	4283
894.667	3230
894.771	2235
894.875	2295
894.978	3162
895.082	4436
895.186	4805
895.289	3624
895.393	2903
895.496	5044
895.600	3498
895.703	2358
895.807	3548
895.910	3673
896.014	3471
896.117	2679
896.221	4203
896.324	4350
896.427	2643
896.531	1896
896.634	3387
896.737	2631
896.840	3277
896.944	4599
897.047	5274
897.150	3272
897.253	2909
897.356	2245
897.460	2439
897.563	2842
897.666	3652
897.769	4057
897.872	2541
897.975	2733
898.078	3001
898.181	2551
898.284	3504
898.387	4709
898.490	5195
898.593	2469
898.695	3181
898.798	2949
898.901	3018
899.004	3412
899.107	3048
899.209	3290
899.312	4990
899.415	3345
899.518	2655
899.620	2065
899.723	2998
899.826	2917
899.928	2746
900.031	3508
900.133	4884
900.236	2631
900.338	1615
900.441	2364
900.543	3604
900.646	2754
900.748	2883
900.851	3719
900.953	2591
901.055	2552
901.158	3066
901.260	1819
901.362	2008
901.465	2082
901.567	2945
901.669	4839
901.771	3266
901.873	2553
901.976	2494
902.078	2788
902.180	2454
902.282	2470
902.384	3374
902.486	3717
902.588	3802
902.690	1974
902.792	2390
902.894	3113
902.996	4028
903.098	3465
903.200	1662
903.302	1745
903.404	2040
903.505	2136
903.607	2709
903.709	5026
903.811	4855
903.913	3717
904.014	1437
904.116	1040
904.218	2310
904.319	3482
904.421	5172
904.523	2934
904.624	2561
904.726	1703
904.827	2023
904.929	2126
905.030	2408
905.132	4173
905.233	2965
905.335	2041
905.436	2950
905.537	2547
905.639	2794
905.740	3234
905.841	4243
905.943	3030
906.044	2524
906.145	2580
906.247	1896
906.348	2267
906.449	2568
906.550	3635
906.651	2667
906.752	1860
906.854	2058
906.955	2115
907.056	2804
907.157	3713
907.258	3104
907.359	2482
907.460	2060
907.561	1971
907.662	1998
907.762	2366
907.863	2802
907.964	4190
908.065	2209
908.166	2768
908.267	1995
908.367	1343
908.468	2107
908.569	3013
908.670	3997
908.770	1865
908.871	3115
908.971	3280
909.072	2200
909.173	1980
909.273	2263
909.374	3043
909.474	2464
909.575	2316
909.675	2352
909.776	3431
909.876	1625
909.977	2696
910.077	2530
910.177	3268
910.278	2380
910.378	1952
910.478	2440
910.579	2872
910.679	2630
910.779	3598
910.879	4081
910.980	2168
911.080	2535
911.180	1713
911.280	1806
911.380	1317
911.480	1616
911.580	2321
911.680	2301
911.780	3001
911.880	3388
911.980	1251
912.080	2260
912.180	2222
912.280	2554
912.380	2569
912.480	1763
912.580	2308
912.679	2185
912.779	3142
912.879	2757
912.979	1478
913.078	1798
913.178	2112
913.278	1708
913.377	1514
913.477	1111
913.577	1796
913.676	2894
913.776	4109
913.875	2451
913.975	2879
914.074	2638
914.174	3038
914.273	1264
914.373	1970
914.472	1736
914.572	1823
914.671	2334
914.770	2956
914.870	2713
914.969	2257
915.068	2926
915.167	3695
915.267	2665
915.366	1673
915.465	3009
915.564	2440
915.663	3006
915.763	2364
915.862	3839
915.961	3866
916.060	2840
916.159	1571
916.258	1108
916.357	2061
916.456	2972
916.555	2746
916.654	2989
916.752	3965
916.851	3251
916.950	1946
917.049	2449
917.148	2717
917.247	2347
917.345	2470
917.444	1621
917.543	2929
917.642	3351
917.740	3605
917.839	3862
917.937	4479
918.036	3766
918.135	1850
918.233	2225
918.332	2750
918.430	3193
918.529	2281
918.627	3478
918.726	3208
918.824	3495
918.923	2659
919.021	2578
919.119	2297
919.218	2133
919.316	2590
919.414	3760
919.512	3897
919.611	3611
919.709	2854
919.807	4018
919.905	5868
920.003	4102
920.102	4004
920.200	4342
920.298	5076
920.396	3271
920.494	3920
920.592	3782
920.690	4280
920.788	3939
920.886	4491
920.984	5527
921.082	5717
921.180	5815
921.277	5508
921.375	6893
921.473	8574
921.571	7976
921.669	7776
921.766	6392
921.864	8272
921.962	7332
922.060	7265
922.157	7709
922.255	7140
922.352	7481
922.450	7872
922.548	9482
922.645	10168
922.743	13129
922.840	20627
922.938	23048
923.035	19331
923.133	19460
923.230	23332
923.327	27753
923.425	23777
923.522	24375
923.619	21647
923.717	20239
923.814	19273
923.911	20287
924.008	20884
924.106	18847
924.203	18953
924.300	20858
924.397	19840
924.494	19805
924.591	19213
924.688	18255
924.786	18745
924.883	19174
924.979	19059
925.077	18433
925.173	17850
925.270	18748
925.367	18038
925.464	19917
925.561	18939
925.658	20008
925.755	15442
925.852	20429
925.948	18428
926.045	17585
926.142	18805
926.239	18879
926.335	14452
926.432	17669
926.529	19015
926.625	19929
926.722	15989
926.818	15860
926.915	19226
927.011	17164
927.108	17384
927.204	17567
927.301	14960
927.397	18202
927.494	20501
927.590	13334
927.687	14555
927.783	20141
927.879	19549
927.976	16617
928.072	15242
928.168	17990
928.264	16994
928.361	16176
928.457	19799
928.553	14669
928.649	15382
928.745	16282
928.841	14948
928.937	16792
929.033	15649
929.129	16066
929.225	18484
929.321	14636
929.417	13594
929.513	16775
929.609	13838
929.705	14255
929.801	16217
929.897	13397
929.993	13877
930.089	15341
930.184	13417
930.280	15302
930.376	18497
930.471	13025
930.567	11939
930.663	14586
930.758	12682
930.854	13998
930.950	13055
931.045	11839
931.141	13889
931.236	16811
931.332	13626
931.427	11968
931.523	16566
931.618	14328
931.714	9820
931.809	12188
931.905	15654
932.000	10512
932.095	9984
932.191	15679
932.286	17316
932.381	13360
932.476	11148
932.572	13245
932.667	10687
932.762	11962
932.857	12163
932.952	15796
933.047	11939
933.142	9900
933.237	13137
933.332	14591
933.427	15243
933.522	11610
933.617	10517
933.712	11439
933.807	14858
933.902	15413
933.997	15298
934.092	10985
934.187	12158
934.282	12430
934.376	12742
934.471	13259
934.566	11007
934.661	10422
934.755	12955
934.850	13525
934.945	11186
935.039	10484
935.134	8965
935.228	11220
935.323	16363
935.417	10115
935.512	7741
935.606	8630
935.701	11952
935.795	12453
935.890	11310
935.984	9069
936.079	8027
936.173	10434
936.267	9757
936.362	8881
936.456	11381
936.550	14284
936.644	11097
936.738	8097
936.833	8522
936.927	6963
937.021	9742
937.115	10854
937.209	11664
937.303	9289
937.397	7935
937.491	10311
937.585	11415
937.679	10396
937.773	8047
937.867	7419
937.961	7980
938.055	11554
938.149	10390
938.243	7193
938.337	7168
938.430	8219
938.524	12517
938.618	9846
938.712	6484
938.805	9955
938.899	10506
938.993	13453
939.086	7075
939.180	5159
939.274	7467
939.367	10804
939.461	10409
939.554	7894
939.648	7336
939.741	7302
939.835	9966
939.928	12541
940.022	11034
940.115	8422
940.208	10457
940.302	12038
940.395	11816
940.488	7454
940.582	8120
940.675	6489
940.768	6735
940.861	10601
940.954	10486
941.048	5970
941.141	5470
941.234	7182
941.327	7576
941.420	8814
941.513	9420
941.606	7530
941.699	6948
941.792	9894
941.885	7894
941.978	9346
942.071	9038
942.164	5227
942.257	6072
942.349	7329
942.442	8232
942.535	5830
942.628	6240
942.721	6462
942.813	8119
942.906	8352
942.999	7699
943.091	5368
943.184	7967
943.277	7013
943.369	5168
943.462	5255
943.554	7720
943.647	6589
943.739	9210
943.832	8967
943.924	4338
944.017	4591
944.109	5268
944.201	7004
944.294	6460
944.386	6336
944.478	5569
944.571	4917
944.663	5913
944.755	6121
944.847	7781
944.940	6299
945.032	4489
945.124	4512
945.216	7171
945.308	7275
945.400	6476
945.492	6119
945.584	8121
945.676	8372
945.768	6939
945.860	7538
945.952	8279
946.044	7136
946.136	5309
946.228	5857
946.320	5805
946.412	7291
946.503	7967
946.595	8058
946.687	4691
946.779	3457
946.870	5414
946.962	5023
947.054	6302
947.145	7060
947.237	5234
947.329	6017
947.420	6826
947.512	5737
947.603	4040
947.695	5579
947.786	4374
947.878	4770
947.969	6079
948.061	6674
948.152	5931
948.243	3413
948.335	2873
948.426	3821
948.517	5508
948.609	6520
948.700	6344
948.791	4805
948.882	3454
948.973	5293
949.065	5913
949.156	4919
949.247	3843
949.338	4864
949.429	3766
949.520	3926
949.611	5345
949.702	6238
949.793	4925
949.884	5125
949.975	4876
950.066	2985
950.157	3535
950.247	4379
950.338	3149
950.429	4111
950.520	4773
950.611	4142
950.701	4687
950.792	6898
950.883	5888
950.973	4890
951.064	5480
951.155	5964
951.245	5942
951.336	5662
951.427	5753
951.517	7810
951.608	5525
951.698	4297
951.788	3003
951.879	2661
951.969	3580
952.060	3421
952.150	5512
952.240	6248
952.331	4738
952.421	5749
952.511	3044
952.602	2514
952.692	3436
952.782	3218
952.872	4016
952.962	4794
953.052	3832
953.143	3671
953.233	5234
953.323	4577
953.413	5497
953.503	4893
953.593	5323
953.683	4155
953.773	2991
953.863	2719
953.953	2553
954.042	3109
954.132	4525
954.222	4099
954.312	3195
954.402	4072
954.492	3582
954.581	4453
954.671	4059
954.761	3385
954.850	4050
954.940	2357
955.030	2616
955.119	3308
955.209	3216
955.298	4086
955.388	4684
955.477	5334
955.567	2574
955.656	3465
955.746	3446
955.835	3441
955.925	2490
956.014	3621
956.103	5668
956.193	7001
956.282	4986
956.371	4232
956.461	3713
956.550	3807
956.639	3195
956.728	2394
956.817	3893
956.906	3435
956.995	5609
957.085	3315
957.174	3957
957.263	3773
957.352	2856
957.441	4341
957.530	3430
957.619	3242
957.708	3720
957.796	2844
957.885	3307
957.974	3670
958.063	3079
958.152	1694
958.241	2535
958.329	1829
958.418	2798
958.507	2550
958.596	5641
958.684	3428
958.773	3808
958.861	2825
958.950	2493
959.039	1721
959.127	2142
959.216	3521
959.304	2465
959.393	3561
959.481	3533
959.570	2303
959.658	1239
959.746	2481
959.835	2451
959.923	2615
960.011	2121
960.100	4338
960.188	3273
960.276	3475
960.365	2310
960.453	1402
960.541	872
960.629	3637
960.717	2376
960.805	813
960.893	3409
960.981	2876
961.069	5529
961.158	4885
961.245	5954
961.333	4728
961.421	3148
961.509	4051
961.597	4260
961.685	2479
961.773	2632
961.861	3427
961.949	3892
962.036	1872
962.124	2872
962.212	3139
962.299	2720
962.387	1976
962.475	3357
962.562	2330
962.650	4060
962.738	3000
962.825	1854
962.913	2531
963.000	2818
963.088	3741
963.175	2852
963.263	2064
963.350	2629
963.438	2976
963.525	1668
963.612	2716
963.700	1737
963.787	3406
963.874	2429
963.962	2347
964.049	1893
964.136	2648
964.223	2284
964.310	2111
964.398	3256
964.485	2869
964.572	3418
964.659	2704
964.746	2044
964.833	2150
964.920	1446
965.007	2092
965.094	2243
965.181	2163
965.268	3210
965.355	2279
965.441	3194
965.528	1890
965.615	3619
965.702	2915
965.789	2063
965.875	3145
965.962	4133
966.049	2488
966.136	4403
966.222	3361
966.309	3132
966.395	3256
966.482	3751
966.569	3515
966.655	4401
966.742	3131
966.828	2832
966.915	3071
967.001	2361
967.087	1634
967.174	2236
967.260	2511
967.347	2751
967.433	2347
967.519	2888
967.605	3084
967.692	2851
967.778	2323
967.864	1432
967.950	2946
968.036	1924
968.123	2453
968.209	2008
968.295	1560
968.381	3462
968.467	2746
968.553	1753
968.639	2689
968.725	2389
968.811	2831
968.897	4150
968.983	2497
969.069	2421
969.154	2239
969.240	2245
969.326	2182
969.412	1687
969.497	1948
969.583	2036
969.669	3984
969.755	2874
969.840	3090
969.926	5565
970.012	7280
970.097	7712
970.183	5001
970.268	3545
970.354	3313
970.439	1713
970.525	2960
970.610	1687
970.696	3613
970.781	2039
970.866	1461
970.952	3292
971.037	2494
971.122	3532
971.208	2030
971.293	2984
971.378	2004
971.463	2334
971.549	2232
971.634	2068
971.719	2299
971.804	2239
971.889	3719
971.974	1996
972.059	2599
972.144	3141
972.229	2292
972.314	1866
972.399	2882
972.484	1712
972.569	3265
972.654	1219
972.739	2631
972.824	1597
972.908	2402
972.993	1655
973.078	2363
973.163	2880
973.247	1721
973.332	640
973.417	2885
973.501	2248
973.586	3290
973.671	3091
973.755	1754
973.840	2935
973.924	3531
974.009	4336
974.093	4563
974.178	4623
974.262	3518
974.346	3338
974.431	1914
974.515	3475
974.600	2768
974.684	3058
974.768	2466
974.852	3320
974.937	2097
975.021	2880
975.105	3101
975.189	2603
975.273	2846
975.358	2171
975.442	1563
975.526	2454
975.610	1821
975.694	1789
975.778	2985
975.862	2252
975.946	237
976.030	4572
976.114	1401
976.198	2335
976.281	1978
976.365	3387
976.449	2111
976.533	2370
976.617	1854
976.700	2196
976.784	2376
976.868	1430
976.951	1466
977.035	1736
977.119	2629
977.202	2538
977.286	2827
977.369	3932
977.453	6537
977.536	5046
977.620	4282
977.703	3863
977.787	3187
977.870	4429
977.953	4620
978.037	1980
978.120	2101
978.203	3066
978.287	2965
978.370	2754
978.453	1640
978.536	2271
978.620	3547
978.703	2192
978.786	2349
978.869	1422
978.952	1650
979.035	4886
979.118	2292
979.201	2115
979.284	3572
979.367	2769
979.450	2763
979.533	2122
979.616	2662
979.699	2611
979.782	3408
979.865	2439
979.948	2401
980.030	2130
980.113	2918
980.196	2231
980.279	2713
980.361	2490
980.444	3174
980.526	4364
980.609	5799
980.692	6127
980.774	5835
980.857	3815
980.939	4825
981.022	3435
981.104	3525
981.187	2643
981.269	3519
981.352	3240
981.434	2924
981.516	2548
981.599	4459
981.681	3157
981.763	3507
981.846	3336
981.928	4016
982.010	3486
982.092	2210
982.174	3770
982.256	3062
982.339	2793
982.421	2304
982.503	3837
982.585	1720
982.667	2944
982.749	3819
982.831	2326
982.913	1813
982.995	3504
983.077	2487
983.158	5361
983.240	1558
983.322	4549
983.404	7310
983.486	6555
983.568	5216
983.649	4547
983.731	4842
983.813	4005
983.894	4673
983.976	3930
984.058	3385
984.139	3969
984.221	3381
984.302	3965
984.384	3376
984.465	3152
984.547	4791
984.628	3518
984.710	4530
984.791	3533
984.872	4184
984.954	4088
985.035	5023
985.116	4266
985.198	3952
985.279	5509
985.360	3082
985.441	3729
985.522	5042
985.604	4773
985.685	3043
985.766	4506
985.847	6097
985.928	3620
986.009	3512
986.090	4862
986.171	4662
986.252	4167
986.333	4201
986.414	3282
986.495	4869
986.576	4358
986.656	4825
986.737	5126
986.818	4915
986.899	4234
986.980	4451
987.060	5582
987.141	5841
987.222	5857
987.302	6760
987.383	7255
987.464	6739
987.544	6668
987.625	5571
987.705	6351
987.786	6547
987.866	6139
987.947	5519
988.027	6649
988.108	5422
988.188	5730
988.268	5633
988.349	6003
988.429	5706
988.509	5809
988.589	5470
988.670	3613
988.750	6170
988.830	5213
988.910	6296
988.990	5688
989.070	5009
989.151	5388
989.231	4669
989.311	4880
989.391	4099
989.471	4998
989.551	5674
989.631	4118
989.711	5737
989.791	3778
989.870	3512
989.950	4855
990.030	4251
990.110	5071
990.190	3929
990.269	3788
990.349	4510
990.429	5107
990.509	4550
990.588	3473
990.668	4452
990.747	3962
990.827	3437
990.907	4200
990.986	5022
991.066	4061
991.145	2884
991.225	4613
991.304	4397
991.383	4299
991.463	3528
991.542	5108
991.622	3629
991.701	2818
991.780	2828
991.859	3721
991.939	2869
992.018	3989
992.097	4560
992.176	2890
992.256	2931
992.335	3187
992.414	4222
992.493	3106
992.572	2639
992.651	4618
992.730	3257
992.809	3324
992.888	3465
992.967	3211
993.046	2951
993.125	1877
993.203	3076
993.282	3613
993.361	2775
993.440	2928
993.519	2481
993.597	3764
993.676	1956
993.755	3783
993.834	3168
993.912	1783
993.991	2531
994.069	2349
994.148	1711
994.226	2371
994.305	2257
994.384	2664
994.462	4280
994.540	1749
994.619	1694
994.697	2340
994.776	3170
994.854	2718
994.932	1700
995.011	2316
995.089	2195
995.167	1622
995.245	2189
995.324	2893
995.402	3115
995.480	1790
995.558	2163
995.636	761
995.714	2315
995.792	2801
995.870	1055
995.948	1390
996.026	1127
996.104	765
996.182	3316
996.260	1758
996.338	1451
996.416	1186
996.494	1724
996.572	2500
996.649	813
996.727	816
996.805	3240
996.883	2050
996.960	1176
997.038	2572
997.116	1848
997.193	831
997.271	1627
997.348	280
997.426	1250
997.504	1338
997.581	2379
997.658	2477
997.736	599
997.813	782
997.891	1835
997.968	1385
998.046	779
998.123	1232
998.200	2735
998.277	1817
998.355	1354
998.432	1162
998.509	1247
998.586	2447
998.663	1677
998.741	1348
998.818	1265
998.895	625
998.972	1346
999.049	1816
999.126	1420
999.203	1323
999.280	914
999.357	825
999.434	780
999.511	1539
999.587	1229
999.664	688
999.741	1238
999.818	1899
999.895	987
999.971	700
1000.048	721
1000.125	2085
1000.202	-539
1000.278	1303
1000.355	1444
1000.431	577
1000.508	-597
1000.584	906
1000.661	1857
1000.738	759
1000.814	1226
1000.890	1143
1000.967	977
1001.043	753
1001.120	-692
1001.196	781
1001.272	447
1001.349	170
1001.425	1608
1001.501	1016
1001.577	48
1001.654	932
1001.730	519
1001.806	530
1001.882	-646
1001.958	1452
1002.034	594
1002.110	218
1002.186	-721
1002.262	160
1002.338	881
1002.414	1372
1002.490	1357
1002.566	428
1002.642	593
1002.718	943
1002.794	-8
1002.870	778
1002.945	195
1003.021	400
1003.097	638
1003.173	585
1003.248	-175
1003.324	956
1003.400	1328
1003.475	44
1003.551	543
1003.626	95
1003.702	399
1003.777	78
1003.853	-100
1003.928	-412
1004.004	-512
1004.079	357
1004.155	764
1004.230	-231
1004.305	1372
1004.381	122
1004.456	-221
1004.531	-301
1004.607	-5
1004.682	-196
1004.757	577
1004.832	596
1004.907	-154
1004.982	-582
1005.057	128
1005.133	17
1005.208	576
1005.283	155
1005.358	170
1005.433	-1031
1005.508	180
1005.583	-149
1005.657	315
1005.732	311
1005.807	-1013
1005.882	147
1005.957	-70
1006.032	218
1006.106	-735
1006.181	-327
1006.256	694
1006.331	-197
1006.405	-923
1006.480	19
1006.554	-577
1006.629	-259
1006.704	-255
1006.778	55
1006.853	219
1006.927	-261
1007.002	-566
1007.076	-883
1007.150	-630
1007.225	87
1007.299	267
1007.373	-1891
1007.448	-635
1007.522	-506
1007.596	-760
1007.671	-793
1007.745	111
1007.819	-611
1007.893	-101
1007.967	-106
1008.041	-1397
1008.115	-9
1008.190	-1437
1008.264	330
1008.338	-1157
1008.412	-294
1008.486	213
1008.560	-286
1008.633	-1148
1008.707	-6
1008.781	778
1008.855	-85
1008.929	-649
1009.003	-469
1009.076	-631
1009.150	-719
1009.224	-172
1009.298	-496
1009.371	-1274
1009.445	-121
1009.519	-623
1009.592	-1221
1009.666	141
1009.739	-470
1009.813	-1272
1009.886	-77
1009.960	-1237
1010.033	-743
1010.107	-568
1010.180	-1447
1010.253	-1253
1010.327	-563
1010.400	-531
1010.473	-999
1010.547	-256
1010.620	-1009
1010.693	-201
1010.766	-1230
1010.840	212
1010.913	-255
1010.986	-2054
1011.059	-1383
1011.132	-644
1011.205	-451
1011.278	-977
1011.351	-671
1011.424	-660
1011.497	-1214
1011.570	-446
1011.643	-837
1011.716	-830
1011.789	-1028
1011.862	-575
1011.934	-141
1012.007	-2095
1012.080	80
1012.153	-568
1012.225	172
1012.298	-705
1012.371	-920
1012.443	-1290
1012.516	-1476
1012.588	-673
1012.661	-697
1012.733	-1786
1012.806	-381
1012.879	-1623
1012.951	-1241
1013.023	-1548
1013.096	-631
1013.168	-998
1013.241	-23
1013.313	-1187
1013.385	-714
1013.458	-1215
1013.530	-829
1013.602	-1724
1013.674	-1329
1013.746	-1512
1013.819	-1597
1013.891	-328
1013.963	-1064
1014.035	-1585
1014.107	-917
1014.179	-356
1014.251	-1313
1014.323	-1077
1014.395	-900
1014.467	-1255
1014.539	-1119
1014.611	-1200
1014.683	-1258
1014.754	-1554
1014.826	-2263
1014.898	-839
1014.970	-1328
1015.042	-185
1015.113	-768
1015.185	-1033
1015.257	-1584
1015.328	-1146
1015.400	-591
1015.471	-934
1015.543	-1202
1015.615	-723
1015.686	-487
1015.757	-1245
1015.829	-1176
1015.901	-1695
1015.972	-1410
1016.043	-1655
1016.115	-682
1016.186	-815
1016.257	-1269
1016.328	-1914
1016.400	-1219
1016.471	-1768
1016.542	-934
1016.613	-1917
1016.685	-433
1016.756	-660
1016.827	-1127
1016.898	-1559
1016.969	-600
1017.040	-2487
1017.111	-974
1017.182	-1985
1017.253	-1487
1017.324	-1900
1017.395	-1199
1017.466	-939
1017.537	-1207
1017.608	-1514
1017.678	-1939
1017.749	-1442
1017.820	-1912
1017.891	-1421
1017.961	-1688
1018.032	-1358
1018.103	-1010
1018.173	-1321
1018.244	-779
1018.315	-1835
1018.385	-1634
1018.456	-1009
1018.526	-1504
1018.597	-803
1018.667	-1023
1018.738	-1992
1018.808	-1540
1018.878	-737
1018.949	-2198
1019.019	-1081
1019.089	-1555
1019.160	-762
1019.230	-2136
1019.300	-828
1019.371	-1890
1019.441	-1377
1019.511	-1806
1019.581	-1409
1019.651	-1455
1019.721	-1098
1019.791	-1603
1019.861	-1240
1019.931	-851
1020.001	-1787
1020.071	-1305
1020.141	-1552
1020.211	-1676
1020.281	-1655
1020.351	-1727
1020.421	-1109
1020.491	-996
1020.560	-2100
1020.630	-1834
1020.700	-1329
1020.770	-1621
1020.839	-2146
1020.909	-1162
1020.979	-1590
1021.048	-2022
1021.118	-1924
1021.187	-2056
1021.257	-1033
1021.326	-1818
1021.396	-1410
1021.465	-1441
1021.535	-1455
1021.604	-1847
1021.674	-1608
1021.743	-811
1021.812	-2455
1021.882	-1265
1021.951	-1534
1022.020	-1377
1022.089	-1460
1022.159	-1035
1022.228	-1852
1022.297	-1785
1022.366	-2217
1022.435	-1899
1022.504	-1940
1022.573	-2474
1022.642	-1219
1022.711	-1440
1022.781	-1526
1022.849	-1916
1022.918	-1573
1022.987	-1574
1023.056	-1920
1023.125	-1357
1023.194	-1434
1023.263	-1422
1023.331	-1227
1023.400	-975
1023.469	-1964
1023.538	-1498
1023.606	-1612
1023.675	-1881
1023.744	-1742
1023.812	-1737
1023.881	-1885
1023.949	-1059
1024.018	-1624
1024.086	-1771
1024.155	-1847
1024.223	-1138
1024.292	-1779
1024.360	-2201
1024.429	-2128
1024.497	-2032
1024.565	-1841
1024.634	-1032
1024.702	-1349
1024.770	-1996
1024.838	-1555
1024.907	-1981
1024.975	-1597
1025.043	-1365
1025.111	-1990
1025.179	-1737
1025.247	-2605
1025.315	-1273
1025.383	-2905
1025.451	-1791
1025.519	-1830
1025.587	-1906
1025.655	-1471
1025.723	-1730
1025.791	-881
1025.859	-1266
1025.927	-1139
1025.995	-1799
1026.062	-1811
1026.130	-1376
1026.198	-2064
1026.266	-1391
1026.333	-1128
1026.401	-1618
1026.469	-1606
1026.536	-1738
1026.604	-1906
1026.671	-1872
1026.739	-2209
1026.806	-1409
1026.874	-1947
1026.941	-2156
1027.009	-1642
1027.076	-2201
1027.144	-1289
1027.211	-1654
1027.278	-2294
1027.345	-1595
1027.413	-1022
1027.480	-1420
1027.547	-2146
1027.614	-1965
1027.682	-1482
1027.749	-1294
1027.816	-1571
1027.883	-1660
1027.950	-1908
1028.017	-1834
1028.084	-1151
1028.151	-2426
1028.218	-1128
1028.285	-935
1028.352	-2336
1028.419	-1047
1028.486	-1260
1028.553	-1762
1028.619	-2068
1028.686	-1534
1028.753	-1834
1028.820	-1772
1028.886	-2035
1028.953	-1466
1029.020	-1882
1029.086	-2117
1029.153	-1947
1029.220	-1612
1029.286	-2125
1029.353	-1818
1029.419	-1631
1029.486	-1629
1029.552	-1984
1029.619	-2106
1029.685	-2051
1029.751	-1494
1029.818	-1099
1029.884	-1239
1029.951	-1546
1030.017	-2146
1030.083	-2036
1030.149	-1848
1030.216	-1649
1030.282	-2092
1030.348	-2154
1030.414	-1716
1030.480	-1753
1030.546	-1756
1030.612	-1088
1030.678	-1630
1030.744	-1189
1030.810	-2241
1030.876	-1448
1030.942	-2442
1031.008	-2457
1031.074	-1985
1031.140	-1605
1031.206	-1468
1031.272	-2474
1031.337	-1402
1031.403	-1047
1031.469	-2413
1031.534	-2200
1031.600	-1220
1031.666	-2250
1031.731	-1416
1031.797	-1749
1031.863	-1375
1031.928	-1380
1031.994	-2432
1032.059	-2177
1032.125	-1855
1032.190	-2292
1032.256	-2011
1032.321	-2279
1032.386	-2901
1032.452	-1011
1032.517	-1379
1032.582	-2106
1032.647	-1593
1032.713	-2008
1032.778	-1703
1032.843	-2250
1032.908	-1795
1032.974	-1099
1033.039	-2537
1033.104	-1512
1033.169	-1110
1033.234	-1472
1033.299	-1145
1033.364	-1511
1033.429	-1053
1033.494	-2029
1033.559	-2495
1033.624	-1409
1033.688	-1700
1033.753	-2635
1033.818	-1599
1033.883	-947
1033.948	-738
1034.013	-644
1034.077	-464
1034.142	-474
1034.207	687
1034.271	1336
1034.336	2095
1034.400	829
1034.465	217
1034.530	-1312
1034.594	-1243
1034.658	-1126
1034.723	-2209
1034.787	-1180
1034.852	-577
1034.916	-1929
1034.981	-1564
1035.045	-2189
1035.109	-2075
1035.173	-465
1035.238	-1506
1035.302	-2014
1035.366	-1937
1035.430	-2042
1035.495	-1821
1035.559	-1611
1035.623	-2139
1035.687	-2411
1035.751	-2527
1035.815	-2323
1035.879	-1761
1035.943	-1448
1036.007	-1876
1036.071	-1352
1036.135	-2051
1036.198	-1708
1036.262	-1973
1036.326	-1779
1036.390	-1540
1036.454	-2095
1036.517	-2304
1036.581	-2130
1036.645	-1621
1036.709	-1694
1036.772	-2462
1036.836	-1923
1036.900	-2573
1036.963	-1601
1037.026	-1941
1037.090	-1839
1037.154	-2176
1037.217	-1879
1037.280	-2292
1037.344	-2238
1037.407	-1733
1037.471	-1454
1037.534	-1855
1037.597	-1819
1037.661	-1783
1037.724	-2113
1037.787	-2034
1037.850	-903
1037.913	-1667
1037.977	-1577
1038.040	-2040
1038.103	-1543
1038.166	-2100
1038.229	-1565
1038.292	-2475
1038.355	-1814
1038.418	-2330
1038.481	-1605
1038.544	-2093
1038.607	-1479
1038.670	-1571
1038.732	-1923
1038.795	-2038
1038.858	-1551
1038.921	-1937
1038.984	-1301
1039.046	-2571
1039.109	-1787
1039.172	-2129
1039.234	-1653
1039.297	-2106
1039.360	-1378
1039.422	-1737
1039.485	-2195
1039.547	-2061
1039.610	-1380
1039.672	-1898
1039.734	-2399
1039.797	-1235
1039.859	-1557
1039.922	-2467
1039.984	-1494
1040.046	-1766
1040.109	-1557
1040.171	-2175
1040.233	-1723
1040.295	-1384
1040.358	-2398
1040.420	-1508
1040.482	-1935
1040.544	-2062
1040.606	-1793
1040.668	-1675
1040.730	-1904
1040.792	-1702
1040.854	-2134
1040.916	-1475
1040.978	-2450
1041.040	-1061
1041.102	-1319
1041.164	-2977
1041.225	-1778
1041.287	-2260
1041.349	-1848
1041.411	-2249
1041.472	-1955
1041.534	-1697
1041.596	-2224
1041.657	-1729
1041.719	-1020
1041.781	-1525
1041.842	-1608
1041.904	-1902
1041.965	-1794
1042.027	-2026
1042.088	-1549
1042.150	-1831
1042.211	-1956
1042.272	-1547
1042.334	-1663
1042.395	-1773
1042.456	-2179
1042.518	-1709
1042.579	-1474
1042.640	-1553
1042.701	-976
1042.763	-1713
1042.824	-2308
1042.885	-2383
1042.946	-1804
1043.007	-2022
1043.068	-1484
1043.129	-1791
1043.190	-1306
1043.251	-2060
1043.312	-1422
1043.373	-2150
1043.434	-2216
1043.495	-1327
1043.556	-1525
1043.616	-2246
1043.677	-1755
1043.738	-1739
1043.799	-1609
1043.859	-2234
1043.920	-1536
1043.981	-2000
1044.041	-1958
1044.102	-1945
1044.162	-1864
1044.223	-1789
1044.284	-2012
1044.344	-2080
1044.405	-1050
1044.465	-1859
1044.525	-1841
1044.586	-1132
1044.646	-918
1044.707	-1378
1044.767	-1455
1044.827	-1371
1044.887	-826
1044.948	-1722
1045.008	-1175
1045.068	-1812
1045.128	-966
1045.188	-1321
1045.249	-1594
1045.309	-2445
1045.369	-1753
1045.429	-1613
1045.489	-1885
1045.549	-2005
1045.609	-1852
1045.669	-2522
1045.729	-1750
1045.789	-1331
1045.848	-802
1045.908	-1214
1045.968	-1364
1046.028	-1407
1046.088	-1124
1046.147	-1699
1046.207	-1713
1046.267	-1787
1046.326	-1521
1046.386	-1172
1046.446	-1277
1046.505	-850
1046.565	-943
1046.624	-1169
1046.684	-871
1046.743	-1019
1046.803	-343
1046.862	114
1046.922	0
