'Start Wavelength	183.907
'End Wavelength	1046.922
'Gate Delay	5.000
'Gate Width (ms)	1.050
'Laser Output Level	0.000
'X Position	0.000
'Y Position	0.000
'Z Position	0.000
'Grid Point Number	1.000
'Shot Number	100.000
183.907	11.000
183.977	63.000
184.047	-35
184.116	447
184.186	-262
184.256	-456
184.325	-544
184.395	-828
184.465	345
184.534	-52
184.604	-1032
184.674	386
184.743	-1163
184.813	78
184.883	-316
184.952	-468
185.022	58
185.092	-663
185.161	46
185.231	289
185.301	-810
185.370	562
185.440	64
185.509	-462
185.579	-191
185.649	-268
185.718	269
185.788	1071
185.857	-25
185.927	-568
185.996	-81
186.066	200
186.136	84
186.205	901
186.275	-263
186.344	46
186.414	212
186.483	97
186.553	1190
186.622	377
186.692	670
186.761	-473
186.831	809
186.900	-430
186.970	-141
187.039	838
187.109	-21
187.178	-460
187.248	253
187.317	-66
187.387	-561
187.456	11
187.526	-524
187.595	489
187.664	-768
187.734	218
187.803	-501
187.873	-924
187.942	-1051
188.012	-218
188.081	152
188.150	161
188.220	-341
188.289	593
188.358	172
188.428	64
188.497	-586
188.567	267
188.636	-13
188.705	353
188.775	-1001
188.844	-565
188.913	805
188.983	216
189.052	-702
189.121	674
189.191	-179
189.260	-120
189.329	-386
189.399	160
189.468	97
189.537	483
189.606	-122
189.676	206
189.745	185
189.814	413
189.883	197
189.953	567
190.022	-139
190.091	-375
190.161	-403
190.230	521
190.299	-516
190.368	-822
190.437	-152
190.507	565
190.576	337
190.645	147
190.714	-299
190.783	-990
190.853	346
190.922	767
190.991	-129
191.060	105
191.129	-790
191.198	337
191.268	-836
191.337	435
191.406	427
191.475	-754
191.544	-762
191.613	72
191.682	-102
191.752	330
191.821	485
191.890	569
191.959	-19
192.028	157
192.097	157
192.166	399
192.235	-926
192.304	679
192.373	-677
192.442	506
192.511	99
192.580	865
192.650	-47
192.719	-330
192.788	-361
192.857	279
192.926	-354
192.995	-152
193.064	155
193.133	377
193.202	-142
193.271	-92
193.340	-83
193.409	-97
193.478	563
193.547	-964
193.615	-512
193.684	300
193.753	-345
193.822	600
193.891	128
193.960	-178
194.029	-320
194.098	28
194.167	-457
194.236	351
194.305	-40
194.374	250
194.443	792
194.512	215
194.580	-394
194.649	337
194.718	-822
194.787	613
194.856	-400
194.925	901
194.994	-181
195.062	563
195.131	149
195.200	-101
195.269	-73
195.338	844
195.407	108
195.475	-525
195.544	164
195.613	-542
195.682	133
195.751	943
195.819	-148
195.888	717
195.957	839
196.026	-345
196.094	490
196.163	129
196.232	-373
196.301	-3
196.369	-49
196.438	211
196.507	-56
196.576	-537
196.644	-726
196.713	76
196.782	-318
196.850	893
196.919	-217
196.988	-216
197.056	-182
197.125	212
197.194	70
197.262	227
197.331	-850
197.400	-68
197.468	-68
197.537	-67
197.606	151
197.674	100
197.743	-16
197.812	-1277
197.880	690
197.949	720
198.017	-305
198.086	-838
198.155	371
198.223	42
198.292	-459
198.360	-213
198.429	-457
198.497	-114
198.566	-425
198.635	659
198.703	622
198.772	-467
198.840	-902
198.909	490
198.977	-233
199.046	-339
199.114	369
199.183	-108
199.251	197
199.320	-974
199.388	-816
199.457	-112
199.525	-100
199.594	342
199.662	-261
199.731	-61
199.799	-519
199.867	-28
199.936	-757
200.004	715
200.073	586
200.141	-236
200.210	-316
200.278	-164
200.346	-287
200.415	254
200.483	-174
200.552	97
200.620	-675
200.688	259
200.757	-720
200.825	-185
200.893	-596
200.962	305
201.030	-354
201.098	52
201.167	-467
201.235	-261
201.303	23
201.372	581
201.440	286
201.508	818
201.577	-114
201.645	321
201.713	-407
201.781	246
201.850	-281
201.918	230
201.986	-484
202.055	348
202.123	-289
202.191	393
202.259	-775
202.327	-254
202.396	-211
202.464	-185
202.532	89
202.600	1174
202.669	-8
202.737	-123
202.805	-423
202.873	746
202.941	-327
203.009	-441
203.078	-885
203.146	-93
203.214	-661
203.282	-470
203.350	-254
203.418	-211
203.487	-100
203.555	-391
203.623	-575
203.691	33
203.759	-1171
203.827	-853
203.895	-624
203.963	212
204.031	-391
204.099	-461
204.168	253
204.236	90
204.304	-467
204.372	-206
204.440	84
204.508	370
204.576	-1531
204.644	-62
204.712	-1036
204.780	147
204.848	267
204.916	-644
204.984	-702
205.052	-195
205.120	-830
205.188	-487
205.256	-124
205.324	-774
205.392	-817
205.460	99
205.528	-458
205.596	199
205.664	-1179
205.732	-509
205.799	-74
205.867	-755
205.935	-842
206.003	247
206.071	-633
206.139	-1206
206.207	-502
206.275	-124
206.343	-575
206.411	-630
206.478	-437
206.546	36
206.614	-1188
206.682	-235
206.750	-539
206.818	-270
206.885	-258
206.953	-1251
207.021	694
207.089	126
207.157	-1074
207.225	127
207.292	-463
207.360	-250
207.428	-965
207.496	-359
207.563	-506
207.631	-560
207.699	-1305
207.767	53
207.834	-707
207.902	-1066
207.970	-1309
208.038	-555
208.105	-566
208.173	0
208.241	-447
208.309	-384
208.376	-1007
208.444	-342
208.512	-292
208.579	-690
208.647	385
208.715	819
208.782	-1273
208.850	-942
208.918	-1164
208.985	244
209.053	-374
209.120	-515
209.188	-1764
209.256	-323
209.323	-1007
209.391	-685
209.459	278
209.526	110
209.594	-904
209.661	-449
209.729	-154
209.796	150
209.864	99
209.932	-951
209.999	-12
210.067	-27
210.134	-1047
210.202	-939
210.269	-753
210.337	495
210.404	-699
210.472	-433
210.539	-412
210.607	-807
210.674	-1110
210.742	-43
210.809	-544
210.877	-297
210.944	213
211.012	-927
211.079	339
211.146	-1151
211.214	-580
211.281	694
211.349	-446
211.416	-479
211.484	-768
211.551	-362
211.618	216
211.686	-29
211.753	-1148
211.821	316
211.888	-506
211.955	-72
212.023	-239
212.090	20
212.157	-641
212.225	-1615
212.292	-95
212.359	3
212.427	-542
212.494	-487
212.561	-670
212.629	104
212.696	-639
212.763	269
212.831	-1437
212.898	-47
212.965	-268
213.032	-492
213.100	-99
213.167	-115
213.234	-1080
213.301	-312
213.369	83
213.436	-762
213.503	-787
213.570	-176
213.638	-353
213.705	32
213.772	-513
213.839	-154
213.906	27
213.973	-546
214.041	-1375
214.108	-14
214.175	-1168
214.242	-847
214.309	-843
214.376	-672
214.444	-15
214.511	-131
214.578	-188
214.645	-69
214.712	-62
214.779	-131
214.846	-588
214.913	-350
214.980	-363
215.048	-19
215.115	887
215.182	-183
215.249	-73
215.316	-1125
215.383	-85
215.450	-301
215.517	-511
215.584	-1191
215.651	-946
215.718	-172
215.785	25
215.852	-472
215.919	140
215.986	-192
216.053	-740
216.120	-882
216.187	-311
216.254	-577
216.321	-725
216.388	608
216.455	-312
216.522	-331
216.589	-861
216.656	-738
216.722	-382
216.789	-104
216.856	166
216.923	-436
216.990	-206
217.057	-818
217.124	213
217.191	-601
217.258	-182
217.324	-186
217.391	-150
217.458	-563
217.525	204
217.592	-200
217.659	-1595
217.725	719
217.792	-1177
217.859	321
217.926	-1159
217.993	-384
218.059	-99
218.126	-830
218.193	103
218.260	-895
218.327	-392
218.393	-626
218.460	-324
218.527	-1168
218.594	-89
218.660	-13
218.727	388
218.794	-1055
218.860	135
218.927	-267
218.994	-1024
219.061	-742
219.127	-568
219.194	-945
219.261	-81
219.327	-512
219.394	-188
219.461	-1413
219.527	-414
219.594	-285
219.661	81
219.727	-1290
219.794	1118
219.860	-729
219.927	-183
219.994	716
220.060	1251
220.127	2735
220.193	970
220.260	-398
220.326	-198
220.393	-837
220.460	-443
220.526	-1299
220.593	-1595
220.659	915
220.726	-475
220.792	-62
220.859	-955
220.925	-178
220.992	-662
221.058	115
221.125	120
221.191	-1032
221.258	-837
221.324	388
221.391	-655
221.457	-830
221.524	-484
221.590	-534
221.657	-426
221.723	-1171
221.789	-623
221.856	795
221.922	-839
221.989	-545
222.055	-606
222.121	-1172
222.188	1054
222.254	-73
222.321	-180
222.387	191
222.453	-766
222.520	-204
222.586	-1702
222.652	-370
222.719	-1140
222.785	-380
222.851	-401
222.918	-29
222.984	-762
223.050	-1483
223.116	-2276
223.183	251
223.249	-1193
223.315	-189
223.382	-762
223.448	436
223.514	-1081
223.580	-209
223.647	-761
223.713	-951
223.779	-182
223.845	-563
223.911	-947
223.978	-868
224.044	31
224.110	-600
224.176	-686
224.242	-782
224.309	-1241
224.375	323
224.441	-180
224.507	-1202
224.573	-1239
224.639	355
224.705	-612
224.772	-229
224.838	-1571
224.904	-831
224.970	-226
225.036	-573
225.102	-1459
225.168	726
225.234	-115
225.300	44
225.366	-376
225.432	294
225.499	-1026
225.565	-471
225.631	-554
225.697	-1081
225.763	-825
225.829	-117
225.895	-342
225.961	-909
226.027	-552
226.093	-1159
226.159	-396
226.225	332
226.291	-964
226.357	-269
226.423	-791
226.489	-996
226.554	-460
226.620	-72
226.686	-1210
226.752	-1127
226.818	-658
226.884	-89
226.950	-128
227.016	-1005
227.082	-810
227.148	-389
227.214	-1008
227.279	-33
227.345	-363
227.411	-124
227.477	987
227.543	3059
227.609	3893
227.674	2120
227.740	171
227.806	219
227.872	337
227.938	-570
228.003	-833
228.069	-1081
228.135	-1082
228.201	-31
228.267	-692
228.332	-645
228.398	-1849
228.464	-291
228.530	-345
228.595	-167
228.661	-1449
228.727	-701
228.792	320
228.858	-388
228.924	-1926
228.990	1148
229.055	-1547
229.121	-653
229.187	-452
229.252	-504
229.318	-609
229.384	133
229.449	-950
229.515	-2480
229.581	-1704
229.646	1242
229.712	-873
229.777	-549
229.843	-892
229.909	-553
229.974	-776
230.040	-962
230.105	-336
230.171	-994
230.236	-377
230.302	-1283
230.368	-1075
230.433	-1040
230.499	-253
230.564	315
230.630	-1774
230.695	-663
230.761	322
230.826	-2129
230.892	338
230.957	-919
231.023	-723
231.088	-314
231.154	-689
231.219	-727
231.284	-1512
231.350	-640
231.415	-1913
231.481	260
231.546	-1243
231.612	-762
231.677	-1595
231.742	-1199
231.808	773
231.873	-845
231.939	-2530
232.004	1092
232.069	300
232.135	-750
232.200	-713
232.265	-119
232.331	-355
232.396	-343
232.461	-1016
232.527	-430
232.592	-1224
232.657	-830
232.723	-582
232.788	-117
232.853	-1302
232.918	-772
232.984	-1243
233.049	-841
233.114	-1101
233.179	-316
233.245	-25
233.310	106
233.375	-1559
233.440	235
233.506	-809
233.571	-926
233.636	-665
233.701	-489
233.766	-995
233.832	-476
233.897	-859
233.962	-1791
234.027	351
234.092	398
234.157	198
234.222	-807
234.288	-686
234.353	-582
234.418	-118
234.483	-245
234.548	-355
234.613	-755
234.678	-1002
234.743	-459
234.808	741
234.873	-1916
234.938	623
235.004	-959
235.069	-1672
235.134	-1058
235.199	-571
235.264	-451
235.329	-2402
235.394	318
235.459	353
235.524	-1525
235.589	-1121
235.654	-534
235.719	-1924
235.784	-346
235.849	-1139
235.913	-1169
235.978	-991
236.043	-345
236.108	-321
236.173	-530
236.238	-208
236.303	-1060
236.368	-1346
236.433	402
236.498	-1348
236.563	-817
236.627	-1168
236.692	333
236.757	-452
236.822	-475
236.887	-1336
236.952	145
237.017	-2455
237.081	-29
237.146	-1415
237.211	-157
237.276	-407
237.341	-41
237.405	-1357
237.470	-836
237.535	-462
237.600	363
237.664	-507
237.729	-1201
237.794	-1878
237.859	236
237.923	-510
237.988	-489
238.053	-226
238.118	-327
238.182	-403
238.247	1725
238.312	-1405
238.376	-615
238.441	-2730
238.506	511
238.570	-1798
238.635	422
238.700	-438
238.764	-198
238.829	-746
238.893	-1301
238.958	1
239.023	-840
239.087	-971
239.152	-617
239.216	-1187
239.281	-151
239.346	49
239.410	-149
239.475	-770
239.539	391
239.604	-628
239.668	713
239.733	194
239.797	2428
239.862	7943
239.926	5058
239.991	1755
240.055	956
240.120	-315
240.184	602
240.249	-1066
240.313	-431
240.378	-623
240.442	-74
240.507	18
240.571	-718
240.635	-1287
240.700	-506
240.764	-1050
240.829	222
240.893	-1221
240.957	-520
241.022	-101
241.086	413
241.151	-1303
241.215	-1264
241.279	-6
241.344	-716
241.408	-745
241.472	-999
241.537	499
241.601	365
241.665	-1502
241.730	-1344
241.794	597
241.858	-516
241.922	-1049
241.987	87
242.051	-881
242.115	-1536
242.179	-554
242.244	-755
242.308	37
242.372	-38
242.436	-2049
242.501	-504
242.565	-1779
242.629	-457
242.693	-57
242.757	-1221
242.822	-475
242.886	41
242.950	621
243.014	-1348
243.078	-621
243.142	-1019
243.206	-1016
243.271	308
243.335	-1477
243.399	-272
243.463	-751
243.527	921
243.591	-979
243.655	-528
243.719	-1289
243.783	-228
243.847	-540
243.911	-211
243.975	-1295
244.040	-1656
244.104	1623
244.168	-68
244.232	-1450
244.296	-446
244.360	-694
244.424	-2191
244.488	160
244.552	222
244.615	-2320
244.679	-245
244.743	-1084
244.807	-1460
244.871	-409
244.935	-834
244.999	-2031
245.063	-817
245.127	20
245.191	-183
245.255	-1296
245.319	204
245.383	-2035
245.446	416
245.510	-1498
245.574	-175
245.638	42
245.702	-1629
245.766	-200
245.829	683
245.893	-1462
245.957	-554
246.021	-245
246.085	-675
246.149	-610
246.212	-2
246.276	512
246.340	-532
246.404	-989
246.467	342
246.531	-2426
246.595	402
246.659	-57
246.722	-1392
246.786	-584
246.850	-690
246.913	-980
246.977	-1026
247.041	-930
247.104	-769
247.168	-227
247.232	29
247.295	775
247.359	500
247.423	-722
247.486	121
247.550	516
247.614	-1387
247.677	-1071
247.741	-244
247.804	-661
247.868	556
247.932	-494
247.995	1563
248.059	-805
248.122	-1748
248.186	270
248.249	-565
248.313	1344
248.376	3098
248.440	358
248.503	-817
248.567	-43
248.630	-1229
248.694	-660
248.757	881
248.821	2329
248.884	850
248.948	-502
249.011	1609
249.075	2582
249.138	3346
249.202	-238
249.265	-1301
249.328	474
249.392	-1428
249.455	233
249.519	-800
249.582	-867
249.645	-682
249.709	-564
249.772	-1206
249.835	-501
249.899	-477
249.962	-437
250.025	-427
250.089	-421
250.152	1862
250.215	-1386
250.279	-742
250.342	-769
250.405	-220
250.468	-952
250.532	-1374
250.595	531
250.658	-1333
250.721	848
250.785	-490
250.848	592
250.911	-882
250.974	1
251.038	-557
251.101	1590
251.164	-509
251.227	-25
251.290	-607
251.354	-295
251.417	578
251.480	442
251.543	-565
251.606	2005
251.669	2147
251.732	-331
251.795	570
251.859	446
251.922	433
251.985	125
252.048	325
252.111	-734
252.174	-1367
252.237	321
252.300	2746
252.363	341
252.426	2995
252.489	146
252.552	908
252.615	-1650
252.678	-111
252.741	1226
252.804	-19
252.867	2291
252.930	2118
252.993	1263
253.056	843
253.119	-878
253.182	-915
253.245	-405
253.308	-426
253.371	-1633
253.434	-47
253.497	239
253.559	522
253.622	-230
253.685	-498
253.748	-478
253.811	-140
253.874	152
253.937	-313
254.000	-131
254.062	-37
254.125	1152
254.188	1523
254.251	-778
254.314	-538
254.376	-658
254.439	622
254.502	-360
254.565	-528
254.628	2584
254.690	-50
254.753	-646
254.816	-908
254.878	-307
254.941	357
255.004	779
255.067	649
255.129	-912
255.192	220
255.255	-1618
255.317	71
255.380	-589
255.443	-373
255.505	469
255.568	-1252
255.631	-1217
255.693	-716
255.756	-107
255.819	396
255.881	-588
255.944	-388
256.006	-502
256.069	-650
256.132	-654
256.194	-860
256.257	-371
256.319	-737
256.382	-1019
256.444	134
256.507	391
256.569	-181
256.632	-357
256.694	-883
256.757	193
256.819	295
256.882	-1682
256.944	-57
257.007	704
257.069	-1217
257.132	-1585
257.194	275
257.257	-618
257.319	-1071
257.381	-1756
257.444	-150
257.506	-966
257.569	336
257.631	-405
257.693	-291
257.756	-161
257.818	-725
257.880	-1280
257.943	464
258.005	-1147
258.067	-1122
258.130	-182
258.192	-770
258.254	-827
258.317	-382
258.379	-415
258.441	-363
258.503	596
258.566	35
258.628	1263
258.690	-914
258.753	27
258.815	290
258.877	-1107
258.939	-276
259.001	371
259.064	-977
259.126	-877
259.188	-84
259.250	-769
259.312	-727
259.375	264
259.437	-602
259.499	-174
259.561	163
259.623	525
259.685	-288
259.747	-595
259.809	140
259.872	320
259.934	1920
259.996	1680
260.058	402
260.120	-1300
260.182	-87
260.244	-405
260.306	-803
260.368	827
260.430	-1194
260.492	435
260.554	647
260.616	-720
260.678	698
260.740	238
260.802	-299
260.864	185
260.926	-1263
260.988	347
261.050	-456
261.112	-660
261.174	211
261.236	134
261.298	39
261.359	-442
261.421	740
261.483	-1150
261.545	649
261.607	-663
261.669	-687
261.731	-458
261.793	-81
261.854	-1818
261.916	704
261.978	-948
262.040	69
262.102	141
262.164	-947
262.225	-161
262.287	-293
262.349	-78
262.411	161
262.472	517
262.534	-1068
262.596	-1032
262.658	613
262.719	-245
262.781	222
262.843	-651
262.904	-99
262.966	297
263.028	-213
263.090	323
263.151	826
263.213	195
263.275	-1252
263.336	15
263.398	-175
263.459	-1155
263.521	-503
263.583	-612
263.644	-38
263.706	-741
263.767	-742
263.829	-168
263.891	-390
263.952	-43
264.014	-324
264.075	-1019
264.137	-386
264.198	-214
264.260	-1426
264.321	-187
264.383	-632
264.444	180
264.506	-1133
264.567	-324
264.629	405
264.690	-2043
264.752	-1472
264.813	-1019
264.875	-1382
264.936	-381
264.998	-751
265.059	-790
265.120	274
265.182	-794
265.243	-1049
265.305	-137
265.366	-182
265.427	-663
265.489	457
265.550	-1650
265.611	199
265.673	-927
265.734	-210
265.795	-574
265.857	-1682
265.918	-1866
265.979	31
266.040	-502
266.102	-538
266.163	64
266.224	21
266.286	-467
266.347	-718
266.408	-742
266.469	187
266.530	-425
266.592	317
266.653	-405
266.714	262
266.775	-76
266.836	332
266.898	-276
266.959	-160
267.020	-250
267.081	854
267.142	71
267.203	511
267.264	-926
267.326	1779
267.387	466
267.448	460
267.509	495
267.570	-277
267.631	-557
267.692	-792
267.753	-207
267.814	-1146
267.875	-57
267.936	-141
267.997	-700
268.058	-7
268.119	-471
268.180	-117
268.241	-908
268.302	-360
268.363	-904
268.424	-534
268.485	243
268.546	-1215
268.607	-314
268.668	-770
268.729	-863
268.790	-398
268.851	-768
268.912	-351
268.972	119
269.033	-677
269.094	-1446
269.155	-197
269.216	-263
269.277	-476
269.338	-278
269.398	184
269.459	-1126
269.520	-255
269.581	-317
269.642	-795
269.702	-483
269.763	-826
269.824	-775
269.885	-737
269.945	-258
270.006	-283
270.067	-1472
270.128	-738
270.188	-430
270.249	-668
270.310	-655
270.370	285
270.431	-247
270.492	-886
270.553	-318
270.613	-1236
270.674	-701
270.734	-1083
270.795	-236
270.856	-797
270.916	-1131
270.977	-323
271.038	-576
271.098	-477
271.159	-1136
271.219	182
271.280	-354
271.340	-160
271.401	-1369
271.462	-246
271.522	-921
271.583	236
271.643	-623
271.704	-447
271.764	-519
271.825	393
271.885	1549
271.946	3709
272.006	713
272.066	1051
272.127	3582
272.187	3790
272.248	844
272.308	29
272.369	2173
272.429	1540
272.489	199
272.550	358
272.610	223
272.671	156
272.731	-265
272.791	494
272.852	-513
272.912	621
272.972	87
273.033	524
273.093	-315
273.153	618
273.214	1348
273.274	1154
273.334	1552
273.394	4398
273.455	2427
273.515	2271
273.575	3015
273.635	3019
273.696	3431
273.756	6016
273.816	3378
273.876	3071
273.936	987
273.997	1711
274.057	833
274.117	569
274.177	1085
274.237	3160
274.297	3285
274.358	1827
274.418	1994
274.478	665
274.538	-264
274.598	-471
274.658	384
274.718	778
274.778	-771
274.838	521
274.898	-895
274.958	1210
275.018	2408
275.078	1813
275.138	-319
275.198	-256
275.258	-799
275.318	451
275.378	516
275.438	-562
275.498	-320
275.558	621
275.618	1344
275.678	1092
275.738	1162
275.798	-166
275.858	-409
275.918	-357
275.978	-201
276.038	116
276.098	-594
276.157	333
276.217	531
276.277	-171
276.337	41
276.397	426
276.457	-469
276.517	362
276.576	-374
276.636	220
276.696	-76
276.756	735
276.815	491
276.875	583
276.935	36
276.995	666
277.055	311
277.114	834
277.174	533
277.234	1347
277.293	683
277.353	25
277.413	177
277.472	318
277.532	697
277.592	1525
277.651	7830
277.711	19099
277.771	6504
277.830	16615
277.890	16592
277.950	10251
278.009	31838
278.069	14895
278.128	12491
278.188	21627
278.248	8377
278.307	20499
278.367	14964
278.426	3618
278.486	1885
278.545	1172
278.605	1435
278.664	1684
278.724	816
278.783	1725
278.843	4714
278.902	1952
278.962	400
279.021	1464
279.081	4459
279.140	3979
279.199	2207
279.259	3205
279.318	4665
279.378	5819
279.437	10170
279.496	24507
279.556	76060
279.615	75726
279.675	25477
279.734	13111
279.793	10776
279.853	13242
279.912	6391
279.971	4713
280.031	4024
280.090	6386
280.149	10082
280.208	13540
280.268	51503
280.327	64476
280.386	18073
280.445	8657
280.505	5445
280.564	3974
280.623	2190
280.682	2530
280.742	3103
280.801	1762
280.860	1453
280.919	1618
280.978	1666
281.037	1625
281.097	814
281.156	2239
281.215	320
281.274	1225
281.333	1606
281.392	1611
281.451	187
281.510	1034
281.569	715
281.628	598
281.688	1275
281.747	1330
281.806	379
281.865	1157
281.924	189
281.983	843
282.042	137
282.101	1262
282.160	193
282.219	1239
282.278	434
282.337	954
282.396	12
282.454	653
282.513	487
282.572	1455
282.631	949
282.690	1311
282.749	42
282.808	1536
282.867	300
282.926	1655
282.985	389
283.043	1011
283.102	985
283.161	156
283.220	1199
283.279	2684
283.338	888
283.396	677
283.455	1046
283.514	1252
283.573	1366
283.631	1067
283.690	1389
283.749	1359
283.808	2109
283.866	1649
283.925	1864
283.984	2968
284.043	1783
284.101	2941
284.160	2663
284.219	3321
284.277	3855
284.336	3923
284.395	5842
284.453	6109
284.512	5872
284.570	6469
284.629	7160
284.688	10048
284.746	12902
284.805	15690
284.863	19637
284.922	25521
284.981	30125
285.039	42267
285.098	56368
285.156	68966
285.215	47173
285.273	40413
285.332	63868
285.390	62393
285.449	47047
285.507	34616
285.566	25582
285.624	20350
285.683	15847
285.741	13076
285.799	10311
285.858	8567
285.916	7093
285.975	6310
286.033	5687
286.091	5042
286.150	3975
286.208	3621
286.267	3275
286.325	3538
286.383	2485
286.442	2523
286.500	1970
286.558	2245
286.616	2032
286.675	2536
286.733	1974
286.791	1078
286.850	1089
286.908	1643
286.966	1593
287.024	906
287.083	483
287.141	850
287.199	1923
287.257	469
287.315	1598
287.374	1033
287.432	717
287.490	974
287.548	-301
287.606	887
287.664	32
287.723	1234
287.781	1210
287.839	576
287.897	103
287.955	556
288.013	533
288.071	652
288.129	923
288.187	5043
288.245	2607
288.303	715
288.361	62
288.419	-181
288.477	-227
288.535	790
288.593	366
288.651	106
288.709	-282
288.767	522
288.825	-646
288.883	178
288.941	-388
288.999	141
289.057	885
289.115	106
289.173	-19
289.231	632
289.289	-505
289.346	-563
289.404	-281
289.462	98
289.520	255
289.578	160
289.636	-317
289.694	266
289.751	60
289.809	214
289.867	-393
289.925	473
289.983	-210
290.040	-20
290.098	172
290.156	536
290.214	-450
290.271	101
290.329	393
290.387	514
290.444	-24
290.502	-121
290.560	-207
290.617	98
290.675	-1003
290.733	257
290.790	-12
290.848	203
290.906	-571
290.963	-345
291.021	-310
291.078	-335
291.136	-261
291.194	-183
291.251	552
291.309	-239
291.366	143
291.424	-128
291.481	-470
291.539	585
291.596	1295
291.654	220
291.711	-121
291.769	628
291.826	111
291.884	228
291.941	-460
291.999	48
292.056	-434
292.114	-292
292.171	-368
292.228	275
292.286	821
292.343	86
292.401	-64
292.458	899
292.515	137
292.573	864
292.630	-136
292.687	234
292.745	-73
292.802	500
292.859	849
292.917	2282
292.974	-220
293.031	449
293.089	-53
293.146	529
293.203	70
293.260	303
293.318	-96
293.375	922
293.432	-280
293.489	627
293.546	313
293.604	1380
293.661	1931
293.718	5254
293.775	3073
293.832	2066
293.889	3559
293.947	2483
294.004	525
294.061	1146
294.118	817
294.175	2481
294.232	3902
294.289	3426
294.346	1159
294.403	931
294.460	231
294.517	268
294.574	-83
294.631	446
294.688	377
294.745	9
294.802	3227
294.859	3416
294.916	1220
294.973	1255
295.030	387
295.087	225
295.144	-335
295.201	456
295.258	-225
295.315	393
295.372	994
295.429	2208
295.486	722
295.542	437
295.599	244
295.656	1163
295.713	7
295.770	1003
295.827	-274
295.883	-87
295.940	-41
295.997	218
296.054	-105
296.111	245
296.167	245
296.224	-450
296.281	-813
296.338	571
296.394	180
296.451	159
296.508	584
296.564	1046
296.621	688
296.678	3003
296.734	5229
296.791	1453
296.848	308
296.904	97
296.961	560
297.018	1621
297.074	893
297.131	432
297.187	-146
297.244	-174
297.301	2756
297.357	6774
297.414	1191
297.470	675
297.527	-340
297.583	210
297.640	564
297.696	-698
297.753	-1115
297.809	-456
297.866	-739
297.922	195
297.979	-331
298.035	-445
298.092	-851
298.148	1502
298.204	1291
298.261	295
298.317	1136
298.374	3646
298.430	2309
298.486	775
298.543	-1284
298.599	432
298.656	-795
298.712	-329
298.768	-414
298.824	-307
298.881	-863
298.937	-310
298.993	201
299.050	394
299.106	-235
299.162	-78
299.218	633
299.275	380
299.331	-16
299.387	843
299.443	4340
299.500	12398
299.556	10144
299.612	3411
299.668	1836
299.724	8023
299.780	11746
299.837	3561
299.893	2364
299.949	7033
300.005	12190
300.061	7710
300.117	15658
300.173	6976
300.229	2386
300.285	2097
300.341	1489
300.397	1313
300.453	721
300.510	545
300.566	1574
300.622	3448
300.678	12524
300.734	19968
300.790	8805
300.845	6299
300.901	7692
300.957	13625
301.013	6483
301.069	2439
301.125	905
301.181	867
301.237	859
301.293	202
301.349	799
301.405	-52
301.461	-494
301.516	339
301.572	499
301.628	601
301.684	288
301.740	422
301.796	1559
301.851	-23
301.907	511
301.963	1284
302.019	2939
302.074	9467
302.130	10634
302.186	4220
302.242	754
302.297	327
302.353	350
302.409	842
302.464	608
302.520	191
302.576	1660
302.631	3191
302.687	538
302.743	334
302.798	225
302.854	-41
302.910	47
302.965	-291
303.021	194
303.076	299
303.132	-213
303.187	383
303.243	-198
303.299	444
303.354	-172
303.410	31
303.465	-731
303.521	-335
303.576	-388
303.632	786
303.687	173
303.743	2521
303.798	2404
303.853	957
303.909	-291
303.964	-370
304.020	-706
304.075	-7
304.130	215
304.186	688
304.241	931
304.297	-8
304.352	-730
304.358	-662
304.407	-112
304.449	207
304.463	318
304.518	-730
304.539	-663
304.573	-580
304.629	-286
304.630	-293
304.684	-516
304.720	1361
304.739	2283
304.794	4011
304.811	3500
304.850	2243
304.902	712
304.905	616
304.960	341
304.992	-64
305.015	-381
305.071	456
305.083	364
305.126	76
305.173	-515
305.181	-616
305.236	77
305.264	72
305.292	76
305.347	389
305.354	359
305.402	137
305.445	-75
305.457	-136
305.512	407
305.535	21
305.567	-500
305.622	-267
305.626	-252
305.678	235
305.716	1609
305.733	2106
305.788	2028
305.807	2041
305.843	2284
305.897	3136
305.898	3141
305.953	3387
305.988	2040
306.008	1346
306.063	160
306.078	27
306.118	-155
306.168	299
306.173	334
306.228	134
306.259	374
306.283	553
306.338	330
306.349	416
306.393	741
306.440	-44
306.448	-157
306.503	680
306.530	585
306.558	498
306.613	786
306.620	747
306.668	656
306.711	1836
306.723	2015
306.778	2035
306.801	1443
306.833	878
306.888	836
306.892	811
306.943	429
306.982	617
306.997	725
307.052	367
307.072	183
307.107	-55
307.162	711
307.163	707
307.217	511
307.253	429
307.272	361
307.327	351
307.343	418
307.381	758
307.434	532
307.436	532
307.491	901
307.524	1497
307.546	1780
307.600	2408
307.614	2253
307.655	1465
307.704	1107
307.710	1141
307.765	1154
307.795	1317
307.819	1229
307.874	1085
307.885	993
307.929	1086
307.975	1384
307.984	1399
308.038	1620
308.065	1682
308.093	2237
308.148	3560
308.156	3957
308.202	6227
308.246	7506
308.257	7324
308.312	3951
308.336	3250
308.366	3359
308.421	2988
308.426	2948
308.475	2498
308.517	2466
308.530	2501
308.585	3110
308.607	2994
308.639	2988
308.694	3356
308.697	3363
308.748	3545
308.787	3979
308.803	4109
308.857	4137
308.877	4305
308.912	5245
308.967	6592
308.967	6616
309.021	11810
309.058	15415
309.076	17397
309.130	25106
309.148	27030
309.185	32337
309.238	40150
309.239	40432
309.293	53767
309.328	60722
309.348	56468
309.402	37791
309.418	32314
309.457	26004
309.508	19052
309.511	19223
309.566	24888
309.598	29169
309.620	39117
309.674	67189
309.688	74886
309.729	71768
309.778	58947
309.783	57278
309.837	34648
309.868	22718
309.892	19459
309.946	13455
309.959	12448
310.001	11110
310.049	9469
310.055	9194
310.109	7131
310.139	5843
310.163	4941
310.218	3523
310.229	3182
310.272	3568
310.319	4280
310.326	4115
310.381	2657
310.409	2059
310.435	2014
310.489	1739
310.499	1748
310.543	2219
310.589	2463
310.598	2449
310.652	2351
310.679	2322
310.706	2330
310.760	2381
310.769	2376
310.814	2571
310.859	2803
310.868	2779
310.923	2351
310.948	2249
310.977	2102
311.031	1588
311.038	1548
311.085	1751
311.128	1832
311.139	1884
311.193	2084
311.218	2168
311.247	2172
311.301	2218
311.308	2208
311.356	1963
311.398	1756
311.410	1747
311.464	1620
311.488	1587
311.518	1709
311.572	1952
311.578	1966
311.626	1924
311.668	1873
311.680	2041
311.734	2783
311.758	3088
311.788	2634
311.842	1806
311.847	1713
311.896	2203
311.937	2604
311.950	2568
312.004	2382
312.027	2288
312.058	2267
312.112	2220
312.117	2207
312.165	2142
312.207	2072
312.297	1802
312.386	1567
312.476	2657
312.566	1558
312.656	1835
312.745	1861
312.835	1957
312.925	2483
313.015	2398
313.104	1849
313.194	2832
313.284	2573
313.374	2525
313.463	3415
313.553	3699
313.643	2977
313.732	3065
313.822	2816
313.912	4463
314.001	4072
314.091	3665
314.180	3159
314.270	4251
314.360	3642
314.449	4148
314.539	2694
314.628	3889
314.718	4242
314.808	3972
314.897	5024
314.987	5040
315.076	5488
315.166	5618
315.255	4369
315.345	4203
315.434	3857
315.524	4593
315.613	5114
315.703	6607
315.792	16487
315.881	63807
315.971	17997
316.060	6064
316.150	4642
316.239	4144
316.328	3159
316.418	4426
316.507	4017
316.597	5122
316.686	4902
316.775	4859
316.865	4745
316.954	4201
317.043	3704
317.133	3109
317.222	2763
317.311	3472
317.400	2049
317.490	4231
317.579	4103
317.668	5581
317.757	8060
317.847	28028
317.936	94900
318.025	25370
318.114	23903
318.203	9608
318.293	5163
318.382	6169
318.471	6911
318.560	6516
318.649	5690
318.738	3945
318.828	2881
318.917	2552
319.006	2519
319.095	3043
319.184	4616
319.273	3921
319.362	2994
319.451	2541
319.540	2587
319.629	3801
319.718	3093
319.807	2790
319.896	2249
319.985	5317
320.074	2923
320.163	3129
320.252	2497
320.341	2791
320.430	2443
320.519	3980
320.608	3415
320.697	5005
320.786	4207
320.875	5951
320.964	5588
321.053	7511
321.142	6936
321.230	8617
321.319	9359
321.408	11666
321.497	11280
321.586	9762
321.675	5996
321.764	6296
321.852	6328
321.941	7399
322.030	5969
322.119	7323
322.207	10586
322.296	11291
322.385	11242
322.474	14126
322.562	15536
322.651	11573
322.740	8091
322.829	7459
322.917	6157
323.006	5609
323.095	5495
323.183	4224
323.272	4206
323.361	4271
323.449	5337
323.538	3990
323.626	4110
323.715	3861
323.804	3264
323.892	3244
323.981	3489
324.069	3428
324.158	2929
324.246	3959
324.335	2293
324.424	3273
324.512	3311
324.601	2182
324.689	3451
324.778	2386
324.866	2994
324.954	3093
325.043	2940
325.131	2224
325.220	3173
325.308	2593
325.397	2211
325.485	3297
325.574	1961
325.662	2419
325.750	2640
325.839	2829
325.927	2556
326.015	2349
326.104	2305
326.192	2529
326.280	2339
326.369	2591
326.457	2656
326.545	3686
326.634	2148
326.722	2820
326.810	2498
326.898	4041
326.987	3514
327.075	2511
327.163	3220
327.251	3102
327.340	2749
327.428	5195
327.516	5244
327.604	4631
327.692	3503
327.781	2269
327.869	2693
327.957	2392
328.045	1800
328.133	2446
328.221	1186
328.309	2041
328.397	1847
328.485	3632
328.574	5317
328.662	8327
328.750	3284
328.838	3192
328.926	2210
329.014	1900
329.102	2129
329.190	3243
329.278	2194
329.366	1726
329.454	1556
329.542	2659
329.630	1702
329.718	2666
329.806	1502
329.893	3172
329.981	2247
330.069	1864
330.157	2270
330.245	3274
330.333	2071
330.421	2359
330.509	2084
330.597	3633
330.684	2624
330.772	2724
330.860	1867
330.948	2659
331.036	1845
331.123	2388
331.211	2490
331.299	2270
331.387	1895
331.475	3340
331.562	2434
331.650	2561
331.738	1677
331.825	2849
331.913	1815
332.001	1745
332.089	2082
332.176	1994
332.264	2411
332.352	2360
332.439	2566
332.527	2635
332.614	1755
332.702	2999
332.790	2314
332.877	3284
332.965	9795
333.052	9824
333.140	10563
333.228	28760
333.315	7243
333.403	3621
333.490	4678
333.578	10025
333.665	40555
333.753	15462
333.840	4104
333.928	4907
334.015	4419
334.103	5052
334.190	8530
334.278	10253
334.365	15368
334.452	16107
334.540	9591
334.627	7498
334.715	10143
334.802	15572
334.889	27694
334.977	41597
335.064	25755
335.151	12118
335.239	7659
335.326	6935
335.413	7208
335.501	7813
335.588	5498
335.675	7163
335.762	9843
335.850	12405
335.937	17269
336.024	31663
336.111	56813
336.199	53023
336.286	22934
336.373	12280
336.460	7230
336.547	6249
336.635	5288
336.722	5190
336.809	3758
336.896	4335
336.983	4083
337.070	4881
337.157	5412
337.245	4927
337.332	4594
337.419	4829
337.506	4171
337.593	3560
337.680	3022
337.767	3664
337.854	3314
337.941	3405
338.028	1850
338.115	1913
338.202	3187
338.289	3954
338.376	3785
338.463	3352
338.550	2882
338.637	3413
338.724	2339
338.811	3776
338.898	3117
338.984	2456
339.071	2315
339.158	2861
339.245	2863
339.332	3214
339.419	2080
339.506	3417
339.593	2179
339.679	2126
339.766	1656
339.853	3320
339.940	3304
340.027	2190
340.113	2472
340.200	2783
340.287	2222
340.374	2730
340.460	3356
340.547	1571
340.634	2883
340.720	4197
340.807	2574
340.894	3194
340.980	2145
341.067	2549
341.154	3141
341.240	2316
341.327	2665
341.414	2517
341.500	1717
341.587	3877
341.674	3251
341.760	3412
341.847	3204
341.933	3011
342.020	1206
342.106	2182
342.193	2506
342.279	3037
342.366	2187
342.452	2280
342.539	2791
342.625	2666
342.712	3249
342.798	2616
342.885	2710
342.971	2054
343.058	2429
343.144	2246
343.230	2638
343.317	2611
343.403	1795
343.490	2927
343.576	2684
343.662	2346
343.749	1755
343.835	2331
343.921	3648
344.008	11215
344.094	20421
344.180	4532
344.267	3033
344.353	4529
344.439	3858
344.525	2060
344.612	3345
344.698	1934
344.784	1426
344.870	2196
344.957	1643
345.043	3053
345.129	1538
345.215	2721
345.301	1619
345.387	2596
345.474	2263
345.560	2180
345.646	950
345.732	2584
345.818	1758
345.904	2937
345.990	2038
346.076	2203
346.162	2740
346.249	3457
346.335	1446
346.421	2208
346.507	2604
346.593	7195
346.679	1926
346.765	4786
346.851	5463
346.937	4182
347.023	2910
347.108	2233
347.194	2022
347.280	2549
347.366	3908
347.452	10726
347.538	14460
347.624	8808
347.710	4488
347.796	3318
347.882	2266
347.967	2508
348.053	2445
348.139	2758
348.225	2173
348.311	1981
348.397	1857
348.482	3096
348.568	2250
348.654	4291
348.740	15318
348.825	14645
348.911	6200
348.997	6663
349.083	9614
349.168	2888
349.254	2851
349.340	2989
349.425	2255
349.511	2759
349.597	3124
349.682	2043
349.768	4684
349.854	3847
349.939	2605
350.025	2389
350.110	2655
350.196	2389
350.282	1211
350.367	3466
350.453	2557
350.538	3353
350.624	1426
350.709	2570
350.795	1309
350.880	2448
350.966	3823
351.051	3241
351.137	1754
351.222	2852
351.308	2669
351.393	3969
351.479	1953
351.564	2021
351.649	2393
351.735	2730
351.820	1946
351.906	2512
351.991	1304
352.076	3189
352.162	4040
352.247	2896
352.332	2924
352.418	2515
352.503	2446
352.588	5604
352.673	3162
352.759	2913
352.844	1547
352.929	2119
353.014	1316
353.100	3736
353.185	2714
353.270	2618
353.355	2503
353.441	3375
353.526	516
353.611	2556
353.696	1695
353.781	3458
353.866	1542
353.952	3686
354.037	1228
354.122	3505
354.207	2723
354.292	3200
354.377	2796
354.462	3025
354.547	1739
354.632	3228
354.717	2513
354.802	1614
354.887	2647
354.972	2268
355.057	1959
355.142	2265
355.227	3323
355.312	3068
355.397	1996
355.482	3506
355.567	2586
355.652	4221
355.737	2986
355.822	5626
355.907	4138
355.991	3946
356.076	2975
356.161	2891
356.246	2303
356.331	2715
356.416	2425
356.501	11089
356.585	8222
356.670	3246
356.755	4719
356.840	4044
356.924	7691
357.009	22569
357.094	9719
357.179	3676
357.263	2733
357.348	4840
357.433	2708
357.517	3788
357.602	1586
357.687	2469
357.771	2609
357.856	3659
357.941	3595
358.025	7610
358.110	28657
358.195	11679
358.279	2800
358.364	3679
358.448	4051
358.533	8118
358.617	5068
358.702	7143
358.787	3335
358.871	4135
358.956	3709
359.040	3106
359.125	2880
359.209	3508
359.294	3188
359.378	4730
359.462	4194
359.547	4032
359.631	2669
359.716	1894
359.800	2474
359.885	4628
359.969	2326
360.053	3911
360.138	1814
360.222	2527
360.306	2336
360.391	3251
360.475	2741
360.559	3295
360.644	3887
360.728	2850
360.812	7068
360.896	13978
360.981	5437
361.065	3870
361.149	4684
361.233	3359
361.318	1840
361.402	3859
361.486	4287
361.570	4355
361.654	3910
361.739	4032
361.823	10188
361.907	16992
361.991	5880
362.075	6560
362.159	7823
362.243	15226
362.327	37436
362.411	62838
362.495	22400
362.580	11006
362.664	9079
362.748	9510
362.832	15467
362.916	32263
363.000	99062
363.084	149535
363.168	60966
363.252	17348
363.336	9866
363.420	8590
363.503	7469
363.587	7316
363.671	5713
363.755	5285
363.839	7972
363.923	6947
364.007	9173
364.091	12411
364.175	16526
364.258	41978
364.342	108438
364.426	212381
364.510	109617
364.594	31463
364.677	15299
364.761	17983
364.845	12846
364.929	6781
365.013	5205
365.096	4407
365.180	4165
365.264	4389
365.347	6089
365.431	4701
365.515	2435
365.598	3101
365.682	4458
365.766	3351
365.849	3248
365.933	3406
366.017	4853
366.100	3748
366.184	2973
366.267	5312
366.351	3147
366.435	3290
366.518	3130
366.602	4169
366.685	3363
366.769	3829
366.852	3380
366.936	3968
367.019	3956
367.103	2975
367.186	4876
367.270	4169
367.353	3488
367.436	4591
367.520	3787
367.603	5179
367.687	3509
367.770	4213
367.853	4788
367.937	6543
368.020	7341
368.104	3382
368.187	3807
368.270	3834
368.353	2796
368.437	3353
368.520	4101
368.603	3450
368.687	3289
368.770	6240
368.853	2679
368.936	3880
369.020	3474
369.103	3282
369.186	3233
369.269	3192
369.352	4370
369.436	3242
369.519	3378
369.602	2309
369.685	4217
369.768	2443
369.851	3538
369.934	3047
370.018	2056
370.101	2340
370.184	5428
370.267	4145
370.350	3771
370.433	5321
370.516	12496
370.599	37608
370.682	14471
370.765	7374
370.848	6618
370.931	7570
371.014	5967
371.097	3265
371.180	4556
371.263	4176
371.346	2454
371.429	5082
371.511	2977
371.594	4724
371.677	5141
371.760	6531
371.843	5115
371.926	14805
372.009	28619
372.091	15650
372.174	8673
372.257	14000
372.340	8253
372.423	7948
372.505	8060
372.588	5809
372.671	5846
372.754	7880
372.836	6839
372.919	6462
373.002	6942
373.085	5440
373.167	6705
373.250	6897
373.332	9671
373.415	16897
373.498	30881
373.580	18343
373.663	55605
373.746	54225
373.828	10710
373.911	7016
373.993	4044
374.076	5484
374.159	5175
374.241	5880
374.324	7330
374.406	7349
374.489	10222
374.571	22005
374.654	9344
374.736	7537
374.819	13826
374.901	22750
374.983	21785
375.066	7946
375.148	5187
375.231	5853
375.313	7566
375.395	6099
375.478	5708
375.560	6647
375.643	5651
375.725	7628
375.807	16209
375.890	14181
375.972	4107
376.054	5999
376.136	3626
376.219	4381
376.301	7348
376.383	12224
376.465	6095
376.548	3826
376.630	5063
376.712	10415
376.794	5086
376.877	3957
376.959	1565
377.041	3741
377.123	2192
377.205	3551
377.287	2201
377.369	4666
377.452	3698
377.534	3215
377.616	2486
377.698	2891
377.780	2379
377.862	3713
377.944	3863
378.026	3137
378.108	4235
378.190	2201
378.272	3848
378.354	3531
378.436	2497
378.518	2703
378.600	3266
378.682	4369
378.764	5186
378.846	5078
378.928	2825
379.010	3117
379.091	3708
379.173	3533
379.255	2665
379.337	3503
379.419	3816
379.501	7744
379.583	3972
379.664	2758
379.746	2758
379.828	6827
379.910	5302
379.991	6823
380.073	3563
380.155	4005
380.237	3046
380.318	3214
380.400	2787
380.482	5531
380.564	4117
380.645	3569
380.727	3804
380.809	5530
380.890	3652
380.972	3845
381.053	4268
381.135	6058
381.217	4335
381.298	7562
381.380	4613
381.461	5649
381.543	10274
381.624	13324
381.706	6254
381.787	5880
381.869	6778
381.951	10244
382.032	24783
382.113	19252
382.195	6426
382.276	10342
382.358	9599
382.439	16401
382.521	19499
382.602	29042
382.684	23685
382.765	39460
382.846	106810
382.928	246811
383.009	137604
383.090	104799
383.172	287405
383.253	362581
383.334	126220
383.416	54888
383.497	40999
383.578	46617
383.659	88684
383.741	250571
383.822	454459
383.903	253177
383.984	76854
384.066	42940
384.147	25239
384.228	17738
384.309	14649
384.390	14910
384.471	11684
384.553	11496
384.634	10668
384.715	10945
384.796	9484
384.877	10008
384.958	11808
385.039	9904
385.120	8203
385.201	9340
385.282	8016
385.363	10690
385.444	11994
385.525	12555
385.606	14248
385.687	12594
385.768	9149
385.849	7850
385.930	17172
386.011	24077
386.092	10491
386.173	7818
386.254	7046
386.335	8062
386.416	6432
386.496	8174
386.577	8310
386.658	6717
386.739	5741
386.820	8057
386.901	5713
386.981	8571
387.062	9626
387.143	9998
387.224	11630
387.304	13708
387.385	11840
387.466	10317
387.547	11716
387.627	12083
387.708	13298
387.789	16271
387.869	14739
387.950	10149
388.031	8003
388.111	6432
388.192	8498
388.273	9741
388.353	8042
388.434	5998
388.514	6007
388.595	12296
388.676	12032
388.756	7725
388.837	6669
388.917	5864
388.998	3185
389.078	5249
389.159	4968
389.239	3366
389.320	6060
389.400	3298
389.480	5939
389.561	6918
389.641	5430
389.722	4874
389.802	4156
389.883	5786
389.963	8519
390.043	5845
390.124	3008
390.204	5645
390.284	6318
390.365	4243
390.445	4898
390.525	4643
390.605	4537
390.686	3653
390.766	5068
390.846	6463
390.927	4150
391.007	4260
391.087	6047
391.167	4855
391.247	3621
391.328	5739
391.408	5368
391.488	7188
391.568	4422
391.648	5469
391.728	7195
391.808	8024
391.888	6422
391.969	8863
392.049	9111
392.129	9754
392.209	9565
392.289	13680
392.369	11758
392.449	12376
392.529	12201
392.609	15835
392.689	16979
392.769	21825
392.849	25400
392.929	34896
393.009	46205
393.089	67561
393.169	125319
393.248	287536
393.328	535411
393.408	524980
393.488	283415
393.568	122845
393.648	64559
393.728	40315
393.807	28477
393.887	23535
393.967	18226
394.047	15528
394.127	11870
394.206	12590
394.286	11491
394.366	19764
394.446	20573
394.525	10251
394.605	7627
394.685	8178
394.764	9236
394.844	16498
394.924	20915
395.003	10064
395.083	6080
395.163	6624
395.242	6151
395.322	7003
395.402	4375
395.481	8347
395.561	7588
395.640	25287
395.720	50465
395.799	23080
395.879	9169
395.958	8823
396.038	11697
396.117	27457
396.197	30209
396.276	15973
396.356	14859
396.435	20074
396.515	28595
396.594	43978
396.673	94117
396.753	256077
396.832	482370
396.912	367206
396.991	136437
397.070	57602
397.150	31625
397.229	27351
397.308	44411
397.388	77803
397.467	35248
397.546	13379
397.625	8700
397.705	10877
397.784	7815
397.863	7751
397.942	6040
398.022	5853
398.101	5428
398.180	7484
398.259	5040
398.338	6252
398.417	4585
398.497	4551
398.576	5440
398.655	4044
398.734	4730
398.813	5029
398.892	3905
398.971	5387
399.050	3969
399.129	3787
399.208	3289
399.287	4063
399.366	2171
399.445	4308
399.524	3374
399.603	2720
399.682	3147
399.761	3727
399.840	5455
399.919	4373
399.998	2995
400.077	2283
400.156	1807
400.235	5558
400.313	1762
400.392	1866
400.471	3563
400.550	5254
400.629	1955
400.708	3430
400.786	1142
400.865	2619
400.944	1338
401.023	4263
401.102	2104
401.180	2100
401.259	2391
401.338	2304
401.416	2775
401.495	1330
401.574	2685
401.652	1147
401.731	2820
401.810	1215
401.888	1814
401.967	1862
402.046	713
402.124	3142
402.203	1175
402.281	2859
402.360	1745
402.438	3020
402.517	0
402.596	2457
402.674	730
402.753	2516
402.831	1815
402.910	3473
402.988	2018
403.066	6937
403.145	4617
403.223	4234
403.302	5569
403.380	6069
403.459	5720
403.537	3237
403.615	2877
403.694	2303
403.772	3376
403.850	2503
403.929	2209
404.007	1283
404.085	2989
404.164	2200
404.242	1381
404.320	3221
404.398	3160
404.477	2763
404.555	12616
404.633	9936
404.711	3410
404.789	3137
404.868	2144
404.946	1477
405.024	1956
405.102	1915
405.180	1392
405.258	1629
405.336	2068
405.415	1220
405.493	1847
405.571	2509
405.649	1818
405.727	1376
405.805	4024
405.883	4226
405.961	2830
406.039	2669
406.117	994
406.195	2217
406.273	2061
406.351	8467
406.429	6103
406.507	1910
406.585	732
406.663	1800
406.740	1715
406.818	742
406.896	1281
406.974	1912
407.052	177
407.130	5161
407.208	6090
407.285	2976
407.363	680
407.441	1876
407.519	1487
407.596	1913
407.674	2880
407.752	9790
407.830	7560
407.907	3440
407.985	832
408.063	1844
408.141	1284
408.218	2494
408.296	607
408.373	1362
408.451	1799
408.529	1945
408.606	1837
408.684	2876
408.762	2213
408.839	2825
408.917	2916
408.994	3448
409.072	2721
409.149	5231
409.227	9763
409.304	14582
409.382	14332
409.459	18004
409.537	22875
409.614	19697
409.692	13342
409.769	14305
409.846	23424
409.924	28717
410.001	17255
410.079	11839
410.156	8615
410.233	6437
410.311	4389
410.388	4594
410.465	4690
410.543	3903
410.620	5072
410.697	4890
410.775	3040
410.852	3536
410.929	5641
411.006	5498
411.083	3775
411.161	4104
411.238	4291
411.315	3884
411.392	3458
411.469	3355
411.547	2691
411.624	1560
411.701	2000
411.778	2446
411.855	2104
411.932	1765
412.009	1166
412.086	2080
412.163	1751
412.240	1687
412.317	2032
412.394	2387
412.471	1757
412.548	2085
412.625	989
412.702	1779
412.779	1927
412.856	1890
412.933	811
413.010	1866
413.087	1832
413.164	1433
413.241	2307
413.318	1361
413.395	2533
413.471	1202
413.548	1408
413.625	1868
413.702	744
413.779	1061
413.855	2014
413.932	790
414.009	0
414.086	851
414.162	1782
414.239	2464
414.316	1648
414.393	4691
414.469	318
414.546	1418
414.623	1588
414.699	1832
414.776	742
414.853	1165
414.929	1325
415.006	1342
415.082	1128
415.159	362
415.236	1699
415.312	1738
415.389	1794
415.465	1010
415.542	1788
415.618	285
415.695	1367
415.771	1248
415.848	1046
415.924	1265
416.000	971
416.077	1312
416.153	-460
416.230	309
416.306	735
416.383	219
416.459	798
416.535	764
416.612	1241
416.688	1361
416.764	1679
416.841	1566
416.917	1543
416.993	1587
417.069	1518
417.146	1278
417.222	618
417.298	1368
417.374	503
417.451	2167
417.527	1145
417.603	1519
417.679	869
417.755	871
417.831	1399
417.908	1831
417.984	909
418.060	240
418.136	931
418.212	540
418.288	922
418.364	1472
418.440	255
418.516	1860
418.592	970
418.668	1729
418.744	1266
418.820	2014
418.896	1269
418.972	983
419.048	1595
419.124	2672
419.200	15
419.276	1967
419.352	974
419.428	1433
419.504	368
419.579	1907
419.655	1444
419.731	1540
419.807	2116
419.883	1606
419.959	1610
420.034	2506
420.110	2225
420.186	2275
420.262	3062
420.337	2301
420.413	1666
420.489	2813
420.565	3844
420.640	2652
420.716	3185
420.792	2354
420.867	3890
420.943	3005
421.019	3592
421.094	3357
421.170	4315
421.245	3942
421.321	5869
421.397	5625
421.472	7539
421.548	10363
421.623	9482
421.699	8991
421.774	9153
421.850	10412
421.925	13470
422.001	15279
422.076	18959
422.152	24296
422.227	31227
422.302	45097
422.378	66398
422.453	110199
422.529	182122
422.604	219575
422.679	169514
422.755	211332
422.830	187034
422.905	115543
422.981	74110
423.056	49853
423.131	38759
423.207	27793
423.282	20835
423.357	18477
423.432	15222
423.508	13203
423.583	11217
423.658	9787
423.733	9025
423.808	8643
423.883	8372
423.959	9671
424.034	11860
424.109	11095
424.184	7087
424.259	5732
424.334	4915
424.409	4883
424.484	3803
424.559	4022
424.634	3128
424.709	3388
424.784	3584
424.859	3098
424.934	2212
425.009	3237
425.084	3015
425.159	3051
425.234	2784
425.309	2916
425.384	1970
425.459	1729
425.534	2239
425.609	1631
425.683	1085
425.758	2690
425.833	2600
425.908	2385
425.983	2418
426.058	3897
426.132	1633
426.207	2992
426.282	1965
426.357	1644
426.431	1684
426.506	1575
426.581	1642
426.655	1580
426.730	1137
426.805	1452
426.879	1737
426.954	1776
427.029	1057
427.103	3478
427.178	5315
427.253	3432
427.327	820
427.402	1298
427.476	1481
427.551	497
427.625	1098
427.700	1624
427.774	1040
427.849	2401
427.923	1278
427.998	1694
428.072	2696
428.147	6233
428.221	29480
428.296	91619
428.370	47000
428.444	6729
428.519	3397
428.593	2528
428.667	2575
428.742	4088
428.816	9679
428.890	54220
428.965	81932
429.039	18664
429.113	2945
429.188	2444
429.262	1272
429.336	1724
429.410	1471
429.485	2398
429.559	1590
429.633	2421
429.707	3873
429.781	9726
429.855	51866
429.930	72650
430.004	16847
430.078	10690
430.152	33458
430.226	122343
430.300	113898
430.374	23990
430.448	7167
430.522	4262
430.596	4744
430.670	16552
430.744	71007
430.818	73235
430.892	12724
430.966	3572
431.040	1971
431.114	1023
431.188	674
431.262	1053
431.336	501
431.410	1803
431.484	551
431.557	1726
431.631	1527
431.705	4329
431.779	23398
431.853	86977
431.927	54622
432.000	7775
432.074	2510
432.148	653
432.222	372
432.295	820
432.369	185
432.443	10
432.516	2276
432.590	5050
432.664	1848
432.737	404
432.811	-290
432.885	1161
432.958	1126
433.032	346
433.106	-260
433.179	328
433.253	782
433.326	379
433.400	-42
433.473	827
433.547	-1033
433.620	1208
433.694	371
433.767	570
433.841	-585
433.914	83
433.988	552
434.061	803
434.134	328
434.208	230
434.281	-104
434.355	-53
434.428	648
434.501	594
434.575	-104
434.648	347
434.721	767
434.795	-121
434.868	10
434.941	600
435.014	982
435.088	1452
435.161	1744
435.234	4217
435.307	3674
435.381	5342
435.454	6211
435.527	12207
435.600	12030
435.673	9379
435.746	5451
435.819	3961
435.892	2159
435.966	2346
436.039	1404
436.112	1293
436.185	1055
436.258	672
436.331	861
436.404	1088
436.477	-67
436.550	686
436.623	899
436.696	-121
436.769	-496
436.842	122
436.915	116
436.987	797
437.060	-196
437.133	470
437.206	120
437.279	551
437.352	-286
437.425	818
437.498	48
437.570	542
437.643	-139
437.716	771
437.789	-461
437.861	-43
437.934	-464
438.007	86
438.080	-577
438.152	760
438.225	1095
438.298	3949
438.370	8990
438.443	4422
438.516	647
438.588	134
438.661	-184
438.734	667
438.806	-73
438.879	634
438.951	-228
439.024	281
439.096	-381
439.169	25
439.241	41
439.314	468
439.386	249
439.459	585
439.531	-227
439.604	-114
439.676	-172
439.749	921
439.821	-259
439.893	93
439.966	-218
440.038	-148
440.110	72
440.183	-527
440.255	-668
440.327	1265
440.400	983
440.472	4493
440.544	2059
440.617	807
440.689	1605
440.761	344
440.833	82
440.905	918
440.978	-360
441.050	759
441.122	1129
441.194	224
441.266	509
441.338	-17
441.411	987
441.483	1574
441.555	2067
441.627	616
441.699	1761
441.771	958
441.843	164
441.915	712
441.987	1036
442.059	1364
442.131	2358
442.203	2355
442.275	2462
442.347	6236
442.419	14955
442.491	70304
442.563	139402
442.635	51166
442.706	9815
442.778	4461
442.850	3144
442.922	3123
442.994	2149
443.066	3002
443.137	3538
443.209	5200
443.281	9097
443.353	21902
443.425	77706
443.496	215178
443.568	212572
443.640	83065
443.711	18090
443.783	8172
443.855	4318
443.926	3563
443.998	2250
444.070	2453
444.141	2086
444.213	2584
444.285	2189
444.356	1730
444.428	1100
444.499	2287
444.571	706
444.642	2177
444.714	1399
444.785	2148
444.857	1995
444.928	2779
445.000	2612
445.071	4698
445.143	5440
445.214	8610
445.285	15760
445.357	42851
445.428	146413
445.500	249476
445.571	194206
445.642	125272
445.714	40753
445.785	12953
445.856	5894
445.928	4159
445.999	3104
446.070	1911
446.141	1814
446.213	2098
446.284	656
446.355	1291
446.426	924
446.497	747
446.569	300
446.640	684
446.711	179
446.782	559
446.853	488
446.924	632
446.995	15
447.066	637
447.138	147
447.209	1402
447.280	-565
447.351	536
447.422	-534
447.493	-663
447.564	203
447.635	-34
447.706	75
447.777	351
447.847	-205
447.918	-1318
447.989	114
448.060	932
448.131	361
448.202	-125
448.273	204
448.344	514
448.414	160
448.485	398
448.556	-410
448.627	484
448.698	1389
448.768	-52
448.839	-934
448.910	-372
448.981	98
449.051	245
449.122	-179
449.193	141
449.263	-380
449.334	-47
449.405	-599
449.475	814
449.546	-111
449.616	806
449.687	787
449.758	922
449.828	-188
449.899	-84
449.969	-611
450.040	-615
450.110	-124
450.181	-1
450.251	-441
450.322	-37
450.392	574
450.463	-14
450.533	-642
450.604	-82
450.674	-299
450.744	980
450.815	697
450.885	909
450.955	800
451.026	1123
451.096	-688
451.166	242
451.237	1297
451.307	2900
451.377	1064
451.447	218
451.518	267
451.588	338
451.658	432
451.728	391
451.799	6
451.869	748
451.939	-671
452.009	-116
452.079	-247
452.149	-117
452.219	-125
452.289	799
452.360	-267
452.430	513
452.500	1738
452.570	3235
452.640	9301
452.710	25565
452.780	22866
452.850	11071
452.920	3844
452.990	2608
453.060	947
453.129	561
453.199	344
453.269	345
453.339	172
453.409	-5
453.479	790
453.549	1039
453.619	623
453.688	-799
453.758	199
453.828	-581
453.898	-570
453.968	-139
454.037	599
454.087	-41
454.107	-312
454.168	-302
454.177	-315
454.247	259
454.249	237
454.316	-622
454.330	-475
454.386	72
454.411	-197
454.456	-705
454.492	-362
454.525	-71
454.574	-214
454.595	-298
454.655	-554
454.665	-608
454.734	136
454.736	145
454.804	-80
454.817	18
454.873	375
454.898	458
454.943	574
454.979	69
455.013	-389
455.060	517
455.082	891
455.141	-629
455.152	-906
455.221	627
455.222	636
455.291	296
455.303	390
455.360	672
455.384	465
455.430	14
455.465	20
455.499	83
455.546	-141
455.569	-321
455.627	745
455.638	941
455.707	569
455.708	580
455.777	356
455.789	282
455.846	-75
455.869	212
455.916	622
455.950	448
455.985	353
456.031	553
456.054	595
456.112	456
456.124	427
456.193	1135
456.193	1123
456.262	447
456.274	538
456.332	1152
456.355	900
456.401	359
456.436	735
456.470	1087
456.516	897
456.540	718
456.597	486
456.609	447
456.678	1313
456.678	1299
456.747	748
456.759	674
456.817	687
456.840	901
456.886	1104
456.920	1281
456.955	1460
457.001	1773
457.024	1976
457.082	2065
457.093	2001
457.162	2525
457.163	2536
457.232	1648
457.243	1641
457.301	1551
457.324	1333
457.370	1004
457.405	1501
457.439	2027
457.485	2165
457.508	2195
457.566	2932
457.577	3247
457.646	4879
457.647	4927
457.715	13856
457.727	15847
457.784	28244
457.808	38107
457.853	49011
457.889	55255
457.922	53745
457.969	33159
457.991	32746
458.050	43135
458.060	44965
458.129	80970
458.130	81921
458.198	76886
458.211	67623
458.267	33727
458.292	22729
458.336	14735
458.372	14519
458.405	21806
458.453	34222
458.474	43207
458.533	80254
458.543	82754
458.611	126286
458.614	126490
458.680	69107
458.694	52896
458.749	21939
458.775	15315
458.818	9186
458.855	7124
458.887	5741
458.936	4970
458.955	4562
459.016	2736
459.024	2670
459.093	3673
459.097	3687
459.162	3137
459.177	3169
459.230	3012
459.257	2789
459.299	2739
459.338	2708
459.368	2697
459.418	2549
459.437	2376
459.499	3012
459.505	3101
459.574	2534
459.579	2548
459.643	2506
459.659	2533
459.711	2731
459.740	2656
459.780	2320
459.820	2370
459.849	2571
459.900	3038
459.917	3114
459.981	2337
459.986	2263
460.054	2244
460.061	2242
460.123	2820
460.141	3011
460.191	3064
460.222	2914
460.260	2556
460.302	2425
460.328	2633
460.382	3071
460.397	3094
460.462	3122
460.465	3158
460.534	3882
460.543	4038
460.602	8010
460.623	9524
460.671	13435
460.703	17264
460.739	16244
460.783	12565
460.808	10440
460.864	4018
460.876	3561
460.944	3059
460.945	3049
461.013	3147
461.024	3059
461.081	3075
461.104	3338
461.150	3303
461.184	3008
461.218	2944
461.264	3185
461.286	3304
461.345	3137
461.355	3030
461.423	2784
461.425	2765
461.491	2508
461.505	2604
461.559	2652
461.585	2491
461.628	2796
461.665	3375
461.696	3209
461.745	2643
461.764	2720
461.825	3015
461.832	3064
461.901	3390
461.905	3430
461.969	3050
461.985	2879
462.037	3587
462.065	4092
462.105	3418
462.145	2762
462.173	2962
462.225	2962
462.241	2918
462.305	3115
462.310	3115
462.378	3257
462.385	3225
462.446	3118
462.465	3210
462.514	3635
462.545	3725
462.582	3285
462.625	2810
462.650	3000
462.705	3900
462.718	3846
462.785	2881
462.786	2880
462.854	2541
462.865	2582
462.922	3124
462.945	3293
462.990	3203
463.025	3050
463.058	3210
463.104	3353
463.126	3191
463.184	3176
463.194	3271
463.262	3177
463.264	3191
463.330	3550
463.344	3589
463.398	3594
463.424	3562
463.466	3248
463.504	3033
463.533	3430
463.583	3998
463.601	3859
463.663	3462
463.669	3400
463.737	2457
463.743	2372
463.805	3217
463.823	3544
463.873	3962
463.903	4040
463.940	3807
463.982	3641
464.008	3638
464.062	3580
464.076	3567
464.142	3518
464.144	3531
464.211	3922
464.221	3944
464.279	3557
464.301	3359
464.347	3693
464.381	4120
464.414	4074
464.461	3842
464.482	3640
464.540	3248
464.550	3255
464.617	2753
464.620	2757
464.685	4136
464.699	4347
464.753	3412
464.779	2983
464.820	3510
464.859	3796
464.888	3206
464.938	2392
464.956	2864
465.018	4518
465.023	4466
465.091	3701
465.098	3622
465.158	3741
465.177	3751
465.226	4151
465.257	4377
465.293	3943
465.336	3363
465.361	3380
465.416	3508
465.428	3593
465.495	4031
465.496	4037
465.563	3755
465.575	3725
465.631	4127
465.654	4198
465.698	3686
465.734	3416
465.765	3804
465.813	4194
465.833	4094
465.893	3797
465.900	3812
465.968	3937
465.972	3942
466.035	3502
466.052	3339
466.102	3719
466.131	3950
466.170	3982
466.210	4021
466.237	4118
466.290	4258
466.304	4188
466.369	3805
466.372	3818
466.439	4035
466.449	4054
466.506	3365
466.528	3066
466.573	3610
466.607	4050
466.641	4184
466.687	4367
466.708	4656
466.766	5356
466.775	5212
466.842	4118
466.845	4056
466.909	4505
466.925	4620
466.977	4895
467.004	5021
467.044	5113
467.083	5162
467.111	5020
467.163	4750
467.178	4631
467.242	4091
467.245	4120
467.312	4580
467.321	4635
467.379	4174
467.400	3991
467.446	4713
467.480	5224
467.559	5351
467.638	4588
467.717	5265
467.796	5144
467.875	5891
467.955	5869
468.034	6974
468.113	7252
468.192	8681
468.271	11101
468.350	16351
468.429	24865
468.508	27421
468.588	16044
468.667	9055
468.746	6521
468.825	5690
468.904	6236
468.983	5788
469.062	5424
469.141	5681
469.220	4529
469.299	5378
469.378	3907
469.456	6059
469.535	5202
469.614	4685
469.693	3933
469.772	4554
469.851	6296
469.930	4944
470.009	6074
470.088	7231
470.166	11015
470.245	18224
470.324	22266
470.403	14060
470.482	8239
470.560	6506
470.639	5650
470.718	6307
470.797	4671
470.875	6053
470.954	4534
471.033	5160
471.111	4601
471.190	5308
471.269	4311
471.347	4210
471.426	5089
471.505	4794
471.583	4476
471.662	5481
471.740	4757
471.819	4963
471.898	3824
471.976	5294
472.055	3896
472.133	4531
472.212	5076
472.290	4742
472.369	4149
472.447	4374
472.526	4022
472.604	5093
472.683	4768
472.761	4345
472.839	4593
472.918	5424
472.996	4904
473.075	5415
473.153	5388
473.231	4839
473.310	5677
473.388	5114
473.466	5040
473.545	4877
473.623	4596
473.701	4719
473.780	5986
473.858	4079
473.936	6623
474.014	5378
474.093	5877
474.171	5370
474.249	5031
474.327	5082
474.405	5679
474.484	6361
474.562	4401
474.640	4600
474.718	5252
474.796	5004
474.874	4737
474.952	4747
475.030	4477
475.108	5568
475.187	5178
475.265	5338
475.343	6085
475.421	4607
475.499	4284
475.577	4643
475.655	5797
475.733	6160
475.811	4217
475.889	4519
475.966	5346
476.044	4851
476.122	4864
476.200	6040
476.278	4248
476.356	4511
476.434	5340
476.512	5205
476.590	5628
476.667	5539
476.745	4540
476.823	5121
476.901	4798
476.979	4563
477.056	4922
477.134	4419
477.212	4905
477.290	5202
477.367	4421
477.445	4700
477.523	4121
477.601	4918
477.678	5309
477.756	4160
477.834	5330
477.911	4752
477.989	4950
478.066	4917
478.144	3887
478.222	4921
478.299	4364
478.377	5027
478.454	5482
478.532	5253
478.609	4522
478.687	5701
478.764	4876
478.842	4921
478.919	4919
478.997	4708
479.074	4957
479.152	4465
479.229	4932
479.307	4279
479.384	4022
479.461	4213
479.539	4565
479.616	4831
479.694	4505
479.771	5693
479.848	5064
479.926	3903
480.003	5280
480.080	5484
480.157	5036
480.235	4303
480.312	4644
480.389	4923
480.467	4542
480.544	5139
480.621	6443
480.698	5722
480.775	5157
480.853	5698
480.930	5207
481.007	4678
481.084	4992
481.161	5615
481.238	5041
481.315	4595
481.392	4585
481.470	4834
481.547	5188
481.624	4674
481.701	5194
481.778	5686
481.855	4704
481.932	6649
482.009	6413
482.086	6575
482.163	8154
482.240	8745
482.317	8897
482.393	7758
482.470	6385
482.547	7411
482.624	6100
482.701	5561
482.778	5315
482.855	5960
482.932	5832
483.009	7079
483.085	7823
483.162	7881
483.239	9794
483.316	8515
483.393	9695
483.469	8468
483.546	7053
483.623	6665
483.699	6282
483.776	5649
483.853	4778
483.930	5264
484.006	4483
484.083	6444
484.160	5201
484.236	5488
484.313	5373
484.389	5336
484.466	8593
484.543	8576
484.619	12384
484.696	15344
484.772	10042
484.849	6867
484.925	6270
485.002	5914
485.078	5375
485.155	4054
485.231	5721
485.308	4858
485.384	5161
485.461	5616
485.537	4562
485.614	5400
485.690	4685
485.766	5196
485.843	4376
485.919	5785
485.995	6236
486.072	5207
486.148	4146
486.224	4943
486.301	4451
486.377	5357
486.453	3901
486.530	5959
486.606	6155
486.682	4876
486.758	4881
486.835	4684
486.911	4122
486.987	7457
487.063	6970
487.139	7745
487.215	9009
487.292	11473
487.368	11994
487.444	14154
487.520	20573
487.596	31990
487.672	84465
487.748	282463
487.824	414818
487.900	115355
487.976	29359
488.052	15705
488.128	11605
488.204	8264
488.280	8597
488.356	6809
488.432	7071
488.508	6829
488.584	5753
488.660	6040
488.736	5851
488.812	5135
488.888	5771
488.964	4843
489.039	5410
489.115	7227
489.191	6505
489.267	5042
489.343	3792
489.418	4910
489.494	5047
489.570	4154
489.646	5723
489.722	5365
489.797	6037
489.873	5899
489.949	5487
490.024	4890
490.100	4186
490.176	5618
490.251	5477
490.327	5857
490.403	4121
490.478	5248
490.554	5206
490.629	5464
490.705	5060
490.781	5420
490.856	4257
490.932	5330
491.007	5324
491.083	4105
491.158	4886
491.234	5696
491.309	6498
491.385	3962
491.460	4302
491.536	5816
491.611	4197
491.686	6065
491.762	4004
491.837	5107
491.913	5264
491.988	6591
492.063	6546
492.139	6411
492.214	4764
492.289	6287
492.365	5555
492.440	5450
492.515	4260
492.590	5118
492.666	4173
492.741	4404
492.816	4445
492.891	4508
492.967	4808
493.042	4696
493.117	3661
493.192	4790
493.267	5568
493.342	5623
493.418	5637
493.493	4408
493.568	4420
493.643	5033
493.718	5004
493.793	5207
493.868	5484
493.943	5431
494.018	5041
494.093	4454
494.168	5952
494.243	4543
494.318	4962
494.393	5738
494.468	4652
494.543	5097
494.618	5567
494.693	4793
494.768	5672
494.842	5622
494.917	6595
494.992	5258
495.067	6246
495.142	5106
495.217	5256
495.292	5768
495.366	5721
495.441	4677
495.516	5822
495.591	6307
495.665	6801
495.740	10960
495.815	7468
495.890	5788
495.964	4367
496.039	7744
496.114	6822
496.188	7411
496.263	7010
496.338	5827
496.412	4854
496.487	6839
496.561	5247
496.636	6840
496.710	6503
496.785	6173
496.860	5741
496.934	5634
497.009	6722
497.083	5581
497.158	6777
497.232	7038
497.307	8175
497.381	8338
497.455	8132
497.530	7345
497.604	5454
497.679	6372
497.753	5653
497.827	5004
497.902	4881
497.976	6845
498.050	7172
498.125	10067
498.199	9823
498.273	7774
498.348	6873
498.422	8842
498.496	8850
498.570	10085
498.645	5468
498.719	3500
498.793	5864
498.867	6016
498.941	5407
499.016	6851
499.090	7553
499.164	7404
499.238	6147
499.312	7336
499.386	6761
499.460	7788
499.534	8640
499.609	10748
499.683	7453
499.757	5806
499.831	4237
499.905	6312
499.979	6259
500.053	4855
500.127	5365
500.201	5724
500.275	6307
500.349	6566
500.422	6342
500.496	8996
500.570	10572
500.644	14573
500.718	12614
500.792	6015
500.866	4547
500.940	4239
501.013	5130
501.087	3463
501.161	3649
501.235	3049
501.309	5770
501.382	5438
501.456	5562
501.530	3999
501.603	3370
501.677	3396
501.751	2226
501.825	4957
501.898	3545
501.972	3679
502.046	3653
502.119	3007
502.193	4643
502.266	4535
502.340	4445
502.413	3829
502.487	4141
502.561	3161
502.634	4126
502.708	4678
502.781	3973
502.855	5487
502.928	2826
503.002	4267
503.075	3194
503.149	3073
503.222	4407
503.295	3626
503.369	3952
503.442	4741
503.516	5948
503.589	7419
503.662	8083
503.736	9194
503.809	11711
503.882	14028
503.956	22995
504.029	49970
504.102	162545
504.175	235184
504.249	75802
504.322	24393
504.395	13923
504.468	9825
504.542	6093
504.615	4444
504.688	5864
504.761	3619
504.834	5579
504.907	4252
504.980	3966
505.053	3636
505.127	1153
505.200	5791
505.273	2867
505.346	3154
505.419	2789
505.492	5423
505.565	2818
505.638	3863
505.711	2494
505.784	2159
505.857	2241
505.930	4586
506.003	1728
506.076	5051
506.149	1823
506.221	1623
506.294	4166
506.367	1350
506.440	3880
506.513	3834
506.586	2770
506.659	1905
506.731	3192
506.804	2339
506.877	1376
506.950	4493
507.022	3215
507.095	1952
507.168	3389
507.241	3712
507.313	1506
507.386	1633
507.459	3509
507.531	2924
507.604	1940
507.677	4038
507.749	818
507.822	3685
507.894	1994
507.967	3673
508.040	1446
508.112	3626
508.185	2729
508.257	2671
508.330	4171
508.402	2329
508.475	2072
508.547	3057
508.620	1997
508.692	3120
508.765	2807
508.837	2031
508.909	2991
508.982	2630
509.054	2514
509.127	2296
509.199	1926
509.271	1689
509.344	2477
509.416	2173
509.488	2283
509.560	3505
509.633	2612
509.705	1564
509.777	1371
509.849	3075
509.922	1098
509.994	2192
510.066	3264
510.138	1480
510.210	4479
510.283	1612
510.355	2719
510.427	3460
510.499	3340
510.571	3233
510.643	2148
510.715	4693
510.787	849
510.859	4149
510.931	2088
511.003	2687
511.076	3755
511.148	1810
511.219	2130
511.291	3273
511.363	2935
511.435	2357
511.507	1521
511.579	3361
511.651	3718
511.723	2232
511.795	2130
511.867	2522
511.939	3316
512.010	2969
512.082	2779
512.154	2342
512.226	1581
512.298	4347
512.369	2553
512.441	3547
512.513	2954
512.585	944
512.656	2999
512.728	2576
512.800	2538
512.871	4264
512.943	3306
513.015	1319
513.086	3163
513.158	2720
513.230	1518
513.301	2215
513.373	3636
513.444	2860
513.516	2595
513.588	2073
513.659	2336
513.731	2804
513.802	1113
513.874	4328
513.945	3474
514.016	2562
514.088	3776
514.159	1873
514.231	3399
514.302	3026
514.374	4063
514.445	671
514.516	5029
514.588	3353
514.659	3022
514.730	2980
514.802	4110
514.873	300
514.944	5849
515.016	3454
515.087	3601
515.158	2697
515.229	4297
515.301	2321
515.372	4737
515.443	2670
515.514	2125
515.585	2763
515.656	4275
515.728	5701
515.799	2172
515.870	4576
515.941	4479
516.012	4098
516.083	6414
516.154	4708
516.225	6716
516.296	10571
516.367	10002
516.438	12632
516.509	16158
516.580	28542
516.651	114962
516.722	373264
516.793	136972
516.864	25490
516.935	22395
517.006	25801
517.077	34999
517.148	91884
517.219	441072
517.289	606740
517.360	89042
517.431	22217
517.502	12471
517.573	12552
517.643	10283
517.714	11279
517.785	12615
517.856	14305
517.926	19847
517.997	23510
518.068	28268
518.138	41246
518.209	72519
518.280	287022
518.350	893509
518.421	342390
518.492	56048
518.562	34853
518.633	34502
518.703	44791
518.774	108216
518.845	300931
518.915	269735
518.986	65809
519.056	26802
519.127	17046
519.197	12413
519.268	8990
519.338	8174
519.408	6168
519.479	6151
519.549	5401
519.620	6474
519.690	4025
519.760	3906
519.831	4726
519.901	3620
519.971	4549
520.042	3729
520.112	2852
520.182	4441
520.253	3961
520.323	2896
520.393	3083
520.463	4737
520.534	417
520.604	5890
520.674	4671
520.744	2451
520.814	2646
520.885	3977
520.955	2643
521.025	3080
521.095	3215
521.165	4467
521.235	2716
521.305	2156
521.375	4556
521.445	3428
521.515	2705
521.585	4282
521.655	1148
521.725	3669
521.795	3492
521.865	557
521.935	6134
522.005	2409
522.075	2449
522.145	3316
522.215	964
522.285	3027
522.355	2556
522.424	3609
522.494	2558
522.564	3411
522.634	3656
522.704	6327
522.774	4136
522.843	3744
522.913	3761
522.983	3299
523.053	3011
523.122	4025
523.192	3094
523.262	3939
523.331	3540
523.401	3472
523.471	3013
523.540	3970
523.610	2978
523.680	4339
523.749	3827
523.819	4157
523.888	3028
523.958	3560
524.027	3637
524.097	3906
524.166	3599
524.236	2892
524.305	6053
524.375	2985
524.444	2774
524.514	5726
524.583	3411
524.653	3187
524.722	3639
524.791	2381
524.861	5523
524.930	3773
524.999	3234
525.069	5053
525.138	4524
525.207	3701
525.277	5213
525.346	5512
525.415	7251
525.484	7248
525.554	7326
525.623	10341
525.692	13297
525.761	14666
525.830	20387
525.900	26395
525.969	43978
526.038	86742
526.107	190590
526.176	535426
526.245	393945
526.314	111573
526.383	265482
526.452	344511
526.522	501041
526.591	425475
526.660	67067
526.729	37778
526.797	42184
526.867	60327
526.935	195310
527.004	725794
527.073	422934
527.142	54225
527.211	21879
527.280	15355
527.349	11756
527.418	6677
527.487	8488
527.555	4906
527.624	4837
527.693	4353
527.762	5887
527.831	4720
527.899	5886
527.968	5913
528.037	3256
528.106	5144
528.174	5734
528.243	4920
528.312	4723
528.380	4001
528.449	2908
528.518	5507
528.586	2391
528.655	5360
528.723	3801
528.792	3640
528.861	2237
528.929	2551
528.998	4565
529.066	3709
529.135	4466
529.203	3598
529.272	2205
529.340	4386
529.409	4989
529.477	2913
529.545	2132
529.614	6115
529.682	2441
529.751	3297
529.819	6295
529.887	3530
529.956	3508
530.024	4567
530.092	3246
530.161	4245
530.229	3928
530.297	3330
530.365	5601
530.434	4121
530.502	3175
530.570	4755
530.638	3415
530.707	4560
530.775	5520
530.843	3371
530.911	4265
530.979	4331
531.047	3816
531.115	4989
531.183	4770
531.252	4242
531.320	4494
531.388	3020
531.456	5105
531.524	3209
531.592	5588
531.660	6606
531.728	3419
531.796	4531
531.864	4994
531.932	4482
532.000	3591
532.067	4917
532.135	5156
532.203	6578
532.271	5073
532.339	6805
532.407	7227
532.475	6628
532.542	7333
532.610	6335
532.678	5151
532.746	8741
532.814	12719
532.881	7113
532.949	6337
533.017	6158
533.084	5054
533.152	4950
533.220	5910
533.287	4742
533.355	5366
533.423	6388
533.490	4908
533.558	6424
533.625	6734
533.693	4874
533.761	6342
533.828	7532
533.896	4693
533.963	6996
534.031	8522
534.098	10325
534.166	11159
534.233	9457
534.300	13510
534.368	12101
534.435	12406
534.503	13010
534.570	13971
534.637	15874
534.705	18940
534.772	23163
534.840	50492
534.907	234441
534.974	272298
535.041	33391
535.109	15112
535.176	11587
535.243	11868
535.310	11137
535.378	9511
535.445	10691
535.512	10190
535.579	10457
535.646	9613
535.714	10304
535.781	11871
535.848	11737
535.915	10169
535.982	9581
536.049	10722
536.116	11445
536.183	9538
536.250	9633
536.317	9156
536.384	11732
536.451	11413
536.518	11802
536.585	9581
536.652	12986
536.719	12315
536.786	9434
536.853	11232
536.920	12044
536.987	11679
537.053	9409
537.120	14676
537.187	14557
537.254	11888
537.321	10629
537.388	14275
537.454	10295
537.521	10911
537.588	11799
537.654	12815
537.721	12264
537.788	12875
537.855	12143
537.921	12772
537.988	12285
538.055	12023
538.121	9490
538.188	11055
538.254	10394
538.321	11160
538.388	12580
538.454	14279
538.521	13884
538.587	13658
538.654	12029
538.720	12673
538.787	13654
538.853	12036
538.920	11702
538.986	10130
539.053	10617
539.119	11396
539.185	11192
539.252	12858
539.318	12255
539.385	15482
539.451	12177
539.517	13642
539.583	12777
539.650	12640
539.716	12878
539.782	12060
539.849	10740
539.915	12919
539.981	11693
540.047	11560
540.114	11763
540.180	13617
540.246	11971
540.312	13645
540.378	13554
540.444	14466
540.510	13526
540.576	16526
540.643	12241
540.709	10921
540.775	12102
540.841	11982
540.907	12980
540.973	13353
541.039	11520
541.105	13743
541.171	12621
541.237	13009
541.303	14189
541.369	15083
541.435	12814
541.500	12578
541.566	10629
541.632	12142
541.698	12320
541.764	14192
541.830	12228
541.896	12007
541.961	13252
542.027	11806
542.093	13732
542.159	14289
542.224	10981
542.290	13465
542.356	12036
542.421	13085
542.487	12355
542.553	11027
542.618	12205
542.684	12533
542.750	13355
542.815	13770
542.881	12698
542.947	14749
543.012	14537
543.078	12538
543.143	11201
543.209	13027
543.274	10823
543.340	12495
543.405	13005
543.471	12922
543.536	13098
543.602	13307
543.667	11812
543.732	13957
543.798	12988
543.863	13630
543.928	12763
543.994	13015
544.059	13205
544.124	14220
544.190	14365
544.255	14985
544.320	14438
544.386	14080
544.451	15708
544.516	14592
544.581	15047
544.646	14318
544.712	16288
544.777	15452
544.842	15233
544.907	15817
544.972	15206
545.037	16336
545.102	16249
545.168	16001
545.233	16928
545.298	17398
545.363	15577
545.428	17971
545.493	19386
545.558	18331
545.623	17769
545.688	17908
545.753	18775
545.818	18775
545.883	22126
545.947	21026
546.012	22516
546.077	21896
546.142	25133
546.207	24227
546.272	26218
546.337	26769
546.401	28697
546.466	28943
546.531	29349
546.596	32855
546.661	34735
546.725	37101
546.790	37657
546.855	42465
546.919	45493
546.984	52264
547.049	55437
547.113	63524
547.178	69207
547.243	79590
547.307	93035
547.372	101139
547.436	102266
547.501	109878
547.565	116328
547.630	106049
547.695	102873
547.759	102362
547.823	103975
547.888	106523
547.952	109867
548.017	113020
548.081	115381
548.146	115160
548.210	117325
548.274	128722
548.339	123553
548.403	113947
548.468	107095
548.532	107079
548.596	108806
548.660	108931
548.725	119832
548.789	129114
548.853	124903
548.917	121419
548.982	115836
549.046	104357
549.110	93738
549.174	97854
549.238	116845
549.303	126020
549.367	129028
549.431	122525
549.495	116065
549.559	116483
549.623	136414
549.687	147683
549.751	143908
549.815	171628
549.879	172560
549.943	167410
550.007	175206
550.071	171500
550.135	154754
550.199	147828
550.263	146227
550.327	135883
550.391	140359
550.455	158338
550.519	165236
550.582	177236
550.646	198149
550.710	198764
550.774	195447
550.838	201682
550.901	205010
550.965	218019
551.029	224254
551.093	235108
551.156	256194
551.220	283876
551.284	314090
551.347	249130
551.411	214069
551.475	205426
551.538	215185
551.602	200482
551.666	190706
551.729	181931
551.793	176340
551.856	172303
551.920	169812
551.983	172307
552.047	167570
552.110	171994
552.174	170360
552.237	174851
552.301	161949
552.364	157030
552.428	151523
552.491	158752
552.554	161342
552.618	160822
552.681	162987
552.745	161000
552.808	180172
552.871	199972
552.934	177350
552.998	162369
553.061	156703
553.124	150744
553.187	148821
553.251	156183
553.314	154924
553.377	158265
553.440	166216
553.503	170214
553.567	169128
553.630	169287
553.693	169100
553.756	172306
553.819	167361
553.882	162299
553.945	162015
554.008	162779
554.071	163868
554.134	164170
554.197	155345
554.260	153859
554.323	157593
554.386	159427
554.449	165342
554.512	162318
554.575	155879
554.638	155604
554.701	152253
554.764	153114
554.827	147328
554.889	142468
554.952	133984
555.015	132023
555.078	133645
555.141	137300
555.203	134813
555.266	132453
555.329	131450
555.391	127162
555.454	124324
555.517	118355
555.580	114745
555.642	112607
555.705	110410
555.768	108062
555.830	104334
555.893	101549
555.955	96593
556.018	94964
556.080	95966
556.143	98467
556.206	97871
556.268	93511
556.330	91559
556.393	90059
556.455	86518
556.518	84928
556.580	82065
556.643	78314
556.705	78457
556.767	75655
556.830	75290
556.892	73715
556.955	72330
557.017	69405
557.079	69960
557.142	67481
557.204	66548
557.266	66339
557.328	61804
557.391	58326
557.453	56782
557.515	58156
557.577	57612
557.639	58641
557.701	57451
557.764	57956
557.826	57542
557.888	58609
557.950	60243
558.012	66950
558.074	83970
558.136	173836
558.198	369839
558.260	133184
558.322	61954
558.384	62407
558.446	62998
558.508	67235
558.570	73258
558.632	84235
558.694	106288
558.756	173146
558.818	470490
558.880	902012
558.942	373361
559.003	389357
559.065	180616
559.127	76602
559.189	72600
559.251	81884
559.312	113236
559.374	261624
559.436	702044
559.498	333913
559.559	85402
559.621	72094
559.683	82789
559.744	133880
559.806	401375
559.868	524881
559.929	120154
559.991	82205
560.052	132910
560.114	358438
560.176	214644
560.237	213718
560.299	313908
560.360	69685
560.422	32929
560.483	28425
560.545	26180
560.606	25362
560.667	23921
560.729	23748
560.790	21949
560.852	22297
560.913	21483
560.974	21434
561.036	20447
561.097	19974
561.158	20360
561.220	19402
561.281	19197
561.342	18762
561.403	19130
561.465	18258
561.526	19276
561.587	18606
561.648	17445
561.709	16537
561.771	17426
561.832	16999
561.893	15710
561.954	16679
562.015	15315
562.076	15790
562.137	15592
562.198	16660
562.259	15520
562.320	15483
562.381	15327
562.442	15321
562.503	14301
562.564	15135
562.625	14064
562.686	14832
562.747	15229
562.808	14777
562.869	13883
562.930	14156
562.991	13032
563.051	13627
563.112	13641
563.173	14004
563.234	13358
563.294	13335
563.355	12191
563.416	13262
563.477	12942
563.537	12153
563.598	12427
563.659	13227
563.720	10526
563.780	12609
563.841	13139
563.901	12430
563.962	12036
564.023	13061
564.083	12117
564.144	12285
564.204	12314
564.265	11807
564.325	10518
564.386	12670
564.446	11456
564.507	11908
564.567	11818
564.628	11346
564.688	11286
564.749	10962
564.809	12210
564.869	12506
564.930	11056
564.990	11381
565.050	10884
565.111	11542
565.171	11427
565.231	11032
565.292	11424
565.352	9912
565.412	11626
565.472	10955
565.532	11136
565.593	10780
565.653	9484
565.713	10840
565.773	12412
565.833	11660
565.893	12153
565.953	9658
566.013	10603
566.074	10382
566.134	9945
566.194	10066
566.254	10283
566.314	10197
566.374	9685
566.434	10938
566.494	10259
566.554	9806
566.614	9255
566.673	10599
566.733	11219
566.793	10937
566.853	10803
566.913	11714
566.973	10030
567.033	11942
567.092	11085
567.152	11090
567.212	11638
567.272	11282
567.331	10986
567.391	11619
567.451	12570
567.511	11201
567.570	11852
567.630	11392
567.690	10142
567.749	10885
567.809	10603
567.868	10141
567.928	10454
567.988	10908
568.047	10414
568.107	11348
568.166	11201
568.226	11037
568.285	12142
568.345	11535
568.404	12602
568.464	11118
568.523	9907
568.582	11815
568.642	10857
568.701	10265
568.761	10511
568.820	10979
568.879	11042
568.939	11486
568.998	11078
569.057	11103
569.116	10492
569.176	10149
569.235	10430
569.294	10785
569.353	10544
569.413	11140
569.472	10092
569.531	9729
569.590	9919
569.649	9146
569.708	10118
569.767	10576
569.827	10501
569.886	10149
569.945	9932
570.004	11138
570.063	10495
570.122	10646
570.181	10354
570.240	10581
570.299	10492
570.358	10915
570.417	10607
570.475	11223
570.534	11176
570.593	11511
570.652	11410
570.711	11504
570.770	10796
570.829	9903
570.887	10658
570.946	10980
571.005	10834
571.064	12705
571.122	12546
571.181	10789
571.240	10383
571.299	11445
571.357	10499
571.416	10424
571.475	10005
571.533	11570
571.592	11433
571.650	11215
571.709	11503
571.768	12871
571.826	13602
571.885	13064
571.943	11080
572.002	10906
572.060	10618
572.119	11289
572.177	10939
572.236	11322
572.294	12052
572.352	11705
572.411	12079
572.469	10629
572.528	10111
572.586	9749
572.644	11923
572.703	10191
572.761	9507
572.819	10031
572.877	9400
572.936	9604
572.994	9764
573.052	9938
573.110	9660
573.169	11041
573.227	10838
573.285	10674
573.343	11079
573.401	10281
573.459	10354
573.517	10296
573.576	9950
573.634	10946
573.692	10012
573.750	9903
573.808	9659
573.866	9350
573.924	10179
573.982	9920
574.040	9577
574.098	9520
574.155	10066
574.213	9159
574.271	9264
574.329	10660
574.387	9129
574.445	8479
574.503	8283
574.560	7880
574.618	9281
574.676	8533
574.734	8935
574.792	8743
574.849	8320
574.907	6892
574.965	6545
575.022	7533
575.080	7024
575.138	7490
575.195	7225
575.253	7307
575.311	6776
575.368	7165
575.426	6351
575.483	6984
575.541	7333
575.598	7204
575.656	7391
575.713	7251
575.771	7598
575.828	7365
575.886	6451
575.943	6862
576.001	6508
576.058	6442
576.115	6670
576.173	6909
576.230	7333
576.287	7017
576.345	7327
576.402	7121
576.459	8065
576.517	6179
576.574	6237
576.631	6734
576.688	5915
576.746	6518
576.803	6459
576.860	6345
576.917	5804
576.974	7122
577.031	6789
577.089	6732
577.146	5467
577.203	6152
577.260	6962
577.317	5617
577.374	5919
577.431	6079
577.488	5810
577.545	5819
577.602	6467
577.659	6556
577.716	5409
577.773	6242
577.830	6187
577.886	6081
577.943	5415
578.000	6345
578.057	5740
578.114	6554
578.171	5887
578.227	5803
578.284	5943
578.341	6418
578.398	6188
578.454	5929
578.511	5649
578.568	6666
578.625	6244
578.681	5895
578.738	6818
578.794	5988
578.851	5863
578.908	6140
578.964	5871
579.021	6837
579.077	5902
579.134	6614
579.190	6084
579.247	6528
579.303	6468
579.360	6035
579.416	5875
579.473	6093
579.529	6376
579.586	6433
579.642	5700
579.698	6216
579.755	6516
579.811	6784
579.867	5766
579.924	6138
579.980	5897
580.036	6644
580.093	5703
580.149	6340
580.205	5948
580.261	6622
580.317	7379
580.374	7387
580.430	7112
580.486	6536
580.542	6811
580.598	6977
580.619	6915
580.654	6811
580.692	7196
580.710	7398
580.765	7163
580.767	7160
580.823	7900
580.838	7713
580.879	7237
580.911	7077
580.935	6973
580.984	6778
580.991	6766
581.047	7770
581.057	7687
581.103	7255
581.130	7084
581.159	6933
581.203	6620
581.215	6538
581.270	7438
581.276	7369
581.326	6801
581.349	7094
581.382	7502
581.422	6898
581.438	6669
581.494	6545
581.494	6541
581.550	6318
581.567	6396
581.606	6665
581.640	6947
581.661	7088
581.713	7344
581.717	7375
581.773	7160
581.786	7214
581.829	7299
581.859	7192
581.885	7183
581.932	7011
581.940	6940
581.996	6582
582.004	6680
582.052	7463
582.077	7365
582.107	7143
582.150	6871
582.163	6823
582.219	6815
582.223	6788
582.274	6487
582.296	6256
582.330	5852
582.368	6582
582.386	6949
582.441	7012
582.441	7012
582.497	6258
582.514	6441
582.552	6847
582.587	6682
582.608	6635
582.659	6440
582.663	6404
582.719	7478
582.732	7412
582.774	7556
582.805	7871
582.830	7963
582.877	7184
582.885	7073
582.941	6875
582.950	6992
582.996	7441
583.023	7260
583.052	7289
583.095	7238
583.107	7163
583.162	7985
583.168	7926
583.218	7378
583.240	7200
583.273	6845
583.313	6538
583.328	6500
583.384	7051
583.385	7038
583.439	6468
583.458	6613
583.494	6954
583.531	7045
583.549	7115
583.603	7080
583.605	7074
583.660	7136
583.676	7295
583.715	7678
583.748	7122
583.770	6912
583.820	7049
583.825	7003
583.881	7006
583.893	6923
583.936	7235
583.965	7564
583.991	7563
584.038	6845
584.046	6783
584.101	8061
584.110	8064
584.156	7700
584.183	7357
584.211	7236
584.255	7735
584.266	7825
584.321	8618
584.328	8536
584.376	7979
584.400	8190
584.431	8272
584.472	8135
584.486	8148
584.541	8430
584.545	8444
584.596	8878
584.617	8788
584.651	8821
584.689	9820
584.706	9946
584.761	9104
584.762	9105
584.816	10088
584.834	10332
584.871	10685
584.906	10885
584.926	11155
584.978	11923
584.980	11950
585.035	13086
585.051	13469
585.090	14577
585.123	15898
585.145	16759
585.195	17968
585.200	18157
585.254	21852
585.267	22595
585.309	24701
585.340	26845
585.364	29116
585.412	34506
585.419	35388
585.473	44125
585.484	46666
585.528	61467
585.556	77375
585.583	108062
585.628	179457
585.637	204315
585.692	422429
585.700	455768
585.747	549125
585.772	456912
585.801	279709
585.845	97506
585.856	75614
585.910	39359
585.917	35857
585.965	26980
585.989	23714
586.019	21162
586.061	19380
586.074	19118
586.128	18134
586.133	18055
586.183	16608
586.205	16059
586.237	16022
586.277	16437
586.292	16607
586.346	16602
586.349	16599
586.401	16462
586.421	16443
586.455	16137
586.493	15860
586.509	16052
586.564	16388
586.565	16402
586.618	17991
586.637	18760
586.672	21375
586.709	24995
586.727	26208
586.781	27911
586.781	27913
586.835	20566
586.853	19108
586.889	17771
586.925	16700
586.944	16541
586.996	17109
586.998	17130
587.052	16648
587.068	16596
587.106	16977
587.140	17030
587.161	16805
587.212	16779
587.215	16842
587.269	17774
587.284	18030
587.323	18402
587.356	18859
587.377	19303
587.427	20148
587.431	20154
587.485	19688
587.499	19576
587.539	20032
587.571	20288
587.593	20683
587.643	22366
587.648	22498
587.702	22412
587.715	22525
587.755	22355
587.786	22125
587.810	22509
587.858	23520
587.864	23539
587.917	23173
587.930	23081
587.971	23474
588.001	23740
588.025	23518
588.073	22918
588.079	22982
588.133	22918
588.145	23098
588.187	23637
588.217	23747
588.241	24120
588.288	24878
588.295	24934
588.348	24999
588.360	24986
588.402	25274
588.431	25352
588.456	25447
588.503	26241
588.510	26580
588.564	29022
588.575	29497
588.617	30560
588.646	31435
588.671	32507
588.718	34492
588.725	34941
588.778	39581
588.789	40856
588.832	58764
588.861	73102
588.886	104598
588.932	175405
588.939	181372
588.993	220810
589.004	217515
589.047	113138
589.075	56462
589.100	45398
589.147	33398
589.154	33037
589.207	30457
589.218	29967
589.261	31207
589.290	32306
589.314	33047
589.361	34938
589.368	36025
589.421	45804
589.433	48371
589.475	79744
589.504	104580
589.528	135947
589.576	202710
589.582	196070
589.635	95239
589.647	75909
589.689	46677
589.718	30918
589.742	30066
589.790	28111
589.795	28046
589.849	27489
589.861	27411
589.902	27169
589.932	26669
589.955	26709
590.004	26972
590.009	26986
590.062	26499
590.075	26374
590.115	26558
590.146	26620
590.168	26431
590.218	26100
590.222	26247
590.275	27573
590.289	27893
590.328	28599
590.360	29046
590.381	29204
590.431	29363
590.435	29393
590.488	29266
590.503	29128
590.541	29438
590.574	29790
590.594	30047
590.645	30629
590.647	30762
590.700	33046
590.716	33623
590.753	33692
590.787	33851
590.806	34358
590.859	35478
590.859	35548
590.912	36269
590.930	36355
590.965	36547
591.001	36827
591.018	36512
591.071	34926
591.072	34854
591.124	34967
591.143	34858
591.177	35047
591.214	35410
591.230	36118
591.283	38142
591.285	38149
591.336	37425
591.356	37132
591.389	37318
591.427	37269
591.442	36964
591.495	35585
591.498	35436
591.547	37138
591.569	37824
591.600	37829
591.640	37599
591.653	37948
591.706	39322
591.711	39389
591.759	39285
591.782	39153
591.811	40652
591.853	42721
591.864	42606
591.917	41599
591.924	41374
591.969	42522
591.995	43124
592.022	43172
592.066	42996
592.075	43231
592.127	44269
592.137	44384
592.180	44938
592.208	45181
592.233	45812
592.279	46763
592.285	47026
592.338	48616
592.350	48876
592.390	48347
592.421	47810
592.443	48289
592.491	49105
592.495	49331
592.548	51234
592.562	51656
592.600	51191
592.633	50638
592.653	50574
592.704	49890
592.705	50212
592.775	52081
592.846	54589
592.916	53449
592.987	55392
593.058	54935
593.128	56321
593.199	56106
593.270	57939
593.341	58299
593.411	60753
593.482	62292
593.553	65152
593.623	63898
593.694	67413
593.764	68638
593.835	66748
593.906	67616
593.976	69987
594.047	71046
594.117	75258
594.188	75880
594.258	76457
594.329	76037
594.399	79808
594.470	80881
594.540	83971
594.611	84634
594.681	84928
594.751	83764
594.822	89380
594.892	90424
594.963	93267
595.033	95903
595.103	98787
595.174	99061
595.244	103369
595.314	104948
595.384	107382
595.455	111915
595.525	114315
595.595	120158
595.665	119352
595.736	116405
595.806	118881
595.876	120873
595.946	122148
596.016	126420
596.087	131492
596.157	129966
596.227	133351
596.297	138803
596.367	149562
596.437	158418
596.507	156133
596.577	154233
596.647	163279
596.717	168892
596.787	172292
596.857	171465
596.927	173389
596.997	172228
597.067	175471
597.137	178200
597.207	180031
597.277	180230
597.347	173285
597.417	167399
597.487	168221
597.557	173453
597.626	177831
597.696	179062
597.766	177107
597.836	164973
597.906	158328
597.975	155783
598.045	159036
598.115	165827
598.185	180397
598.254	200807
598.324	218913
598.394	219786
598.464	214185
598.533	208096
598.603	194140
598.672	187711
598.742	193629
598.812	191927
598.881	200101
598.951	197286
599.020	202011
599.090	208720
599.159	211308
599.229	202343
599.299	200024
599.368	204160
599.437	201360
599.507	184328
599.576	178983
599.646	175549
599.715	174326
599.785	170191
599.854	166542
599.924	162937
599.993	162128
600.062	167557
600.132	171132
600.201	183386
600.270	214385
600.340	224645
600.409	220298
600.478	214199
600.547	223884
600.617	196015
600.686	157840
600.755	143756
600.824	134568
600.894	131158
600.963	133207
601.032	131018
601.101	126277
601.170	118815
601.239	115938
601.308	115512
601.378	115615
601.447	115785
601.516	117675
601.585	117499
601.654	121047
601.723	121230
601.792	124500
601.861	127675
601.930	131222
601.999	133942
602.068	132403
602.137	133109
602.206	135573
602.275	139664
602.343	138845
602.412	141070
602.481	142227
602.550	143810
602.619	150377
602.688	150036
602.756	149684
602.825	151523
602.894	155810
602.963	158927
603.032	163109
603.100	161078
603.169	163844
603.238	163813
603.307	165521
603.375	166478
603.444	170290
603.513	172450
603.581	175886
603.650	176299
603.719	175523
603.787	181159
603.856	184768
603.924	187717
603.993	196705
604.061	203811
604.130	211871
604.198	218151
604.267	223122
604.335	223752
604.404	228646
604.472	229801
604.541	232996
604.609	234384
604.678	235551
604.746	234694
604.815	243175
604.883	247070
604.951	249417
605.020	253639
605.088	256788
605.156	262733
605.225	268767
605.293	267271
605.361	267255
605.429	272136
605.498	278182
605.566	282711
605.634	299266
605.702	309432
605.771	321697
605.839	317977
605.907	315125
605.975	302165
606.043	299934
606.111	298556
606.180	295386
606.248	293328
606.316	290969
606.384	291593
606.452	296855
606.520	304774
606.588	314134
606.656	316400
606.724	308538
606.792	290413
606.860	262976
606.928	241087
606.996	230657
607.064	226972
607.132	234602
607.200	248888
607.267	256818
607.335	261729
607.403	267587
607.471	255776
607.539	250387
607.607	249919
607.674	220905
607.742	218466
607.810	219999
607.878	216843
607.946	225639
608.013	234925
608.081	238323
608.149	241431
608.216	250314
608.284	257735
608.352	259722
608.419	252419
608.487	249366
608.555	245848
608.622	256435
608.690	273043
608.757	296414
608.825	300255
608.893	294405
608.960	276420
609.028	265200
609.095	268214
609.163	265671
609.230	235795
609.298	219458
609.365	232020
609.432	251177
609.500	273852
609.567	313826
609.635	357146
609.702	369425
609.769	347658
609.837	267095
609.904	233925
609.971	241213
610.039	259302
610.106	313496
610.173	506689
610.241	939532
610.308	526868
610.375	282336
610.442	253640
610.509	245971
610.577	246801
610.644	249519
610.711	259155
610.778	267284
610.845	276013
610.912	294086
610.980	302126
611.047	303524
611.114	297967
611.181	290061
611.248	290756
611.315	308381
611.382	312848
611.449	326371
611.516	329225
611.583	326689
611.650	329342
611.717	333520
611.784	334998
611.851	345735
611.918	355982
611.984	395443
612.051	492947
612.118	783723
612.185	1409120
612.252	912637
612.319	454326
612.386	411031
612.452	381408
612.519	367633
612.586	361859
612.653	369655
612.719	384052
612.786	368816
612.853	344053
612.919	341195
612.986	344316
613.053	326619
613.120	306535
613.186	298017
613.253	298943
613.319	300489
613.386	301698
613.453	306249
613.519	306724
613.586	301547
613.652	306773
613.719	303012
613.785	309789
613.852	312751
613.918	307705
613.985	313013
614.051	324166
614.118	316913
614.184	305209
614.250	308951
614.317	314946
614.383	315075
614.449	316428
614.516	315730
614.582	315842
614.648	309757
614.715	308576
614.781	303048
614.847	303531
614.914	301826
614.980	295107
615.046	296913
615.112	305702
615.179	305464
615.245	308598
615.311	305254
615.377	309525
615.443	312296
615.509	317013
615.575	325188
615.642	319580
615.708	330213
615.774	339111
615.840	354306
615.906	364017
615.972	408864
616.038	533999
616.104	903709
616.170	1549732
616.236	1218322
616.302	572434
616.368	490528
616.434	385555
616.500	369500
616.565	405942
616.631	475647
616.697	403859
616.763	418944
616.829	581001
616.895	909188
616.961	794693
617.026	413711
617.092	335572
617.158	328084
617.224	322719
617.289	298892
617.355	287680
617.421	288917
617.487	287377
617.552	273620
617.618	271744
617.684	273325
617.749	274935
617.815	264522
617.880	256807
617.946	261144
618.012	264716
618.077	269556
618.143	258265
618.208	264532
618.274	279484
618.339	279629
618.405	234809
618.470	236044
618.536	235478
618.601	231399
618.667	215654
618.732	207268
618.798	205572
618.863	206302
618.928	204453
618.994	206732
619.059	202917
619.124	206294
619.190	204155
619.255	203732
619.320	203488
619.386	205517
619.451	204028
619.516	197643
619.581	201605
619.647	207606
619.712	207018
619.777	199770
619.842	201241
619.907	207382
619.972	206961
620.038	203878
620.103	199676
620.168	203522
620.233	206365
620.298	206330
620.363	208335
620.428	213708
620.493	218493
620.558	221993
620.623	225179
620.688	223315
620.753	220592
620.818	225022
620.883	226762
620.948	224731
621.013	224128
621.078	219314
621.143	221757
621.207	225623
621.272	220009
621.337	215562
621.402	212809
621.467	210527
621.532	209926
621.596	211099
621.661	206889
621.726	204694
621.791	207873
621.855	207775
621.920	205411
621.985	211054
622.049	213163
622.114	212224
622.179	214695
622.243	220089
622.308	225839
622.373	234599
622.437	226194
622.502	217016
622.566	215438
622.631	215807
622.695	220375
622.760	219083
622.824	218564
622.889	218434
622.953	218564
623.018	231378
623.082	231764
623.147	230246
623.211	223392
623.276	227016
623.340	215025
623.404	213757
623.469	212594
623.533	216481
623.597	208593
623.662	209374
623.726	195717
623.790	186110
623.854	179681
623.919	184661
623.983	186445
624.047	189077
624.111	192671
624.176	193995
624.240	194179
624.304	201001
624.368	192261
624.432	195364
624.496	197658
624.560	206952
624.625	205308
624.689	208652
624.753	213711
624.817	205203
624.881	199572
624.945	182352
625.009	178040
625.073	183794
625.137	185736
625.201	194225
625.265	193693
625.329	186144
625.393	188485
625.456	189820
625.520	196350
625.584	196728
625.648	200536
625.712	204314
625.776	200630
625.839	190231
625.903	163333
625.967	155193
626.031	166370
626.095	193480
626.158	175475
626.222	142123
626.286	135836
626.349	130461
626.413	119167
626.477	120978
626.540	121520
626.604	120237
626.668	120145
626.731	118496
626.795	116596
626.858	117071
626.922	114250
626.986	113819
627.049	113702
627.113	119438
627.176	113124
627.240	110685
627.303	110089
627.366	110643
627.430	112223
627.493	109355
627.557	105562
627.620	109281
627.684	113756
627.747	113440
627.810	100066
627.874	93734
627.937	90077
628.000	94878
628.064	89385
628.127	81730
628.190	80847
628.253	79750
628.317	77104
628.380	73355
628.443	70457
628.506	69672
628.569	66787
628.632	64551
628.696	64729
628.759	65145
628.822	60096
628.885	59430
628.948	57583
629.011	58266
629.074	55895
629.137	54750
629.200	52277
629.263	54402
629.326	51127
629.389	52240
629.452	50761
629.515	50053
629.578	48247
629.641	51689
629.704	48942
629.767	48316
629.830	48551
629.892	46368
629.955	45296
630.018	48926
630.081	45057
630.144	46538
630.207	43343
630.269	46743
630.332	43642
630.395	44460
630.458	42581
630.520	39961
630.583	41899
630.646	43691
630.708	41891
630.771	42787
630.834	46133
630.896	44446
630.959	43371
631.021	42460
631.084	41549
631.146	43309
631.209	43858
631.272	42310
631.334	42222
631.397	44067
631.459	42367
631.522	45282
631.584	46207
631.646	48858
631.709	51022
631.771	50973
631.834	48104
631.896	46765
631.958	43247
632.021	43568
632.083	39928
632.145	40636
632.208	39464
632.270	39941
632.332	40392
632.395	39193
632.457	40267
632.519	38656
632.581	39708
632.643	38857
632.706	38827
632.768	38237
632.830	39477
632.892	41186
632.954	38858
633.016	40815
633.078	39482
633.141	40314
633.203	38876
633.265	40027
633.327	39230
633.389	39512
633.451	39715
633.513	39459
633.575	39710
633.637	39663
633.698	39724
633.760	42761
633.822	43946
633.884	45892
633.946	44713
634.008	45102
634.070	46907
634.132	49859
634.193	53246
634.255	58089
634.317	58221
634.379	58396
634.441	51166
634.502	47214
634.564	43735
634.626	42165
634.687	39266
634.749	38558
634.811	39634
634.873	37185
634.934	38722
634.996	39106
635.057	37421
635.119	38051
635.181	38915
635.242	39568
635.304	36696
635.365	42168
635.427	38045
635.488	39088
635.550	37702
635.611	40094
635.673	37218
635.734	41962
635.796	42965
635.857	48211
635.918	48469
635.980	55265
636.041	56624
636.102	61795
636.164	61919
636.225	59625
636.286	48736
636.348	45372
636.409	41054
636.470	39341
636.531	39475
636.593	39005
636.654	36433
636.715	35879
636.776	35409
636.838	35360
636.899	35122
636.960	33763
637.021	32674
637.082	32364
637.143	32751
637.204	31851
637.265	31755
637.326	33828
637.387	34641
637.448	32376
637.509	33216
637.570	33103
637.631	33913
637.692	32551
637.753	29721
637.814	32807
637.875	31233
637.936	33323
637.997	30146
638.058	31536
638.119	31506
638.179	32223
638.240	29505
638.301	31698
638.362	29452
638.423	30268
638.483	31232
638.544	29021
638.605	30685
638.666	28601
638.726	29586
638.787	30789
638.848	28886
638.908	28860
638.969	29199
639.030	27773
639.090	26412
639.151	28258
639.211	28136
639.272	29404
639.332	28361
639.393	29595
639.453	31111
639.514	32567
639.574	27997
639.635	27914
639.695	27573
639.756	25789
639.816	25874
639.877	26923
639.937	26775
639.997	27903
640.058	24987
640.118	25884
640.178	26083
640.239	26630
640.299	26168
640.359	26203
640.420	27702
640.480	32371
640.540	34115
640.600	34318
640.661	30421
640.721	29239
640.781	28985
640.841	25412
640.901	25930
640.961	27205
641.021	27740
641.082	29678
641.142	26004
641.202	28270
641.262	24526
641.322	27321
641.382	24148
641.442	26521
641.502	24478
641.562	26161
641.622	25088
641.682	29074
641.742	31632
641.802	28495
641.861	25222
641.921	25304
641.981	24506
642.041	23600
642.101	21991
642.161	22913
642.221	23873
642.280	24396
642.340	23014
642.400	23060
642.460	24919
642.519	25124
642.579	24082
642.639	25949
642.698	22144
642.758	26737
642.818	25127
642.877	24691
642.937	24773
642.997	26288
643.056	25069
643.116	23391
643.175	25286
643.235	24944
643.294	26045
643.354	26562
643.414	29091
643.473	32109
643.532	36177
643.592	46701
643.651	66133
643.711	108477
643.770	204393
643.830	475238
643.889	776146
643.948	200600
644.008	57698
644.067	40323
644.126	31232
644.186	30041
644.245	27442
644.304	24905
644.363	26968
644.423	23604
644.482	24362
644.541	26381
644.600	25100
644.659	32254
644.719	37699
644.778	54702
644.837	89173
644.896	182176
644.955	354446
645.014	102110
645.073	34288
645.132	28853
645.191	26231
645.250	26185
645.309	28078
645.368	30289
645.427	39828
645.486	66991
645.545	98069
645.604	32051
645.663	25063
645.722	25120
645.781	25961
645.840	28707
645.898	31550
645.957	43796
646.016	60312
646.075	104056
646.134	194897
646.192	502455
646.251	577968
646.310	107239
646.369	44486
646.427	39417
646.486	29163
646.545	25511
646.603	23899
646.662	22168
646.721	22279
646.779	21547
646.838	22702
646.896	28463
646.955	35646
647.014	56281
647.072	105782
647.131	260000
647.189	101242
647.248	25249
647.306	21207
647.365	21238
647.423	16883
647.481	20665
647.540	16294
647.598	18416
647.657	18503
647.715	18619
647.773	15368
647.832	18363
647.890	14794
647.948	16019
648.007	15070
648.065	14550
648.123	14048
648.181	15814
648.240	14163
648.298	14123
648.356	13241
648.414	14630
648.472	13623
648.531	14273
648.589	12937
648.647	13946
648.705	14058
648.763	13608
648.821	14228
648.879	14247
648.937	15866
648.995	18227
649.053	21588
649.111	32214
649.169	49671
649.227	89707
649.285	188091
649.343	466414
649.401	178341
649.459	32968
649.516	21263
649.574	17313
649.632	18203
649.690	21909
649.748	25758
649.806	38340
649.863	71115
649.921	192597
649.979	100147
650.037	19151
650.094	12164
650.152	13569
650.210	10894
650.268	11671
650.325	9901
650.383	11090
650.440	8530
650.498	9963
650.556	8945
650.613	9843
650.671	9636
650.728	9999
650.786	10995
650.843	14708
650.901	9629
650.958	9496
651.016	8283
651.073	9391
651.131	7318
651.188	7865
651.246	7299
651.303	7580
651.360	7427
651.418	8228
651.475	7737
651.532	7259
651.590	8158
651.647	7608
651.704	6801
651.762	7690
651.819	7523
651.876	7771
651.933	6481
651.990	8320
652.048	5102
652.105	6910
652.162	6826
652.219	6351
652.276	6805
652.333	7088
652.390	5138
652.448	7544
652.505	5898
652.562	6706
652.619	6220
652.676	5963
652.733	6503
652.790	6398
652.847	4416
652.904	7025
652.961	4698
653.017	5376
653.074	6791
653.131	5934
653.188	4659
653.245	6237
653.302	5973
653.359	6447
653.415	5212
653.472	5863
653.529	6251
653.586	5504
653.642	4369
653.699	6915
653.756	4602
653.813	6240
653.869	5866
653.926	5411
653.983	4909
654.039	6754
654.096	5329
654.152	6732
654.209	3944
654.266	6420
654.322	3392
654.379	5990
654.435	5195
654.492	5224
654.548	4289
654.605	5108
654.661	5793
654.717	5118
654.774	4600
654.830	4691
654.887	4810
654.943	5182
655.000	4334
655.056	5401
655.112	5269
655.168	3471
655.225	5559
655.281	5704
655.337	4974
655.394	4979
655.450	5452
655.506	5219
655.562	4170
655.618	6018
655.675	4027
655.731	4780
655.787	4519
655.843	5545
655.899	3779
655.955	5565
656.011	5818
656.067	4523
656.123	5298
656.179	5730
656.235	5844
656.291	4199
656.347	4769
656.403	4595
656.459	4700
656.515	5225
656.571	4441
656.627	4720
656.683	3914
656.739	4813
656.795	4155
656.850	5032
656.906	5132
656.962	5946
657.018	4989
657.074	7016
657.129	9377
657.185	15372
657.241	33117
657.297	15624
657.352	5649
657.408	5108
657.464	3701
657.519	4651
657.575	3187
657.630	3699
657.686	3207
657.742	4368
657.797	3340
657.853	4666
657.908	4773
657.964	3582
658.019	3637
658.075	4194
658.130	4201
658.186	3529
658.241	4633
658.297	4220
658.352	2427
658.407	4649
658.463	2495
658.518	3983
658.573	3693
658.629	3527
658.684	2967
658.739	4892
658.795	2697
658.850	3514
658.905	2902
658.960	3735
659.016	2911
659.071	3479
659.126	3685
659.181	4046
659.236	4497
659.291	3947
659.346	2531
659.401	4108
659.457	3059
659.512	3927
659.567	4502
659.622	3402
659.677	2897
659.732	3476
659.787	3038
659.842	4270
659.897	3636
659.952	4315
660.007	2864
660.061	4101
660.116	2502
660.171	3134
660.226	3131
660.281	4749
660.336	2004
660.391	5131
660.445	2382
660.500	3696
660.555	3207
660.610	3159
660.664	3508
660.719	3312
660.774	3034
660.828	3681
660.883	2352
660.938	4400
660.992	1708
661.047	3059
661.101	2590
661.156	3329
661.211	2784
661.265	3337
661.320	1927
661.374	3714
661.429	2928
661.483	3735
661.538	1950
661.592	3230
661.647	2941
661.701	3444
661.755	2786
661.810	2919
661.864	2172
661.919	2505
661.973	3111
662.027	2593
662.081	2522
662.136	3444
662.190	2285
662.244	3937
662.299	2394
662.353	3883
662.407	2829
662.461	3241
662.515	2280
662.569	2556
662.624	2827
662.678	3184
662.732	2150
662.786	2898
662.840	2328
662.894	3958
662.948	2646
663.002	3268
663.056	3318
663.110	2845
663.164	2268
663.218	2793
663.272	3377
663.326	3519
663.380	2648
663.434	2651
663.488	2562
663.542	4470
663.595	1870
663.649	3463
663.703	3617
663.757	3851
663.811	1910
663.864	3184
663.918	3148
663.972	3559
664.026	3130
664.079	3362
664.133	3594
664.187	4084
664.240	2606
664.294	3437
664.348	3144
664.401	3019
664.455	2028
664.508	2727
664.562	1805
664.615	2990
664.669	1949
664.722	2594
664.776	2323
664.829	3783
664.883	2435
664.936	2771
664.990	3049
665.043	3831
665.097	2619
665.150	3365
665.203	2202
665.257	2876
665.310	2597
665.363	3022
665.417	2586
665.470	3617
665.523	2026
665.576	3843
665.630	1909
665.683	3795
665.736	3140
665.789	2878
665.842	2110
665.895	3329
665.949	2685
666.002	3902
666.055	2365
666.108	4258
666.161	2970
666.214	3838
666.267	3064
666.320	3360
666.373	2633
666.426	4557
666.479	3508
666.532	3362
666.585	3696
666.638	3730
666.691	2688
666.744	4177
666.796	2872
666.849	3919
666.902	3309
666.955	3281
667.008	2047
667.060	3949
667.113	3285
667.166	4206
667.219	3686
667.271	3921
667.324	4116
667.377	4775
667.430	3524
667.482	3694
667.535	3349
667.587	4205
667.640	2760
667.693	3423
667.745	3303
667.798	4184
667.850	3174
667.903	4089
667.955	2928
668.008	4051
668.060	2962
668.113	3807
668.165	2800
668.218	3568
668.270	3228
668.322	3789
668.375	3049
668.427	3550
668.479	2494
668.532	4107
668.584	2987
668.636	3484
668.689	3280
668.741	3885
668.793	2764
668.845	2046
668.898	2366
668.950	2718
669.002	3529
669.054	3244
669.106	2186
669.158	4055
669.211	2787
669.263	2995
669.315	3271
669.367	3690
669.419	2133
669.471	4249
669.523	2991
669.575	3188
669.627	2441
669.679	3496
669.731	2915
669.783	3736
669.835	2509
669.886	3574
669.938	2568
669.990	2270
670.042	2673
670.094	3358
670.146	1975
670.197	2634
670.249	2026
670.301	2750
670.353	3331
670.404	3095
670.456	1830
670.508	3645
670.560	4036
670.611	5812
670.663	6121
670.715	15687
670.766	16352
670.818	5667
670.869	3153
670.921	5133
670.972	3485
671.024	3213
671.075	2400
671.127	3089
671.178	3293
671.230	4138
671.281	3113
671.333	4455
671.384	4946
671.436	7895
671.487	10053
671.538	15945
671.590	26024
671.641	44252
671.692	82901
671.744	147546
671.795	78350
671.846	26095
671.897	10722
671.949	8286
672.000	5868
672.051	5265
672.102	4226
672.153	3650
672.204	3167
672.256	3928
672.307	2498
672.358	3154
672.409	1548
672.460	2188
672.511	1680
672.562	2254
672.613	1638
672.664	2115
672.715	1509
672.766	2939
672.817	1354
672.868	2300
672.919	1518
672.970	2134
673.021	1120
673.071	1696
673.122	1931
673.173	2385
673.224	834
673.275	2418
673.326	1092
673.376	1570
673.427	1148
673.478	1497
673.528	2254
673.579	1884
673.630	1028
673.680	3000
673.731	1332
673.782	1599
673.832	849
673.883	2439
673.934	1149
673.984	1419
674.035	2093
674.085	1878
674.136	1486
674.186	1576
674.237	1025
674.287	1945
674.338	1198
674.388	2687
674.438	143
674.489	2234
674.539	1606
674.589	2807
674.640	2110
674.690	2026
674.740	933
674.791	1714
674.841	1244
674.891	1095
674.942	939
674.992	2053
675.042	22
675.092	1420
675.142	4
675.193	955
675.243	97
675.293	1333
675.343	849
675.393	935
675.443	1534
675.493	1514
675.543	1176
675.593	1586
675.643	453
675.693	1786
675.743	804
675.793	1222
675.843	486
675.893	1012
675.943	890
675.993	996
676.043	679
676.093	1441
676.142	355
676.192	1723
676.242	875
676.292	1409
676.341	303
676.391	775
676.441	332
676.491	2292
676.540	-381
676.590	1905
676.640	693
676.689	1048
676.739	13
676.789	1280
676.838	54
676.888	1267
676.937	-332
676.987	1154
677.037	598
677.086	148
677.136	381
677.185	1407
677.235	367
677.284	596
677.333	48
677.383	1184
677.432	282
677.482	1412
677.531	-75
677.580	189
677.630	686
677.679	1331
677.728	3
677.778	805
677.827	-232
677.876	1677
677.925	610
677.975	1764
678.024	-516
678.073	1258
678.122	-139
678.171	1166
678.220	1339
678.269	2085
678.319	1241
678.368	1319
678.417	1271
678.466	2253
678.515	758
678.564	1088
678.613	-959
678.662	829
678.711	-402
678.760	74
678.809	-198
678.857	473
678.906	441
678.955	1588
679.004	407
679.053	862
679.102	-597
679.151	216
679.199	281
679.248	120
679.297	-135
679.346	342
679.394	-477
679.443	112
679.492	-2
679.540	1584
679.589	541
679.638	467
679.686	558
679.735	1159
679.784	556
679.832	1135
679.881	575
679.929	551
679.978	-437
680.026	830
680.075	-538
680.123	477
680.172	-203
680.220	433
680.268	373
680.317	363
680.365	-543
680.414	-515
680.462	-7
680.510	941
680.559	-70
680.607	1553
680.655	507
680.703	1075
680.752	-172
680.800	214
680.848	281
680.896	27
680.945	-354
680.993	733
681.041	-154
681.089	927
681.137	61
681.185	180
681.233	-1181
681.258	-332
681.281	447
681.329	-201
681.377	482
681.380	449
681.425	-581
681.473	2051
681.502	843
681.521	-42
681.569	960
681.617	878
681.624	933
681.665	1102
681.713	464
681.745	977
681.761	1185
681.809	670
681.857	1161
681.867	1049
681.904	576
681.952	1375
681.989	379
682.000	51
682.048	652
682.096	844
682.111	946
682.143	1082
682.191	-109
682.233	2358
682.239	2704
682.286	241
682.334	1185
682.354	978
682.382	664
682.430	1695
682.476	1212
682.477	1181
682.525	1935
682.572	1723
682.598	2013
682.620	2232
682.667	1196
682.715	2204
682.720	2193
682.763	1853
682.810	1642
682.841	1602
682.857	1547
682.905	2497
682.952	1629
682.963	1886
683.000	2702
683.047	1861
683.085	2479
683.095	2633
683.142	1146
683.190	2290
683.206	2132
683.237	1764
683.284	2839
683.328	2034
683.332	1952
683.379	2687
683.426	2122
683.449	2204
683.473	2264
683.521	2915
683.568	2859
683.571	2856
683.615	2556
683.662	2810
683.693	2726
683.709	2617
683.757	2287
683.804	2376
683.814	2475
683.851	2854
683.898	2576
683.936	2874
683.945	2919
683.992	2607
684.039	3402
684.057	2962
684.086	2199
684.133	2395
684.179	1742
684.180	1709
684.227	3342
684.274	2733
684.300	3294
684.321	3721
684.368	2570
684.415	3674
684.422	3567
684.462	2807
684.509	3678
684.543	3262
684.556	3115
684.603	3759
684.649	2457
684.665	3076
684.696	4226
684.743	3733
684.786	4328
684.790	4361
684.837	3427
684.883	4108
684.908	3716
684.930	3437
684.977	4548
685.023	3386
685.029	3455
685.070	3769
685.117	3713
685.150	4251
685.164	4460
685.210	3973
685.257	4013
685.272	3970
685.303	3804
685.350	4843
685.393	3454
685.396	3334
685.443	4619
685.490	3651
685.514	4019
685.536	4343
685.583	3746
685.629	4222
685.636	4087
685.675	3245
685.722	4549
685.757	4012
685.768	3827
685.815	3517
685.861	3890
685.878	3965
685.908	4196
685.954	3504
686.000	4856
686.000	4870
686.047	4383
686.093	4833
686.121	4744
686.139	4664
686.185	5030
686.232	4408
686.242	4508
686.278	4930
686.324	5154
686.363	5847
686.370	5958
686.416	4467
686.463	5925
686.484	5414
686.509	4775
686.555	4936
686.601	4633
686.606	4760
686.647	5926
686.693	5067
686.727	5108
686.739	5174
686.785	5237
686.831	5069
686.848	5194
686.877	5242
686.923	5434
686.969	4697
686.969	4693
687.015	5783
687.061	4913
687.090	5571
687.107	5891
687.153	5980
687.199	5961
687.211	5810
687.245	5378
687.291	6032
687.332	5413
687.336	5364
687.382	6030
687.428	5267
687.453	5715
687.474	6087
687.520	6140
687.565	6763
687.574	6599
687.611	5877
687.657	6205
687.695	5718
687.702	5650
687.748	6321
687.794	6077
687.816	6347
687.839	6566
687.885	6537
687.931	6553
687.937	6546
687.976	6584
688.022	6831
688.058	6276
688.067	6119
688.113	6358
688.158	6175
688.179	6406
688.204	6722
688.249	6373
688.295	6912
688.300	6826
688.340	6227
688.386	6772
688.421	6191
688.431	6046
688.477	6725
688.522	6578
688.542	6701
688.567	7081
688.613	7001
688.658	7541
688.663	7569
688.703	7369
688.749	7838
688.784	7560
688.794	7530
688.839	7709
688.884	7477
688.905	7780
688.930	8028
688.975	6873
689.020	7152
689.026	7049
689.065	6630
689.110	6934
689.146	7076
689.155	7113
689.201	7481
689.246	7311
689.267	7450
689.291	7681
689.336	7228
689.381	7976
689.388	7933
689.426	7604
689.471	8263
689.509	7681
689.516	7589
689.561	8210
689.606	6842
689.630	7279
689.651	7662
689.696	7214
689.741	8040
689.750	7789
689.785	7180
689.830	8548
689.871	7917
689.875	7827
689.920	8450
689.965	7645
689.992	7745
690.010	7933
690.054	7526
690.099	7804
690.112	7827
690.144	7801
690.189	8232
690.233	7414
690.233	7422
690.278	7698
690.323	7565
690.354	7689
690.367	7826
690.412	7606
690.457	8061
690.474	8115
690.501	8046
690.546	8483
690.590	8235
690.595	8175
690.635	7908
690.680	7958
690.716	8322
690.724	8389
690.769	7569
690.813	8052
690.836	7531
690.857	7261
690.902	8198
690.946	7944
690.957	8073
690.991	8530
691.035	8925
691.077	8931
691.080	8931
691.124	8862
691.168	8923
691.198	8420
691.213	8167
691.257	8549
691.301	7654
691.318	7813
691.346	8332
691.390	8124
691.434	8569
691.439	8491
691.478	8021
691.522	9142
691.559	8955
691.567	8945
691.611	9358
691.655	9250
691.680	9566
691.699	9614
691.743	9188
691.787	8951
691.800	8708
691.831	8476
691.875	8864
691.919	9163
691.921	9152
691.964	9131
692.008	8548
692.041	8712
692.052	8862
692.096	8745
692.139	9747
692.162	9364
692.183	8883
692.227	9330
692.271	8930
692.282	8923
692.315	9078
692.359	9023
692.402	9196
692.403	9216
692.447	8974
692.490	9403
692.523	9328
692.534	9241
692.578	9106
692.622	8481
692.643	8632
692.666	8995
692.709	8663
692.753	8990
692.763	8971
692.797	9155
692.840	9453
692.884	9588
692.884	9608
692.928	9581
692.971	9546
693.004	9798
693.015	9894
693.059	9253
693.102	9570
693.124	9440
693.146	9411
693.189	9621
693.233	9294
693.245	9384
693.276	9683
693.320	9611
693.363	9714
693.365	9682
693.407	9472
693.450	9695
693.485	9491
693.493	9480
693.537	10007
693.580	9762
693.605	9990
693.624	10129
693.667	9704
693.710	9755
693.725	9677
693.753	9791
693.797	10138
693.840	10211
693.845	10242
693.883	10473
693.926	10428
693.966	10427
693.970	10453
694.013	10295
694.056	10670
694.086	10378
694.099	10326
694.142	10523
694.185	10614
694.206	10706
694.229	10637
694.272	10408
694.315	10098
694.326	9980
694.358	10055
694.401	10134
694.444	10299
694.446	10293
694.487	10745
694.530	10648
694.566	10821
694.573	10851
694.616	10545
694.659	10873
694.686	10734
694.702	10687
694.745	10860
694.787	10604
694.806	10599
694.830	10709
694.873	10538
694.916	10729
694.926	10672
694.959	10876
695.002	11459
695.044	11575
695.046	11575
695.087	12074
695.130	11871
695.166	12127
695.172	12221
695.215	12139
695.258	12675
695.286	12690
695.301	12821
695.343	13434
695.386	13633
695.406	13850
695.428	14445
695.471	15216
695.514	16555
695.526	16752
695.556	17398
695.599	18723
695.641	19291
695.646	19365
695.684	18567
695.726	17465
695.766	16608
695.769	16633
695.811	15877
695.854	15737
695.886	15334
695.896	15393
695.938	15666
695.981	15699
696.005	15762
696.023	16370
696.065	17660
696.108	19207
696.125	19677
696.150	19735
696.192	19931
696.235	19955
696.245	19953
696.277	20184
696.319	20270
696.361	20606
696.365	20548
696.404	20031
696.446	19864
696.485	19409
696.488	19469
696.530	19662
696.572	19823
696.604	19929
696.614	19935
696.656	19589
696.698	19568
696.724	19298
696.740	19451
696.783	19945
696.825	20388
696.844	20542
696.867	20424
696.909	20107
696.951	19671
696.964	19517
696.992	19951
697.034	20493
697.076	20926
697.083	20974
697.118	21614
697.160	22273
697.202	22951
697.203	22909
697.244	22402
697.286	21943
697.323	21349
697.327	21440
697.369	21937
697.411	22266
697.442	22570
697.453	22604
697.494	22330
697.536	22305
697.562	22041
697.578	22125
697.620	22421
697.661	22581
697.682	22646
697.703	23054
697.744	23696
697.786	24485
697.801	24618
697.828	24400
697.869	24073
697.911	23705
697.921	23569
697.952	23588
697.994	23449
698.035	23420
698.040	23347
698.077	23510
698.118	23641
698.160	23734
698.160	23671
698.201	24717
698.243	25643
698.279	26493
698.284	26620
698.325	27067
698.367	27585
698.399	27871
698.408	28022
698.449	28430
698.491	28789
698.518	28978
698.532	29051
698.573	29002
698.614	29003
698.638	28905
698.656	28822
698.697	28486
698.738	28111
698.757	27871
698.779	27895
698.820	27799
698.862	27712
698.877	27603
698.903	27775
698.944	27942
698.985	28103
698.996	28078
699.026	28280
699.067	28450
699.116	28579
699.235	27503
699.354	27888
699.474	24887
699.593	25774
699.713	26517
699.832	26011
699.951	27367
700.070	26592
700.190	24685
700.309	24896
700.428	23312
700.547	23517
700.667	23401
700.786	22955
700.905	22019
701.024	23031
701.143	23068
701.262	24632
701.381	23214
701.500	24152
701.619	23816
701.738	24539
701.857	23921
701.976	21879
702.095	23105
702.214	24222
702.333	22478
702.452	23297
702.571	24614
702.690	22648
702.809	23735
702.928	22618
703.047	21023
703.165	22109
703.284	21096
703.403	20704
703.522	20209
703.640	20293
703.759	20532
703.878	18940
703.997	20396
704.115	20053
704.234	20435
704.353	20576
704.471	18802
704.590	18396
704.708	18117
704.827	18352
704.946	17936
705.064	18623
705.183	18679
705.301	18929
705.420	18285
705.538	18001
705.656	16504
705.775	16555
705.893	17289
706.012	16928
706.130	16487
706.249	17686
706.367	16151
706.485	16402
706.604	15178
706.722	15500
706.840	17086
706.958	17933
707.077	15800
707.195	15478
707.313	15806
707.431	14935
707.549	15509
707.668	13831
707.786	15712
707.904	14186
708.022	15953
708.140	14809
708.258	14682
708.376	15691
708.494	13063
708.612	15809
708.730	13809
708.848	14106
708.966	14508
709.084	15048
709.202	14961
709.320	13100
709.438	13657
709.556	13734
709.674	11663
709.791	12585
709.909	13006
710.027	12614
710.145	13240
710.263	13022
710.380	12866
710.498	12256
710.616	12407
710.733	11210
710.851	11339
710.969	12057
711.086	11385
711.204	12260
711.322	11531
711.439	11412
711.557	10418
711.674	12298
711.792	11826
711.909	10039
712.027	11414
712.144	10684
712.262	11234
712.379	11885
712.497	10431
712.614	11032
712.732	11336
712.849	10341
712.966	10795
713.084	10801
713.201	9460
713.318	11061
713.436	11700
713.553	10243
713.670	11648
713.787	11792
713.905	10629
714.022	11900
714.139	11703
714.256	15010
714.373	20721
714.490	38348
714.608	108945
714.725	416205
714.842	294456
714.959	31410
715.076	15202
715.193	13537
715.310	12304
715.427	9679
715.544	10374
715.661	10082
715.778	9312
715.895	9213
716.011	10670
716.128	10028
716.245	9588
716.362	8925
716.479	7837
716.596	8511
716.713	8438
716.829	9578
716.946	7898
717.063	8860
717.180	8214
717.296	8731
717.413	8285
717.530	7748
717.646	8072
717.763	7802
717.880	7453
717.996	6958
718.113	6906
718.229	8209
718.346	7540
718.462	7274
718.579	7985
718.695	7273
718.812	7864
718.928	7218
719.045	7554
719.161	7930
719.277	7096
719.394	7684
719.510	8580
719.626	9411
719.743	10919
719.859	18062
719.975	37606
720.092	158289
720.208	265932
720.324	27686
720.440	10722
720.557	8867
720.673	8827
720.789	7593
720.905	7589
721.021	7399
721.137	6721
721.253	6702
721.369	6703
721.486	6672
721.602	6314
721.718	6833
721.834	5909
721.950	6797
722.066	5837
722.181	5838
722.297	6366
722.413	6093
722.529	5886
722.645	5675
722.761	5625
722.877	6083
722.993	7048
723.108	8322
723.224	7004
723.340	6430
723.456	6091
723.571	5135
723.687	5211
723.803	5912
723.918	5961
724.034	4880
724.150	5555
724.265	5653
724.381	5342
724.497	5454
724.612	5549
724.728	4912
724.843	4914
724.959	4943
725.074	5703
725.190	5546
725.305	5207
725.421	4618
725.536	5084
725.651	6160
725.767	4992
725.882	5649
725.997	5240
726.113	5712
726.228	5226
726.343	4864
726.459	5071
726.574	4952
726.689	5736
726.804	5799
726.920	5365
727.035	5022
727.150	5615
727.265	4669
727.380	5113
727.495	5097
727.610	5426
727.725	4637
727.841	5001
727.956	5134
728.071	5819
728.186	4660
728.301	4567
728.416	5408
728.531	5147
728.645	4721
728.760	4914
728.875	4623
728.990	4196
729.105	4737
729.220	5347
729.335	5693
729.449	5096
729.564	5231
729.679	4973
729.794	4785
729.908	4870
730.023	5019
730.138	5492
730.253	5625
730.367	5257
730.482	5039
730.596	4621
730.711	7128
730.826	8540
730.940	7570
731.055	6600
731.169	7083
731.284	7637
731.398	7301
731.513	7862
731.627	8734
731.742	11313
731.856	14468
731.970	12894
732.085	14923
732.199	20479
732.313	36662
732.428	97950
732.542	281303
732.656	126076
732.771	27932
732.885	18367
732.999	17546
733.113	20139
733.227	19352
733.342	18264
733.456	18574
733.570	17385
733.684	16242
733.798	15922
733.912	15376
734.026	16252
734.140	15970
734.254	15419
734.368	15361
734.482	15623
734.596	15599
734.710	14432
734.824	15287
734.938	14164
735.052	14921
735.166	14825
735.280	14023
735.393	13785
735.507	14135
735.621	14300
735.735	13204
735.849	14153
735.962	12460
736.076	13876
736.190	12945
736.303	12811
736.417	14008
736.531	11913
736.644	12573
736.758	13620
736.872	12198
736.985	12196
737.099	11873
737.212	11516
737.326	11731
737.439	13404
737.553	11062
737.666	11827
737.780	11324
737.893	12393
738.007	10909
738.120	12416
738.233	10410
738.347	11769
738.460	11033
738.573	12061
738.687	10535
738.800	10542
738.913	11501
739.026	10837
739.140	9687
739.253	10311
739.366	10692
739.479	10452
739.592	10434
739.705	8579
739.818	11966
739.932	8992
740.045	11209
740.158	9139
740.271	10603
740.384	8964
740.497	9043
740.610	10413
740.723	8872
740.836	8979
740.949	9462
741.062	10256
741.174	9453
741.287	9358
741.400	9613
741.513	7933
741.626	9586
741.739	8449
741.851	8410
741.964	9180
742.077	9144
742.189	7294
742.302	8997
742.415	7811
742.527	8313
742.640	9392
742.753	7610
742.865	8606
742.978	7857
743.090	8067
743.203	8853
743.316	7491
743.428	8390
743.541	8373
743.653	7337
743.766	7603
743.878	8458
743.990	6609
744.103	8851
744.215	7611
744.327	7136
744.440	9765
744.552	7090
744.664	6863
744.777	7770
744.889	7836
745.001	7160
745.113	8214
745.226	7494
745.338	6638
745.450	8218
745.562	6168
745.674	6546
745.786	7221
745.898	7660
746.010	6611
746.122	7269
746.234	7232
746.347	7508
746.459	6251
746.570	5355
746.682	6652
746.794	8110
746.906	6589
747.018	6034
747.130	7142
747.242	5300
747.354	5453
747.466	6882
747.577	5275
747.689	6527
747.801	6817
747.913	5917
748.024	6025
748.136	5451
748.248	5280
748.359	5705
748.471	6790
748.583	5365
748.694	4567
748.806	6146
748.918	4817
749.029	5638
749.141	6113
749.252	6412
749.364	4475
749.475	6109
749.587	4973
749.698	5374
749.809	5668
749.921	5919
750.032	4918
750.144	5171
750.255	4806
750.366	5775
750.478	4789
750.589	5043
750.700	5114
750.811	5823
750.923	4894
751.034	4254
751.145	5851
751.256	3975
751.367	4407
751.479	4834
751.590	4520
751.701	4486
751.812	3498
751.923	3895
752.034	5362
752.145	5152
752.256	4940
752.367	4415
752.478	4649
752.589	5562
752.700	4894
752.811	4698
752.922	4227
753.032	4650
753.143	5760
753.254	5173
753.365	5568
753.476	5729
753.586	4157
753.697	4282
753.808	5126
753.919	4338
754.029	4444
754.140	4450
754.251	3607
754.361	4350
754.472	4845
754.582	4047
754.693	4126
754.804	4398
754.914	3806
755.025	2645
755.135	3854
755.246	4536
755.356	4284
755.466	3919
755.577	4905
755.687	4833
755.798	4489
755.908	3412
756.018	3679
756.129	4225
756.239	4076
756.349	5084
756.460	3865
756.570	4441
756.680	3834
756.790	4659
756.900	4680
757.011	4159
757.121	3399
757.231	4768
757.341	3430
757.451	2872
757.561	3311
757.671	3833
757.781	4636
757.891	4060
758.001	2838
758.111	3924
758.221	4781
758.331	4546
758.441	3783
758.551	3313
758.661	4575
758.771	4702
758.880	3513
758.990	3888
759.100	3883
759.210	3459
759.320	4024
759.429	4746
759.539	4583
759.649	3979
759.758	5418
759.868	5992
759.978	4320
760.087	5808
760.197	5691
760.307	4984
760.416	4586
760.526	3629
760.635	5380
760.745	4637
760.854	4996
760.964	7433
761.073	6578
761.182	6130
761.292	4961
761.401	4744
761.511	3384
761.620	3663
761.729	3527
761.839	2866
761.948	3593
762.057	3156
762.166	3285
762.276	2202
762.385	3978
762.494	3273
762.603	2574
762.712	3579
762.822	3677
762.931	2855
763.040	2283
763.149	3004
763.258	2932
763.367	3050
763.476	2598
763.585	2127
763.694	2343
763.803	3151
763.912	2773
764.021	3649
764.130	3190
764.238	3429
764.347	3159
764.456	3032
764.565	2782
764.674	2796
764.783	2621
764.891	2513
765.000	3671
765.109	3150
765.217	2593
765.326	4088
765.435	3929
765.543	3720
765.652	4094
765.761	3788
765.869	4511
765.978	6404
766.086	10050
766.195	20586
766.303	58479
766.412	174455
766.520	115014
766.629	22559
766.737	9091
766.846	6439
766.954	5446
767.062	5426
767.171	3456
767.279	4186
767.387	3110
767.496	2854
767.604	2519
767.712	3318
767.820	3264
767.928	3464
768.037	2531
768.145	3708
768.253	2564
768.361	3011
768.469	2649
768.577	2446
768.685	3816
768.793	3764
768.901	2637
769.009	3449
769.117	3271
769.225	3966
769.333	4890
769.441	6050
769.549	9420
769.657	20971
769.765	75365
769.873	137979
769.981	33586
770.088	8851
770.196	5845
770.304	5542
770.412	5238
770.519	4503
770.627	4761
770.735	4239
770.842	3890
770.950	4991
771.058	4370
771.165	6946
771.273	6564
771.380	7206
771.488	11030
771.595	11572
771.703	9896
771.810	9642
771.918	9729
772.025	12044
772.133	13692
772.240	11990
772.348	14124
772.455	13997
772.562	12441
772.670	12057
772.777	11790
772.884	11291
772.991	12238
773.099	12624
773.206	11142
773.313	11753
773.420	10784
773.528	10727
773.635	10612
773.742	13255
773.849	10759
773.956	12149
774.063	9843
774.170	10821
774.277	11510
774.384	10503
774.491	9577
774.598	10628
774.705	9687
774.812	11320
774.919	9870
775.026	10080
775.133	9712
775.239	10029
775.346	9186
775.453	9471
775.560	9140
775.667	10796
775.773	9055
775.880	10038
775.987	9152
776.093	10290
776.200	9845
776.307	6578
776.413	8963
776.520	10041
776.627	8904
776.733	8237
776.840	6133
776.946	12433
777.053	9463
777.159	8064
777.266	7311
777.372	8356
777.478	8525
777.585	9084
777.691	7373
777.798	9364
777.904	8600
778.010	7725
778.117	8075
778.223	7573
778.329	7757
778.435	6506
778.542	8794
778.648	7309
778.754	6914
778.860	8607
778.966	7663
779.072	7689
779.178	7287
779.284	6522
779.391	7701
779.497	6792
779.603	9027
779.708	5444
779.815	6752
779.920	8050
780.026	6950
780.132	7752
780.238	6279
780.344	5489
780.450	8650
780.556	4514
780.661	6345
780.767	7426
780.873	4522
780.979	6045
781.085	6625
781.190	6554
781.296	6751
781.402	6912
781.507	5467
781.613	4604
781.719	5667
781.824	7290
781.930	6376
782.035	5604
782.141	7083
782.246	5088
782.352	5231
782.457	5751
782.563	5422
782.668	5598
782.773	4933
782.879	3358
782.984	6037
783.090	5651
783.195	5361
783.300	6039
783.405	4750
783.511	4851
783.616	4979
783.721	5544
783.826	4352
783.932	4888
784.037	5352
784.142	5708
784.247	4661
784.352	4700
784.457	3624
784.562	5895
784.667	5532
784.772	3355
784.877	3635
784.982	5860
785.087	4179
785.192	3905
785.297	5256
785.402	5751
785.507	4512
785.611	4705
785.716	3752
785.821	4835
785.926	4821
786.031	3803
786.135	4408
786.240	4224
786.345	3147
786.450	4607
786.554	3964
786.659	4107
786.763	3083
786.868	4803
786.973	5357
787.077	3712
787.182	2177
787.286	4877
787.391	5795
787.495	2861
787.600	2541
787.704	3489
787.809	4340
787.913	3914
788.017	4280
788.122	4934
788.226	4065
788.330	1968
788.435	4502
788.539	4564
788.643	3131
788.747	2728
788.852	3421
788.956	3003
789.060	4823
789.164	4354
789.268	2967
789.372	3894
789.476	3853
789.580	1377
789.684	2746
789.788	4373
789.892	4045
789.996	3333
790.100	2024
790.204	4018
790.308	4466
790.412	2339
790.516	2866
790.620	2623
790.724	4517
790.828	3386
790.931	766
791.035	3439
791.139	2978
791.242	2599
791.346	2940
791.450	3758
791.554	1979
791.657	1096
791.761	4324
791.864	4743
791.968	3935
792.072	3291
792.175	3099
792.279	1844
792.382	2516
792.486	1860
792.589	2516
792.693	3156
792.796	2059
792.899	3470
793.003	3965
793.106	2009
793.209	2756
793.313	3145
793.416	-239
793.519	2984
793.623	3888
793.726	2425
793.829	1743
793.932	1847
794.035	1341
794.138	4103
794.242	3532
794.345	2482
794.448	2309
794.551	1078
794.654	3372
794.757	2956
794.860	2709
794.963	2311
795.066	1692
795.169	3079
795.272	2300
795.375	3497
795.477	2019
795.580	1349
795.683	763
795.786	3137
795.889	1194
795.991	2171
796.094	2216
796.197	1248
796.300	3369
796.402	2769
796.505	1260
796.608	1760
796.710	2035
796.813	2661
796.915	2535
797.018	3250
797.120	2306
797.223	890
797.326	4157
797.428	1565
797.530	854
797.633	2154
797.735	3309
797.838	2184
797.940	3125
798.042	1667
798.145	1898
798.247	2505
798.349	-54
798.452	3421
798.554	2291
798.656	1554
798.758	3459
798.860	1784
798.962	1207
799.065	1432
799.167	288
799.269	2410
799.371	2500
799.473	3302
799.575	1754
799.677	1374
799.779	3003
799.881	702
799.983	3015
800.085	1861
800.187	1846
800.289	347
800.390	1547
800.492	3249
800.594	1980
800.696	1366
800.798	1861
800.899	1375
801.001	2025
801.103	1630
801.205	2270
801.306	2796
801.408	1097
801.509	2038
801.611	2351
801.713	2161
801.814	579
801.916	1149
802.017	964
802.119	641
802.220	2004
802.322	305
802.423	2683
802.525	527
802.626	1653
802.727	2466
802.829	2554
802.930	-1490
803.031	2499
803.133	1322
803.234	1688
803.335	1722
803.436	276
803.538	1896
803.639	402
803.740	2785
803.841	1100
803.942	2889
804.043	812
804.144	919
804.245	1120
804.346	1115
804.447	730
804.548	698
804.649	1957
804.750	848
804.851	997
804.952	1336
805.053	1458
805.154	1546
805.255	2160
805.355	1451
805.456	1163
805.557	1112
805.658	101
805.758	2493
805.859	1415
805.960	1354
806.061	767
806.161	1090
806.262	1676
806.362	234
806.463	442
806.564	3066
806.664	1362
806.765	549
806.865	715
806.966	759
807.066	-74
807.166	1748
807.267	1397
807.367	842
807.468	1891
807.568	-708
807.668	2016
807.769	2249
807.869	117
807.969	403
808.069	970
808.170	632
808.270	471
808.370	1498
808.470	1325
808.570	364
808.670	1267
808.770	1195
808.870	313
808.970	1288
809.070	712
809.170	184
809.271	1184
809.370	616
809.470	1317
809.570	475
809.670	-348
809.770	812
809.870	1771
809.970	801
810.070	908
810.169	2026
810.269	-234
810.369	2098
810.469	1183
810.568	1717
810.668	842
810.768	760
810.867	1204
810.967	299
811.066	1234
811.166	650
811.265	1542
811.365	452
811.464	825
811.564	913
811.663	824
811.763	-266
811.862	1183
811.962	1800
812.061	1109
812.160	1486
812.260	1037
812.359	490
812.458	-108
812.557	1521
812.657	732
812.756	1394
812.855	969
812.954	802
813.053	920
813.153	1058
813.252	119
813.351	1717
813.450	964
813.549	987
813.648	1568
813.747	260
813.846	2053
813.945	1404
814.044	1369
814.143	1477
814.242	2024
814.341	722
814.439	2264
814.538	2280
814.637	755
814.736	2061
814.835	3099
814.933	1885
815.032	2493
815.131	3937
815.229	9461
815.328	11534
815.427	8282
815.525	7230
815.624	7587
815.722	6695
815.821	7612
815.919	7859
816.018	6893
816.116	7647
816.215	6752
816.313	7589
816.412	8391
816.510	9860
816.609	11236
816.707	11467
816.805	9436
816.904	9278
817.002	9472
817.100	10259
817.198	10129
817.296	8743
817.395	10261
817.493	8996
817.591	7718
817.689	8620
817.787	9258
817.885	8928
817.983	7095
818.081	8889
818.179	8675
818.277	11100
818.375	8310
818.473	8701
818.571	7579
818.669	8409
818.767	8860
818.865	6975
818.963	5665
819.061	8173
819.158	7756
819.256	9860
819.354	7840
819.452	12186
819.549	7083
819.647	8998
819.745	5784
819.842	7950
819.940	8239
820.038	6665
820.135	5612
820.233	8836
820.330	7038
820.428	6576
820.525	8750
820.623	6365
820.720	5418
820.818	7208
820.915	7430
821.012	6659
821.110	5329
821.207	6474
821.304	5500
821.402	6328
821.499	7270
821.596	5749
821.693	5674
821.791	6533
821.888	6245
821.985	7032
822.082	4800
822.179	7564
822.276	5779
822.373	4536
822.470	5878
822.567	6329
822.664	4863
822.761	6698
822.858	5797
822.955	5951
823.052	4476
823.149	6588
823.246	5822
823.343	4431
823.440	5512
823.536	6212
823.633	4929
823.730	4570
823.827	5669
823.923	5016
824.020	5847
824.117	6027
824.213	5480
824.310	4100
824.407	3842
824.503	5397
824.600	5267
824.696	3903
824.793	6532
824.889	6373
824.986	5247
825.082	4011
825.179	4391
825.275	6548
825.371	6920
825.468	3634
825.564	2341
825.660	5069
825.757	6591
825.853	4741
825.949	3632
826.045	4028
826.142	4608
826.238	5839
826.334	4963
826.430	3852
826.526	2670
826.622	2396
826.718	4940
826.814	5398
826.910	4916
827.006	2057
827.102	2359
827.198	4716
827.294	5227
827.390	5244
827.486	3760
827.582	1954
827.678	2762
827.774	6010
827.869	2624
827.965	4321
828.061	2268
828.157	5268
828.252	4704
828.348	2912
828.444	3518
828.539	2969
828.635	3962
828.731	3624
828.826	2453
828.922	4331
829.017	5089
829.113	3806
829.208	1628
829.304	2883
829.399	5373
829.495	3234
829.590	3809
829.685	3458
829.781	4067
829.876	3741
829.971	1137
830.066	2360
830.162	3241
830.257	5579
830.352	3510
830.447	3013
830.543	2899
830.638	3370
830.733	5305
830.828	3639
830.923	3933
831.018	3384
831.113	4922
831.208	2202
831.303	1168
831.398	2601
831.493	3044
831.588	5239
831.683	2267
831.778	1636
831.873	2420
831.967	4597
832.062	3276
832.157	2032
832.252	3783
832.346	2733
832.441	4177
832.536	3731
832.631	3667
832.725	2491
832.820	2205
832.914	3349
833.009	1610
833.104	1176
833.198	2024
833.293	2808
833.387	2665
833.482	3374
833.576	1929
833.670	3496
833.765	2115
833.859	2779
833.954	3026
834.048	2893
834.142	2191
834.237	1213
834.331	3017
834.425	3624
834.519	1776
834.613	2529
834.708	2011
834.802	2149
834.896	1867
834.990	2547
835.084	1900
835.178	1406
835.272	1696
835.366	3747
835.460	3434
835.554	2063
835.648	1410
835.742	346
835.836	2394
835.930	1821
836.024	2681
836.117	3021
836.211	1927
836.305	2326
836.399	1919
836.493	1748
836.586	3370
836.680	2017
836.774	654
836.867	1958
836.961	1045
837.055	1571
837.148	1746
837.242	2178
837.335	2572
837.429	1428
837.522	1175
837.616	882
837.709	1876
837.803	1415
837.896	3236
837.989	2304
838.083	736
838.176	484
838.269	401
838.363	2038
838.456	1397
838.549	2426
838.642	455
838.735	2087
838.829	2253
838.922	841
839.015	1233
839.108	1070
839.201	1703
839.294	3072
839.387	1416
839.480	441
839.573	1040
839.666	617
839.759	1635
839.852	903
839.945	2269
840.038	597
840.131	1178
840.223	599
840.316	2800
840.409	2021
840.502	1180
840.594	2728
840.687	250
840.780	1157
840.873	514
840.965	453
841.058	1911
841.150	1712
841.243	-281
841.336	2368
841.428	1723
841.521	741
841.613	1225
841.706	654
841.798	629
841.890	1308
841.983	331
842.075	1595
842.167	1174
842.260	1369
842.352	1758
842.444	1302
842.537	458
842.629	85
842.721	130
842.813	1048
842.905	171
842.997	1580
843.090	929
843.182	1135
843.274	-63
843.366	1710
843.458	1872
843.550	2367
843.642	722
843.734	2330
843.826	-177
843.918	1190
844.009	1380
844.101	411
844.193	1311
844.285	697
844.377	1440
844.469	1027
844.560	756
844.652	-74
844.744	1161
844.835	1373
844.927	1317
845.019	1211
845.110	434
845.202	1463
845.293	740
845.385	18
845.476	1080
845.568	1759
845.659	967
845.751	503
845.842	337
845.934	645
846.025	773
846.116	353
846.208	898
846.299	286
846.390	584
846.482	247
846.573	922
846.664	1225
846.755	369
846.846	1388
846.937	-706
847.029	795
847.120	352
847.211	641
847.302	1656
847.393	-387
847.484	1700
847.575	418
847.666	714
847.757	376
847.847	393
847.938	1501
848.029	1121
848.120	517
848.211	746
848.302	482
848.392	106
848.483	546
848.574	-27
848.664	1306
848.755	1421
848.846	545
848.936	354
849.027	1187
849.118	533
849.208	1178
849.299	1704
849.389	2894
849.480	6282
849.570	12141
849.661	25228
849.751	35649
849.841	10016
849.932	2518
850.022	482
850.112	1489
850.203	1230
850.293	660
850.383	-18
850.474	141
850.564	40
850.654	625
850.744	-398
850.834	1505
850.924	557
851.014	1737
851.104	867
851.194	-75
851.284	-114
851.374	146
851.464	319
851.554	718
851.644	227
851.734	1986
851.824	538
851.914	563
852.004	1608
852.094	206
852.183	33
852.273	1001
852.363	252
852.452	1234
852.542	935
852.632	850
852.721	156
852.811	652
852.901	1531
852.990	820
853.080	487
853.169	867
853.259	920
853.348	992
853.438	1197
853.527	2241
853.617	3232
853.706	7176
853.795	13195
853.885	28229
853.974	48333
854.063	90659
854.152	110033
854.242	38192
854.331	9555
854.420	4562
854.509	3215
854.598	2541
854.687	1887
854.777	1638
854.866	744
854.955	1523
855.044	830
855.133	141
855.222	467
855.311	1194
855.400	913
855.488	-176
855.577	985
855.666	300
855.755	1445
855.844	772
855.933	188
856.021	1497
856.110	553
856.199	-168
856.288	-101
856.376	-274
856.465	468
856.554	679
856.642	1080
856.731	1292
856.819	684
856.908	217
856.996	571
857.085	778
857.173	-355
857.262	333
857.350	-9
857.438	652
857.527	740
857.615	956
857.703	1270
857.792	122
857.880	593
857.968	189
858.056	222
858.145	1243
858.233	-51
858.321	312
858.409	1055
858.497	397
858.585	-587
858.673	825
858.761	-662
858.849	-26
858.937	-352
859.025	737
859.113	695
859.201	387
859.289	1080
859.377	600
859.465	1318
859.552	-1030
859.640	-291
859.728	611
859.816	232
859.903	166
859.991	751
860.079	409
860.166	-25
860.254	475
860.342	421
860.429	103
860.517	-100
860.604	331
860.692	78
860.779	160
860.867	694
860.954	-94
861.042	782
861.129	1360
861.216	1180
861.304	650
861.391	532
861.478	623
861.565	766
861.653	2046
861.740	505
861.827	-86
861.914	739
862.001	-156
862.089	1058
862.176	105
862.263	75
862.350	625
862.437	-54
862.524	215
862.611	646
862.698	955
862.785	1120
862.871	2037
862.958	427
863.045	825
863.132	1227
863.219	637
863.306	-389
863.392	1644
863.479	573
863.566	491
863.652	861
863.739	349
863.826	1416
863.912	1492
863.999	237
864.086	753
864.172	1062
864.259	1814
864.345	1918
864.432	2309
864.518	1458
864.604	1358
864.691	852
864.777	2422
864.863	3107
864.950	4986
865.036	6489
865.122	11827
865.209	12315
865.295	9802
865.381	9083
865.467	9439
865.553	9120
865.639	9813
865.726	13460
865.812	20962
865.898	33287
865.984	46310
866.070	80487
866.156	68654
866.242	23630
866.328	11120
866.414	9967
866.499	9809
866.585	7654
866.671	8725
866.757	8258
866.843	8831
866.928	7654
867.014	7939
867.100	8626
867.186	7292
867.271	6443
867.357	8133
867.442	7743
867.528	7521
867.614	6376
867.699	7853
867.785	7817
867.870	7283
867.956	7104
868.041	7384
868.127	6205
868.212	6516
868.297	6588
868.383	6614
868.468	6259
868.553	7705
868.639	6580
868.724	6458
868.809	5960
868.894	6742
868.979	6948
869.065	6981
869.150	4879
869.235	6132
869.320	5708
869.405	5269
869.490	6720
869.575	6119
869.660	5389
869.745	6742
869.830	7102
869.915	4826
870.000	5343
870.085	6113
870.169	7293
870.254	6978
870.339	4234
870.424	4576
870.509	5101
870.593	7136
870.678	5754
870.763	5277
870.847	4975
870.932	6434
871.016	5734
871.101	3369
871.186	6910
871.270	7209
871.355	3265
871.439	5430
871.523	6077
871.608	4725
871.692	4142
871.777	6280
871.861	5924
871.945	4414
872.030	4858
872.114	5910
872.198	5018
872.282	5220
872.367	4542
872.451	4485
872.535	4931
872.619	4939
872.703	4174
872.787	4757
872.871	5418
872.955	4361
873.039	2735
873.123	5652
873.207	5031
873.291	3429
873.375	4243
873.459	6355
873.543	4253
873.627	3574
873.711	3880
873.794	5781
873.878	4175
873.962	3343
874.045	4309
874.129	3953
874.137	3944
874.213	3851
874.245	3847
874.296	3852
874.352	3528
874.380	3361
874.460	4686
874.464	4741
874.547	3628
874.568	3837
874.631	4414
874.676	4215
874.714	4093
874.784	5268
874.798	5492
874.881	3612
874.892	3531
874.965	3008
874.999	3342
875.048	3784
875.107	3402
875.131	3240
875.215	2459
875.215	2459
875.298	3308
875.323	3365
875.381	3572
875.430	4627
875.465	5313
875.538	4477
875.548	4365
875.631	2550
875.646	2555
875.714	2631
875.753	3008
875.798	3478
875.861	4504
875.881	4761
875.964	3361
875.968	3340
876.047	3204
876.076	3272
876.130	3389
876.183	3352
876.213	3341
876.291	4151
876.296	4189
876.379	3122
876.398	2954
876.462	2526
876.506	2509
876.545	2566
876.613	2879
876.628	2936
876.711	2942
876.721	3010
876.794	3478
876.828	3574
876.877	3596
876.935	2564
876.960	2200
877.043	2386
877.043	2391
877.125	3522
877.150	3758
877.208	4211
877.258	3374
877.291	2809
877.365	2170
877.374	2112
877.456	2580
877.472	2586
877.539	2470
877.579	3167
877.622	3970
877.687	3232
877.704	3003
877.787	2779
877.794	2813
877.869	3417
877.901	3511
877.952	3277
878.008	2117
878.034	1729
878.115	2228
878.117	2239
878.199	2447
878.222	2651
878.282	3296
878.329	3388
878.364	3376
878.437	3653
878.447	3626
878.529	2602
878.544	2533
878.611	2407
878.651	2416
878.694	2666
878.758	3096
878.776	3211
878.858	3240
878.865	3238
878.941	2582
878.972	1933
879.023	1193
879.078	1919
879.105	2307
879.185	2519
879.187	2520
879.269	3136
879.292	3296
879.351	3737
879.399	3180
879.433	2655
879.506	2351
879.516	2357
879.598	2469
879.613	2435
879.680	2132
879.720	2586
879.762	3031
879.827	2318
879.844	2158
879.926	2110
879.933	2158
880.007	2970
880.040	3042
880.089	2834
880.147	3402
880.171	3677
880.253	4200
880.254	4205
880.335	5094
880.360	5734
880.417	7959
880.467	9765
880.499	10868
880.574	11575
880.580	11330
880.662	5417
880.680	4504
880.744	2531
880.787	1832
880.825	1687
880.893	2022
880.907	2069
880.989	2471
881.000	2445
881.070	2617
881.106	2861
881.152	2753
881.213	1863
881.233	1680
881.315	2150
881.319	2150
881.396	2444
881.426	2567
881.478	2685
881.532	3227
881.559	3309
881.639	1951
881.641	1924
881.722	1827
881.745	1781
881.803	2231
881.852	2655
881.885	2607
881.958	2210
881.966	2235
882.047	3153
882.064	3189
882.129	2325
882.171	1358
882.210	835
882.277	1162
882.291	1307
882.372	2364
882.383	2431
882.454	3281
882.489	3534
882.535	3269
882.596	3395
882.616	3429
882.697	2568
882.702	2530
882.778	2010
882.808	1956
882.859	1827
882.914	1885
882.940	2116
883.020	2304
883.021	2307
883.102	3021
883.127	3157
883.183	3268
883.233	2756
883.264	2243
883.339	1826
883.345	1797
883.426	928
883.445	929
883.507	1662
883.551	1907
883.587	1961
883.657	2401
883.668	2509
883.749	2804
883.763	2769
883.830	1614
883.869	1298
883.910	1323
883.975	1577
883.991	1707
884.072	1907
884.081	1964
884.152	2770
884.187	2985
884.233	2994
884.292	2816
884.314	2492
884.394	873
884.398	842
884.475	816
884.504	664
884.555	1044
884.610	1711
884.636	1918
884.716	2075
884.716	2083
884.797	3093
884.821	3297
884.877	2905
884.927	2545
884.958	2200
885.033	1728
885.038	1718
885.118	1314
885.139	1161
885.199	1271
885.244	1640
885.279	2137
885.350	2962
885.359	3027
885.439	3781
885.456	3770
885.520	2893
885.561	2502
885.600	1981
885.667	1189
885.680	1380
885.760	2400
885.773	2566
885.840	1599
885.878	1263
885.920	1803
885.984	2207
886.000	2155
886.080	1961
886.089	1958
886.160	2414
886.195	2545
886.240	2174
886.300	1634
886.320	1861
886.400	2858
886.406	2909
886.480	1984
886.511	1637
886.560	1719
886.616	1910
886.640	1818
886.720	1434
886.722	1421
886.800	1631
886.827	1745
886.879	2250
886.932	2751
886.959	3006
887.038	3739
887.039	3731
887.119	2377
887.143	2051
887.198	2159
887.248	2301
887.278	2154
887.354	1637
887.358	1663
887.437	2077
887.459	2222
887.517	2646
887.564	2901
887.596	2569
887.669	1943
887.676	1837
887.755	472
887.774	151
887.835	1259
887.880	2081
887.914	2151
887.985	2212
887.994	2286
888.073	3188
888.090	3280
888.153	3271
888.195	3297
888.232	2701
888.300	1685
888.311	1659
888.391	1459
888.405	1431
888.470	1750
888.510	1871
888.549	1613
888.615	1373
888.628	1572
888.708	2520
888.720	2684
888.787	2112
888.825	1726
888.866	1253
888.930	667
888.945	860
889.024	1824
889.035	1946
889.103	2150
889.140	2271
889.182	2040
889.245	1745
889.261	1824
889.340	2173
889.349	2211
889.419	2112
889.454	2063
889.498	1835
889.559	1529
889.577	1731
889.656	2621
889.664	2706
889.735	2386
889.768	2232
889.814	2371
889.873	2543
889.978	2561
890.083	2566
890.187	2398
890.292	2494
890.397	2157
890.501	2434
890.606	1340
890.710	2279
890.815	2474
890.919	1936
891.024	1799
891.128	1015
891.233	1501
891.337	2625
891.442	2187
891.546	2021
891.650	878
891.755	1895
891.859	2279
891.963	2854
892.068	1956
892.172	2208
892.276	614
892.380	801
892.484	2342
892.589	3063
892.693	1730
892.797	256
892.901	43
893.005	1360
893.109	2525
893.213	2308
893.317	925
893.421	701
893.525	528
893.629	2016
893.733	2089
893.837	860
893.941	1204
894.045	1308
894.148	581
894.252	1264
894.356	2054
894.460	2989
894.564	891
894.667	1257
894.771	1227
894.875	1137
894.978	1266
895.082	1250
895.186	2813
895.289	1960
895.393	1590
895.496	1949
895.600	634
895.703	360
895.807	1147
895.910	1279
896.014	1329
896.117	1512
896.221	1507
896.324	1391
896.427	198
896.531	510
896.634	1479
896.737	1668
896.840	1778
896.944	2459
897.047	2157
897.150	1662
897.253	690
897.356	947
897.460	949
897.563	582
897.666	1951
897.769	1268
897.872	281
897.975	732
898.078	751
898.181	1283
898.284	298
898.387	2205
898.490	1695
898.593	1142
898.695	1291
898.798	965
898.901	1573
899.004	1200
899.107	447
899.209	1466
899.312	2452
899.415	1684
899.518	696
899.620	714
899.723	1106
899.826	722
899.928	863
900.031	1549
900.133	1940
900.236	405
900.338	740
900.441	1186
900.543	1917
900.646	1764
900.748	1159
900.851	2178
900.953	899
901.055	426
901.158	1136
901.260	-241
901.362	953
901.465	-139
901.567	1335
901.669	2211
901.771	321
901.873	1158
901.976	1399
902.078	1148
902.180	966
902.282	673
902.384	753
902.486	1628
902.588	1886
902.690	272
902.792	843
902.894	1368
902.996	1404
903.098	831
903.200	322
903.302	821
903.404	715
903.505	478
903.607	328
903.709	1909
903.811	1521
903.913	622
904.014	971
904.116	229
904.218	1359
904.319	1481
904.421	2065
904.523	1666
904.624	1504
904.726	808
904.827	778
904.929	-27
905.030	488
905.132	1948
905.233	977
905.335	876
905.436	1141
905.537	271
905.639	1015
905.740	1286
905.841	1354
905.943	1740
906.044	702
906.145	728
906.247	849
906.348	1144
906.449	1314
906.550	1382
906.651	1121
906.752	885
906.854	104
906.955	1271
907.056	785
907.157	1437
907.258	873
907.359	608
907.460	287
907.561	328
907.662	524
907.762	1082
907.863	1188
907.964	1201
908.065	572
908.166	377
908.267	349
908.367	586
908.468	1086
908.569	228
908.670	1183
908.770	915
908.871	790
908.971	1173
909.072	921
909.173	-78
909.273	1017
909.374	971
909.474	707
909.575	369
909.675	1189
909.776	665
909.876	469
909.977	931
910.077	769
910.177	1161
910.278	977
910.378	219
910.478	831
910.579	372
910.679	2048
910.779	959
910.879	930
910.980	795
911.080	1523
911.180	122
911.280	1103
911.380	634
911.480	765
911.580	470
911.680	760
911.780	1058
911.880	1177
911.980	272
912.080	-333
912.180	1322
912.280	317
912.380	510
912.480	531
912.580	672
912.679	1007
912.779	687
912.879	2182
912.979	1178
913.078	-75
913.178	33
913.278	-137
913.377	268
913.477	577
913.577	1009
913.676	1864
913.776	1189
913.875	317
913.975	1207
914.074	592
914.174	1038
914.273	542
914.373	697
914.472	196
914.572	379
914.671	512
914.770	163
914.870	438
914.969	22
915.068	629
915.167	1113
915.267	389
915.366	1401
915.465	1032
915.564	1069
915.663	1421
915.763	966
915.862	1183
915.961	1168
916.060	57
916.159	1055
916.258	-136
916.357	519
916.456	1748
916.555	1091
916.654	425
916.752	1241
916.851	798
916.950	489
917.049	-22
917.148	1136
917.247	689
917.345	929
917.444	176
917.543	1374
917.642	1080
917.740	1790
917.839	1867
917.937	1730
918.036	2229
918.135	1437
918.233	910
918.332	1040
918.430	727
918.529	700
918.627	616
918.726	989
918.824	1133
918.923	613
919.021	1682
919.119	514
919.218	620
919.316	1468
919.414	1563
919.512	1479
919.611	1449
919.709	821
919.807	1420
919.905	2376
920.003	1522
920.102	1732
920.200	2058
920.298	1358
920.396	1551
920.494	1949
920.592	1115
920.690	1548
920.788	1563
920.886	1844
920.984	1632
921.082	2843
921.180	3098
921.277	2123
921.375	4050
921.473	3838
921.571	3568
921.669	3903
921.766	2906
921.864	3550
921.962	3844
922.060	3665
922.157	4128
922.255	3632
922.352	3693
922.450	4472
922.548	4008
922.645	5409
922.743	6956
922.840	11579
922.938	12061
923.035	10207
923.133	10071
923.230	12714
923.327	14613
923.425	13073
923.522	13272
923.619	12162
923.717	10454
923.814	10869
923.911	10535
924.008	11826
924.106	10558
924.203	9023
924.300	11247
924.397	10168
924.494	11239
924.591	9456
924.688	9347
924.786	10088
924.883	9849
924.979	10659
925.077	10517
925.173	8707
925.270	9825
925.367	10313
925.464	10839
925.561	11134
925.658	10689
925.755	8711
925.852	10632
925.948	9465
926.045	10082
926.142	10010
926.239	10346
926.335	7486
926.432	9982
926.529	10454
926.625	10615
926.722	8451
926.818	8234
926.915	10215
927.011	8914
927.108	9656
927.204	9858
927.301	8948
927.397	9655
927.494	10366
927.590	7717
927.687	7931
927.783	10595
927.879	9800
927.976	7845
928.072	7270
928.168	9864
928.264	8456
928.361	8220
928.457	9516
928.553	7087
928.649	8918
928.745	8916
928.841	8147
928.937	7943
929.033	8440
929.129	8470
929.225	9660
929.321	7034
929.417	7038
929.513	9496
929.609	7128
929.705	7000
929.801	8726
929.897	6712
929.993	7519
930.089	7587
930.184	6229
930.280	8001
930.376	10837
930.471	6921
930.567	6234
930.663	7122
930.758	6982
930.854	7607
930.950	7064
931.045	5674
931.141	6784
931.236	9166
931.332	7739
931.427	5715
931.523	8056
931.618	8255
931.714	5744
931.809	6111
931.905	7852
932.000	5439
932.095	5553
932.191	9390
932.286	8195
932.381	6545
932.476	5104
932.572	6189
932.667	5821
932.762	6236
932.857	6567
932.952	8606
933.047	6776
933.142	5647
933.237	6557
933.332	6991
933.427	7243
933.522	6044
933.617	4982
933.712	5803
933.807	8411
933.902	8122
933.997	7649
934.092	5080
934.187	6680
934.282	6143
934.376	6778
934.471	6611
934.566	5240
934.661	5459
934.755	7074
934.850	7277
934.945	6040
935.039	5066
935.134	5030
935.228	6485
935.323	8701
935.417	5446
935.512	4068
935.606	4122
935.701	6049
935.795	7043
935.890	6605
935.984	4263
936.079	3614
936.173	5636
936.267	5080
936.362	3913
936.456	5800
936.550	7492
936.644	5859
936.738	4434
936.833	4429
936.927	3670
937.021	4041
937.115	4883
937.209	5705
937.303	5496
937.397	4265
937.491	4659
937.585	6499
937.679	4746
937.773	4329
937.867	3246
937.961	4669
938.055	6373
938.149	5913
938.243	3338
938.337	3469
938.430	4196
938.524	6054
938.618	5545
938.712	3778
938.805	5083
938.899	6733
938.993	5980
939.086	3949
939.180	2715
939.274	3031
939.367	5672
939.461	6114
939.554	3577
939.648	3241
939.741	3948
939.835	5470
939.928	6354
940.022	6135
940.115	4185
940.208	5305
940.302	6282
940.395	6648
940.488	2790
940.582	4118
940.675	2967
940.768	3554
940.861	5462
940.954	6072
941.048	2167
941.141	2030
941.234	3523
941.327	3763
941.420	4926
941.513	5071
941.606	3497
941.699	3751
941.792	5319
941.885	3873
941.978	4208
942.071	4077
942.164	2662
942.257	2735
942.349	3616
942.442	4795
942.535	2270
942.628	3728
942.721	3454
942.813	2492
942.906	5061
942.999	3155
943.091	3430
943.184	3404
943.277	2990
943.369	3266
943.462	645
943.554	3608
943.647	3533
943.739	4881
943.832	4753
943.924	1006
944.017	1884
944.109	1754
944.201	2500
944.294	3223
944.386	3358
944.478	2831
944.571	2050
944.663	3024
944.755	2800
944.847	3368
944.940	3750
945.032	493
945.124	2077
945.216	3115
945.308	3124
945.400	3030
945.492	3416
945.584	4388
945.676	3658
945.768	2646
945.860	3768
945.952	3983
946.044	2850
946.136	2187
946.228	2441
946.320	2401
946.412	3439
946.503	3827
946.595	5016
946.687	2788
946.779	1498
946.870	2464
946.962	2535
947.054	2043
947.145	3450
947.237	3079
947.329	2342
947.420	3535
947.512	2448
947.603	1118
947.695	2333
947.786	1978
947.878	2289
947.969	2965
948.061	3589
948.152	2485
948.243	1633
948.335	1427
948.426	1719
948.517	2704
948.609	2644
948.700	2249
948.791	2730
948.882	1384
948.973	1750
949.065	2455
949.156	2505
949.247	896
949.338	2348
949.429	1273
949.520	1138
949.611	1698
949.702	2945
949.793	2066
949.884	2030
949.975	1504
950.066	1544
950.157	1414
950.247	1879
950.338	662
950.429	2051
950.520	2413
950.611	1882
950.701	1970
950.792	2869
950.883	3550
950.973	1044
951.064	2183
951.155	2658
951.245	2602
951.336	2080
951.427	2268
951.517	3937
951.608	1520
951.698	2325
951.788	1876
951.879	1575
951.969	2449
952.060	1195
952.150	2752
952.240	3172
952.331	2022
952.421	2724
952.511	1144
952.602	1115
952.692	1007
952.782	1175
952.872	1452
952.962	2563
953.052	2220
953.143	1527
953.233	1464
953.323	2266
953.413	2484
953.503	2814
953.593	2042
953.683	1732
953.773	551
953.863	856
953.953	694
954.042	1328
954.132	2375
954.222	2996
954.312	605
954.402	1569
954.492	1658
954.581	2248
954.671	1497
954.761	1248
954.850	2501
954.940	561
955.030	895
955.119	726
955.209	1255
955.298	911
955.388	1853
955.477	2959
955.567	856
955.656	1421
955.746	1775
955.835	1529
955.925	692
956.014	1110
956.103	2581
956.193	3709
956.282	2291
956.371	1991
956.461	1878
956.550	1834
956.639	1318
956.728	681
956.817	1289
956.906	1477
956.995	2551
957.085	866
957.174	1568
957.263	509
957.352	1083
957.441	1247
957.530	1157
957.619	1567
957.708	1512
957.796	1370
957.885	1987
957.974	1046
958.063	1766
958.152	-374
958.241	1089
958.329	501
958.418	1201
958.507	972
958.596	3319
958.684	1204
958.773	1957
958.861	522
958.950	1310
959.039	1172
959.127	895
959.216	1037
959.304	957
959.393	792
959.481	1478
959.570	971
959.658	3
959.746	488
959.835	1086
959.923	435
960.011	20
960.100	1326
960.188	1513
960.276	652
960.365	1005
960.453	230
960.541	-508
960.629	790
960.717	685
960.805	-430
960.893	1348
960.981	842
961.069	1509
961.158	2524
961.245	3019
961.333	1868
961.421	1679
961.509	1295
961.597	1463
961.685	939
961.773	1157
961.861	1075
961.949	2098
962.036	273
962.124	1118
962.212	273
962.299	573
962.387	480
962.475	886
962.562	-342
962.650	1521
962.738	557
962.825	180
962.913	962
963.000	361
963.088	1103
963.175	2017
963.263	260
963.350	307
963.438	-67
963.525	887
963.612	1417
963.700	204
963.787	947
963.874	945
963.962	1381
964.049	1207
964.136	806
964.223	154
964.310	1075
964.398	57
964.485	404
964.572	-317
964.659	448
964.746	-102
964.833	-176
964.920	696
965.007	200
965.094	633
965.181	334
965.268	1092
965.355	889
965.441	901
965.528	543
965.615	1647
965.702	227
965.789	120
965.875	1328
965.962	1444
966.049	18
966.136	1983
966.222	247
966.309	1089
966.395	1165
966.482	1222
966.569	622
966.655	852
966.742	540
966.828	1024
966.915	1103
967.001	283
967.087	-1075
967.174	-162
967.260	799
967.347	743
967.433	250
967.519	954
967.605	309
967.692	1465
967.778	618
967.864	-161
967.950	1065
968.036	567
968.123	766
968.209	439
968.295	-163
968.381	1233
968.467	326
968.553	-427
968.639	1395
968.725	154
968.811	858
968.897	1999
968.983	610
969.069	367
969.154	1085
969.240	920
969.326	-55
969.412	449
969.497	-147
969.583	-491
969.669	1897
969.755	474
969.840	1049
969.926	2305
970.012	2156
970.097	2976
970.183	2079
970.268	635
970.354	1016
970.439	588
970.525	655
970.610	-374
970.696	1064
970.781	-72
970.866	-197
970.952	1087
971.037	213
971.122	764
971.208	747
971.293	792
971.378	-362
971.463	256
971.549	241
971.634	1105
971.719	475
971.804	-390
971.889	371
971.974	417
972.059	313
972.144	-555
972.229	393
972.314	129
972.399	1463
972.484	-440
972.569	1091
972.654	-1129
972.739	834
972.824	209
972.908	52
972.993	279
973.078	363
973.163	1379
973.247	1095
973.332	-1045
973.417	1388
973.501	-239
973.586	86
973.671	713
973.755	-119
973.840	1434
973.924	1374
974.009	1756
974.093	1033
974.178	1824
974.262	337
974.346	-5
974.431	1003
974.515	476
974.600	429
974.684	966
974.768	-460
974.852	1325
974.937	-109
975.021	1141
975.105	669
975.189	-260
975.273	1298
975.358	298
975.442	-368
975.526	1385
975.610	-139
975.694	-658
975.778	1222
975.862	713
975.946	-2052
976.030	1414
976.114	-312
976.198	112
976.281	-84
976.365	725
976.449	-141
976.533	135
976.617	-645
976.700	-102
976.784	132
976.868	-731
976.951	827
977.035	-91
977.119	404
977.202	437
977.286	925
977.369	1253
977.453	3048
977.536	2320
977.620	1002
977.703	2156
977.787	155
977.870	1296
977.953	1558
978.037	-686
978.120	2161
978.203	447
978.287	518
978.370	607
978.453	123
978.536	467
978.620	466
978.703	650
978.786	364
978.869	-235
978.952	126
979.035	2388
979.118	1465
979.201	-997
979.284	676
979.367	289
979.450	610
979.533	-582
979.616	314
979.699	-306
979.782	355
979.865	171
979.948	198
980.030	251
980.113	-355
980.196	-18
980.279	583
980.361	223
980.444	186
980.526	1169
980.609	1238
980.692	2385
980.774	2637
980.857	660
980.939	2763
981.022	103
981.104	-69
981.187	452
981.269	1558
981.352	1234
981.434	436
981.516	420
981.599	1792
981.681	333
981.763	755
981.846	1328
981.928	861
982.010	906
982.092	109
982.174	564
982.256	-237
982.339	418
982.421	1074
982.503	713
982.585	-167
982.667	804
982.749	237
982.831	940
982.913	304
982.995	1353
983.077	-340
983.158	1899
983.240	-1031
983.322	2164
983.404	3239
983.486	1813
983.568	1858
983.649	1710
983.731	1685
983.813	1047
983.894	1436
983.976	1783
984.058	1296
984.139	2587
984.221	307
984.302	1854
984.384	860
984.465	452
984.547	1503
984.628	103
984.710	1265
984.791	890
984.872	1029
984.954	397
985.035	1459
985.116	14
985.198	1113
985.279	2512
985.360	969
985.441	255
985.522	1439
985.604	733
985.685	-713
985.766	1454
985.847	1144
985.928	35
986.009	2031
986.090	1198
986.171	2158
986.252	761
986.333	1672
986.414	277
986.495	1250
986.576	2029
986.656	1593
986.737	2824
986.818	2036
986.899	1483
986.980	2455
987.060	2247
987.141	1410
987.222	2064
987.302	2572
987.383	2746
987.464	2245
987.544	2549
987.625	1430
987.705	2750
987.786	3058
987.866	2990
987.947	1870
988.027	2456
988.108	2201
988.188	2847
988.268	1342
988.349	2351
988.429	2203
988.509	2578
988.589	2168
988.670	1054
988.750	2654
988.830	1561
988.910	2248
988.990	1577
989.070	1440
989.151	1348
989.231	1456
989.311	1081
989.391	1903
989.471	1381
989.551	1840
989.631	1476
989.711	1897
989.791	454
989.870	1456
989.950	2475
990.030	939
990.110	2386
990.190	1213
990.269	408
990.349	1470
990.429	1723
990.509	1567
990.588	599
990.668	1323
990.747	1901
990.827	858
990.907	1184
990.986	1346
991.066	933
991.145	672
991.225	915
991.304	1890
991.383	1153
991.463	1813
991.542	1074
991.622	875
991.701	906
991.780	-74
991.859	914
991.939	399
992.018	117
992.097	891
992.176	274
992.256	356
992.335	177
992.414	1637
992.493	302
992.572	692
992.651	1921
992.730	312
992.809	937
992.888	539
992.967	725
993.046	584
993.125	-109
993.203	169
993.282	468
993.361	721
993.440	1293
993.519	-13
993.597	553
993.676	-870
993.755	1373
993.834	900
993.912	-863
993.991	1464
994.069	132
994.148	854
994.226	118
994.305	34
994.384	652
994.462	701
994.540	-601
994.619	-287
994.697	655
994.776	508
994.854	120
994.932	241
995.011	488
995.089	17
995.167	340
995.245	632
995.324	-666
995.402	764
995.480	-308
995.558	488
995.636	-189
995.714	-450
995.792	680
995.870	238
995.948	412
996.026	397
996.104	-932
996.182	52
996.260	-1051
996.338	-348
996.416	-322
996.494	230
996.572	625
996.649	-871
996.727	-1400
996.805	116
996.883	-329
996.960	-817
997.038	345
997.116	1071
997.193	-894
997.271	-5
997.348	-597
997.426	-169
997.504	-842
997.581	554
997.658	-124
997.736	-990
997.813	-1820
997.891	27
997.968	-1048
998.046	-85
998.123	-744
998.200	-442
998.277	-1115
998.355	-378
998.432	-1800
998.509	-516
998.586	658
998.663	-114
998.741	-217
998.818	-571
998.895	-871
998.972	-183
999.049	-1186
999.126	-1152
999.203	91
999.280	-606
999.357	-737
999.434	-1257
999.511	-266
999.587	-346
999.664	-1382
999.741	-350
999.818	-277
999.895	-1049
999.971	-1292
1000.048	-1227
1000.125	510
1000.202	-1436
1000.278	154
1000.355	-411
1000.431	-1253
1000.508	-582
1000.584	-833
1000.661	257
1000.738	-141
1000.814	-966
1000.890	-606
1000.967	-913
1001.043	-109
1001.120	-1317
1001.196	-550
1001.272	-1872
1001.349	-895
1001.425	-71
1001.501	-865
1001.577	-1436
1001.654	-74
1001.730	-1459
1001.806	-709
1001.882	-889
1001.958	297
1002.034	-656
1002.110	-649
1002.186	-1989
1002.262	-1706
1002.338	-1981
1002.414	-1275
1002.490	-448
1002.566	-1165
1002.642	-1515
1002.718	-933
1002.794	-542
1002.870	-565
1002.945	-602
1003.021	-722
1003.097	-1180
1003.173	-603
1003.248	-1266
1003.324	-379
1003.400	-537
1003.475	-1665
1003.551	-1944
1003.626	-678
1003.702	-1742
1003.777	-1130
1003.853	-305
1003.928	-1542
1004.004	-1993
1004.079	-738
1004.155	-677
1004.230	-1844
1004.305	-643
1004.381	-1567
1004.456	-1552
1004.531	-1758
1004.607	-1040
1004.682	-1454
1004.757	-1166
1004.832	-1461
1004.907	-1615
1004.982	-999
1005.057	-1547
1005.133	-1283
1005.208	-1522
1005.283	-1777
1005.358	-642
1005.433	-2102
1005.508	-1610
1005.583	-1528
1005.657	-820
1005.732	-665
1005.807	-1640
1005.882	-1903
1005.957	-1536
1006.032	-1242
1006.106	-1521
1006.181	-1487
1006.256	-580
1006.331	-1112
1006.405	-1703
1006.480	-861
1006.554	-1522
1006.629	-1917
1006.704	-1281
1006.778	-572
1006.853	-1298
1006.927	-1588
1007.002	-1618
1007.076	-1500
1007.150	-1338
1007.225	-438
1007.299	-941
1007.373	-2199
1007.448	-1345
1007.522	-2047
1007.596	-1618
1007.671	-1654
1007.745	-803
1007.819	-2203
1007.893	-1547
1007.967	-1175
1008.041	-2031
1008.115	-859
1008.190	-2501
1008.264	-1624
1008.338	-2785
1008.412	-2158
1008.486	-1580
1008.560	-1505
1008.633	-901
1008.707	-1912
1008.781	-563
1008.855	-1350
1008.929	-1734
1009.003	-2127
1009.076	-1590
1009.150	-1676
1009.224	-1846
1009.298	-1679
1009.371	-2863
1009.445	-901
1009.519	-1076
1009.592	-2342
1009.666	-1841
1009.739	-1630
1009.813	-2433
1009.886	-1461
1009.960	-2295
1010.033	-311
1010.107	-1809
1010.180	-2130
1010.253	-2546
1010.327	-2390
1010.400	-2383
1010.473	-2071
1010.547	-703
1010.620	-2242
1010.693	-2387
1010.766	-2576
1010.840	-2058
1010.913	-1815
1010.986	-2810
1011.059	-1785
1011.132	-2540
1011.205	-1165
1011.278	-1947
1011.351	-2484
1011.424	-1480
1011.497	-2430
1011.570	-1208
1011.643	-2558
1011.716	-3033
1011.789	-1497
1011.862	-1948
1011.934	-1217
1012.007	-3100
1012.080	-1273
1012.153	-1624
1012.225	-1391
1012.298	-2323
1012.371	-2081
1012.443	-1075
1012.516	-1762
1012.588	-2441
1012.661	-1883
1012.733	-2782
1012.806	-741
1012.879	-2633
1012.951	-1206
1013.023	-2604
1013.096	-1359
1013.168	-1861
1013.241	-1378
1013.313	-2256
1013.385	-2643
1013.458	-2081
1013.530	-1710
1013.602	-2396
1013.674	-1845
1013.746	-2588
1013.819	-2077
1013.891	-2099
1013.963	-1971
1014.035	-1761
1014.107	-1639
1014.179	-1287
1014.251	-2172
1014.323	-1587
1014.395	-2496
1014.467	-1823
1014.539	-1538
1014.611	-2198
1014.683	-2158
1014.754	-2348
1014.826	-2982
1014.898	-2060
1014.970	-1894
1015.042	-684
1015.113	-1544
1015.185	-2006
1015.257	-2746
1015.328	-1823
1015.400	-2769
1015.471	-2463
1015.543	-2613
1015.615	-1431
1015.686	-2224
1015.757	-1821
1015.829	-2491
1015.901	-1983
1015.972	-1331
1016.043	-2826
1016.115	-2625
1016.186	-1763
1016.257	-2201
1016.328	-1771
1016.400	-1912
1016.471	-2509
1016.542	-2462
1016.613	-2221
1016.685	-1830
1016.756	-2147
1016.827	-2422
1016.898	-2748
1016.969	-1671
1017.040	-2066
1017.111	-2476
1017.182	-2897
1017.253	-1587
1017.324	-2109
1017.395	-1472
1017.466	-1190
1017.537	-2664
1017.608	-2128
1017.678	-1632
1017.749	-1975
1017.820	-1959
1017.891	-2277
1017.961	-3009
1018.032	-2463
1018.103	-1969
1018.173	-2286
1018.244	-2121
1018.315	-1448
1018.385	-1853
1018.456	-2701
1018.526	-2336
1018.597	-2473
1018.667	-1802
1018.738	-1947
1018.808	-3041
1018.878	-2306
1018.949	-1561
1019.019	-2404
1019.089	-2351
1019.160	-1859
1019.230	-2028
1019.300	-2538
1019.371	-2503
1019.441	-2358
1019.511	-1972
1019.581	-2139
1019.651	-1730
1019.721	-1472
1019.791	-2678
1019.861	-1964
1019.931	-1879
1020.001	-2323
1020.071	-2152
1020.141	-2479
1020.211	-3075
1020.281	-2604
1020.351	-2062
1020.421	-1807
1020.491	-1520
1020.560	-2310
1020.630	-2405
1020.700	-2281
1020.770	-2774
1020.839	-1934
1020.909	-2284
1020.979	-2513
1021.048	-2872
1021.118	-2305
1021.187	-2656
1021.257	-2081
1021.326	-1611
1021.396	-1801
1021.465	-2503
1021.535	-1916
1021.604	-2204
1021.674	-1965
1021.743	-2230
1021.812	-2709
1021.882	-2299
1021.951	-3039
1022.020	-1676
1022.089	-2023
1022.159	-1772
1022.228	-1804
1022.297	-2666
1022.366	-1866
1022.435	-2535
1022.504	-2284
1022.573	-2690
1022.642	-1488
1022.711	-2185
1022.781	-1902
1022.849	-1944
1022.918	-2590
1022.987	-2492
1023.056	-2354
1023.125	-2347
1023.194	-2309
1023.263	-1990
1023.331	-3010
1023.400	-2628
1023.469	-2866
1023.538	-2467
1023.606	-2447
1023.675	-2571
1023.744	-3103
1023.812	-2671
1023.881	-2821
1023.949	-2725
1024.018	-2613
1024.086	-2760
1024.155	-3222
1024.223	-1855
1024.292	-2969
1024.360	-2882
1024.429	-1996
1024.497	-2380
1024.565	-2879
1024.634	-2445
1024.702	-2212
1024.770	-2078
1024.838	-1848
1024.907	-1999
1024.975	-2579
1025.043	-2713
1025.111	-2884
1025.179	-2249
1025.247	-2579
1025.315	-2396
1025.383	-2225
1025.451	-2178
1025.519	-2121
1025.587	-3097
1025.655	-2184
1025.723	-3062
1025.791	-2658
1025.859	-2722
1025.927	-1704
1025.995	-2709
1026.062	-2628
1026.130	-1861
1026.198	-3191
1026.266	-2885
1026.333	-2618
1026.401	-1675
1026.469	-2704
1026.536	-2927
1026.604	-2862
1026.671	-2060
1026.739	-3293
1026.806	-2618
1026.874	-2531
1026.941	-2997
1027.009	-1710
1027.076	-2590
1027.144	-2087
1027.211	-2273
1027.278	-2260
1027.345	-2842
1027.413	-2805
1027.480	-2097
1027.547	-2589
1027.614	-2329
1027.682	-2847
1027.749	-3163
1027.816	-2908
1027.883	-2194
1027.950	-2050
1028.017	-3187
1028.084	-1524
1028.151	-3528
1028.218	-2349
1028.285	-3270
1028.352	-2602
1028.419	-3522
1028.486	-2667
1028.553	-2653
1028.619	-2813
1028.686	-1913
1028.753	-2493
1028.820	-2223
1028.886	-2159
1028.953	-2873
1029.020	-2468
1029.086	-3546
1029.153	-3179
1029.220	-2542
1029.286	-2294
1029.353	-1987
1029.419	-2386
1029.486	-2353
1029.552	-2639
1029.619	-3038
1029.685	-2747
1029.751	-2766
1029.818	-1405
1029.884	-2629
1029.951	-1664
1030.017	-2907
1030.083	-2566
1030.149	-3454
1030.216	-2353
1030.282	-2462
1030.348	-2913
1030.414	-2746
1030.480	-2364
1030.546	-2391
1030.612	-1943
1030.678	-2104
1030.744	-2671
1030.810	-2420
1030.876	-3131
1030.942	-2115
1031.008	-2215
1031.074	-2520
1031.140	-2301
1031.206	-2483
1031.272	-3020
1031.337	-2358
1031.403	-1609
1031.469	-2480
1031.534	-3358
1031.600	-2126
1031.666	-2519
1031.731	-2524
1031.797	-2174
1031.863	-2707
1031.928	-2895
1031.994	-2282
1032.059	-2320
1032.125	-2158
1032.190	-2789
1032.256	-3239
1032.321	-2652
1032.386	-2906
1032.452	-2306
1032.517	-2649
1032.582	-2897
1032.647	-3354
1032.713	-1867
1032.778	-2233
1032.843	-2559
1032.908	-3602
1032.974	-3019
1033.039	-3133
1033.104	-2230
1033.169	-3182
1033.234	-2763
1033.299	-1838
1033.364	-2506
1033.429	-2582
1033.494	-2818
1033.559	-2339
1033.624	-2568
1033.688	-2443
1033.753	-2311
1033.818	-1883
1033.883	-1726
1033.948	-2129
1034.013	-1976
1034.077	-1100
1034.142	-1409
1034.207	-1048
1034.271	512
1034.336	611
1034.400	-533
1034.465	-1582
1034.530	-2507
1034.594	-2539
1034.658	-2243
1034.723	-2346
1034.787	-3251
1034.852	-1773
1034.916	-2289
1034.981	-1637
1035.045	-1457
1035.109	-1977
1035.173	-1971
1035.238	-2565
1035.302	-2594
1035.366	-2304
1035.430	-2802
1035.495	-2512
1035.559	-2829
1035.623	-2246
1035.687	-2911
1035.751	-2402
1035.815	-1652
1035.879	-3282
1035.943	-2441
1036.007	-2520
1036.071	-2984
1036.135	-2479
1036.198	-3293
1036.262	-3134
1036.326	-2394
1036.390	-2484
1036.454	-2333
1036.517	-2610
1036.581	-2959
1036.645	-2304
1036.709	-2490
1036.772	-2661
1036.836	-2666
1036.900	-2444
1036.963	-3212
1037.026	-2724
1037.090	-2866
1037.154	-2931
1037.217	-2321
1037.280	-2249
1037.344	-2328
1037.407	-3544
1037.471	-1885
1037.534	-2064
1037.597	-3466
1037.661	-2886
1037.724	-2436
1037.787	-2597
1037.850	-3132
1037.913	-2214
1037.977	-2690
1038.040	-2571
1038.103	-2261
1038.166	-2286
1038.229	-2189
1038.292	-2918
1038.355	-2472
1038.418	-2292
1038.481	-2511
1038.544	-3431
1038.607	-2288
1038.670	-2097
1038.732	-2554
1038.795	-3069
1038.858	-2337
1038.921	-2228
1038.984	-2237
1039.046	-2467
1039.109	-2861
1039.172	-2489
1039.234	-3205
1039.297	-2380
1039.360	-2662
1039.422	-2595
1039.485	-2686
1039.547	-2376
1039.610	-2649
1039.672	-1613
1039.734	-2675
1039.797	-2377
1039.859	-2842
1039.922	-2549
1039.984	-2755
1040.046	-3426
1040.109	-3142
1040.171	-2765
1040.233	-2483
1040.295	-3134
1040.358	-3183
1040.420	-2640
1040.482	-2504
1040.544	-2362
1040.606	-2131
1040.668	-2653
1040.730	-2662
1040.792	-2824
1040.854	-2495
1040.916	-2652
1040.978	-2467
1041.040	-2081
1041.102	-1916
1041.164	-2590
1041.225	-3062
1041.287	-2916
1041.349	-2365
1041.411	-2498
1041.472	-2996
1041.534	-3312
1041.596	-2844
1041.657	-2484
1041.719	-2517
1041.781	-2033
1041.842	-2839
1041.904	-2431
1041.965	-2942
1042.027	-1907
1042.088	-2381
1042.150	-2255
1042.211	-2507
1042.272	-1546
1042.334	-2770
1042.395	-2194
1042.456	-2431
1042.518	-1859
1042.579	-1594
1042.640	-2990
1042.701	-3464
1042.763	-3024
1042.824	-2181
1042.885	-2503
1042.946	-2819
1043.007	-2774
1043.068	-2548
1043.129	-3125
1043.190	-3310
1043.251	-1616
1043.312	-1834
1043.373	-1912
1043.434	-2399
1043.495	-2715
1043.556	-2767
1043.616	-2277
1043.677	-2814
1043.738	-1707
1043.799	-2044
1043.859	-2673
1043.920	-3323
1043.981	-2179
1044.041	-2006
1044.102	-2424
1044.162	-2214
1044.223	-2883
1044.284	-3094
1044.344	-2017
1044.405	-2312
1044.465	-2798
1044.525	-2681
1044.586	-2304
1044.646	-2338
1044.707	-2866
1044.767	-2044
1044.827	-3463
1044.887	-2528
1044.948	-2702
1045.008	-1932
1045.068	-2582
1045.128	-1900
1045.188	-1707
1045.249	-1409
1045.309	-1663
1045.369	-2374
1045.429	-2267
1045.489	-2246
1045.549	-2249
1045.609	-1361
1045.669	-1445
1045.729	-1196
1045.789	-1800
1045.848	-2497
1045.908	-3376
1045.968	-1767
1046.028	-2593
1046.088	-1663
1046.147	-2197
1046.207	-1631
1046.267	-1584
1046.326	-1488
1046.386	-1946
1046.446	-1501
1046.505	-1309
1046.565	-1074
1046.624	-1663
1046.684	-1276
1046.743	-1270
1046.803	-920
1046.862	-641
1046.922	0
