'Start Wavelength	183.907
'End Wavelength	1046.922
'Gate Delay	5.000
'Gate Width (ms)	1.050
'Laser Output Level	0.000
'X Position	0.000
'Y Position	0.000
'Z Position	0.000
'Grid Point Number	1.000
'Shot Number	100.000
183.907	67.000
183.977	305.000
184.047	-333
184.116	670
184.186	104
184.256	86
184.325	583
184.395	-693
184.465	962
184.534	585
184.604	-706
184.674	-583
184.743	-662
184.813	432
184.883	299
184.952	240
185.022	-50
185.092	566
185.161	35
185.231	-483
185.301	525
185.370	535
185.440	229
185.509	313
185.579	623
185.649	733
185.718	731
185.788	709
185.857	-215
185.927	429
185.996	-124
186.066	246
186.136	-175
186.205	643
186.275	59
186.344	278
186.414	-706
186.483	-118
186.553	894
186.622	1049
186.692	229
186.761	135
186.831	-105
186.900	-398
186.970	156
187.039	336
187.109	-534
187.178	770
187.248	170
187.317	982
187.387	-238
187.456	282
187.526	-45
187.595	629
187.664	1126
187.734	995
187.803	-229
187.873	61
187.942	-277
188.012	-71
188.081	386
188.150	15
188.220	319
188.289	773
188.358	-286
188.428	439
188.497	-687
188.567	1287
188.636	-988
188.705	716
188.775	28
188.844	-692
188.913	-24
188.983	84
189.052	-515
189.121	-309
189.191	-532
189.260	552
189.329	-42
189.399	351
189.468	148
189.537	462
189.606	59
189.676	180
189.745	-530
189.814	253
189.883	-903
189.953	60
190.022	-368
190.091	-161
190.161	65
190.230	703
190.299	-75
190.368	-390
190.437	-120
190.507	-486
190.576	15
190.645	531
190.714	372
190.783	391
190.853	565
190.922	413
190.991	-18
191.060	-410
191.129	34
191.198	488
191.268	-208
191.337	100
191.406	343
191.475	438
191.544	603
191.613	-262
191.682	-385
191.752	-579
191.821	-178
191.890	517
191.959	167
192.028	-331
192.097	149
192.166	171
192.235	-962
192.304	758
192.373	-462
192.442	323
192.511	125
192.580	113
192.650	-121
192.719	862
192.788	-190
192.857	816
192.926	-363
192.995	-282
193.064	135
193.133	-285
193.202	-1
193.271	-106
193.340	482
193.409	902
193.478	-590
193.547	427
193.615	-640
193.684	82
193.753	-65
193.822	857
193.891	-367
193.960	-15
194.029	-247
194.098	415
194.167	410
194.236	61
194.305	-643
194.374	61
194.443	-327
194.512	-258
194.580	-241
194.649	726
194.718	175
194.787	147
194.856	-231
194.925	1099
194.994	-690
195.062	535
195.131	-16
195.200	-276
195.269	176
195.338	567
195.407	-261
195.475	550
195.544	856
195.613	70
195.682	239
195.751	290
195.819	-1340
195.888	705
195.957	798
196.026	201
196.094	694
196.163	-131
196.232	115
196.301	146
196.369	281
196.438	-172
196.507	-201
196.576	-268
196.644	15
196.713	472
196.782	-481
196.850	115
196.919	-73
196.988	36
197.056	279
197.125	-835
197.194	-233
197.262	414
197.331	30
197.400	-228
197.468	-100
197.537	-249
197.606	-171
197.674	383
197.743	198
197.812	-756
197.880	-570
197.949	-731
198.017	291
198.086	245
198.155	-345
198.223	421
198.292	129
198.360	-112
198.429	225
198.497	513
198.566	-192
198.635	530
198.703	303
198.772	129
198.840	55
198.909	75
198.977	302
199.046	793
199.114	-151
199.183	35
199.251	-339
199.320	-989
199.388	5
199.457	-307
199.525	27
199.594	43
199.662	-120
199.731	78
199.799	-482
199.867	365
199.936	6
200.004	552
200.073	-214
200.141	467
200.210	-108
200.278	-217
200.346	-851
200.415	-50
200.483	-213
200.552	578
200.620	-118
200.688	817
200.757	392
200.825	164
200.893	-66
200.962	330
201.030	-62
201.098	-304
201.167	-237
201.235	391
201.303	-113
201.372	1231
201.440	-496
201.508	184
201.577	-665
201.645	361
201.713	184
201.781	13
201.850	196
201.918	376
201.986	268
202.055	681
202.123	-110
202.191	384
202.259	108
202.327	136
202.396	161
202.464	494
202.532	506
202.600	912
202.669	749
202.737	-499
202.805	-721
202.873	48
202.941	89
203.009	-303
203.078	-378
203.146	699
203.214	-80
203.282	-934
203.350	413
203.418	-540
203.487	-223
203.555	-283
203.623	-618
203.691	500
203.759	-121
203.827	-78
203.895	129
203.963	-642
204.031	-146
204.099	303
204.168	-281
204.236	811
204.304	315
204.372	-65
204.440	410
204.508	272
204.576	-548
204.644	-56
204.712	9
204.780	168
204.848	606
204.916	-230
204.984	-381
205.052	172
205.120	-454
205.188	107
205.256	-290
205.324	-466
205.392	139
205.460	-99
205.528	-1194
205.596	320
205.664	551
205.732	-279
205.799	-128
205.867	704
205.935	-613
206.003	1105
206.071	-281
206.139	-398
206.207	-557
206.275	-2
206.343	-494
206.411	-221
206.478	-289
206.546	1204
206.614	54
206.682	-660
206.750	-192
206.818	260
206.885	70
206.953	-889
207.021	1134
207.089	-263
207.157	-972
207.225	-1063
207.292	-444
207.360	-87
207.428	-510
207.496	339
207.563	-1119
207.631	579
207.699	-368
207.767	-227
207.834	-710
207.902	-14
207.970	-167
208.038	338
208.105	-315
208.173	161
208.241	-708
208.309	168
208.376	-598
208.444	255
208.512	418
208.579	-1045
208.647	483
208.715	719
208.782	-243
208.850	459
208.918	-1107
208.985	69
209.053	158
209.120	27
209.188	-119
209.256	486
209.323	-287
209.391	-454
209.459	1074
209.526	-324
209.594	309
209.661	-142
209.729	-540
209.796	-29
209.864	-105
209.932	-685
209.999	1120
210.067	233
210.134	382
210.202	549
210.269	70
210.337	904
210.404	540
210.472	-290
210.539	-403
210.607	-314
210.674	-86
210.742	-90
210.809	-220
210.877	303
210.944	88
211.012	-999
211.079	1403
211.146	-26
211.214	430
211.281	1052
211.349	-103
211.416	463
211.484	229
211.551	-762
211.618	121
211.686	173
211.753	-663
211.821	-242
211.888	-245
211.955	672
212.023	-275
212.090	-800
212.157	-232
212.225	-101
212.292	-50
212.359	13
212.427	504
212.494	461
212.561	110
212.629	-2
212.696	-11
212.763	-383
212.831	-893
212.898	523
212.965	-263
213.032	-785
213.100	-1296
213.167	-468
213.234	51
213.301	51
213.369	-104
213.436	-105
213.503	-799
213.570	435
213.638	-392
213.705	138
213.772	-836
213.839	171
213.906	305
213.973	-29
214.041	-889
214.108	430
214.175	-458
214.242	37
214.309	-637
214.376	90
214.444	-1206
214.511	158
214.578	-835
214.645	139
214.712	158
214.779	-543
214.846	-382
214.913	986
214.980	-442
215.048	351
215.115	469
215.182	91
215.249	-229
215.316	-211
215.383	711
215.450	107
215.517	-356
215.584	617
215.651	-651
215.718	-832
215.785	-803
215.852	10
215.919	-657
215.986	13
216.053	-275
216.120	-601
216.187	-392
216.254	110
216.321	-379
216.388	-540
216.455	-579
216.522	201
216.589	-473
216.656	375
216.722	-8
216.789	-900
216.856	-910
216.923	-196
216.990	141
217.057	230
217.124	-980
217.191	-832
217.258	372
217.324	-67
217.391	-729
217.458	270
217.525	-63
217.592	-332
217.659	-1591
217.725	267
217.792	-1034
217.859	382
217.926	-775
217.993	-678
218.059	403
218.126	634
218.193	-303
218.260	27
218.327	-321
218.393	-1020
218.460	-337
218.527	-942
218.594	-96
218.660	-457
218.727	256
218.794	-755
218.860	115
218.927	166
218.994	-682
219.061	-433
219.127	187
219.194	438
219.261	-144
219.327	-205
219.394	-82
219.461	-954
219.527	-867
219.594	-477
219.661	-455
219.727	-972
219.794	145
219.860	-293
219.927	-114
219.994	899
220.060	962
220.127	1422
220.193	330
220.260	-101
220.326	410
220.393	-544
220.460	-949
220.526	-724
220.593	-1231
220.659	626
220.726	-85
220.792	628
220.859	310
220.925	-724
220.992	344
221.058	301
221.125	-165
221.191	143
221.258	-858
221.324	352
221.391	414
221.457	-386
221.524	231
221.590	100
221.657	117
221.723	159
221.789	-298
221.856	4
221.922	-594
221.989	480
222.055	-455
222.121	-1293
222.188	645
222.254	-437
222.321	16
222.387	-279
222.453	-188
222.520	-571
222.586	-891
222.652	503
222.719	105
222.785	-133
222.851	-553
222.918	-190
222.984	-879
223.050	-644
223.116	-1679
223.183	846
223.249	-1080
223.315	313
223.382	-405
223.448	130
223.514	-655
223.580	117
223.647	-1175
223.713	-536
223.779	-539
223.845	-82
223.911	-153
223.978	-801
224.044	258
224.110	-39
224.176	-24
224.242	-30
224.309	-1500
224.375	211
224.441	-262
224.507	-777
224.573	-345
224.639	-147
224.705	-234
224.772	-72
224.838	-443
224.904	246
224.970	-212
225.036	-34
225.102	-1443
225.168	975
225.234	124
225.300	-237
225.366	-345
225.432	-230
225.499	-196
225.565	-850
225.631	-559
225.697	-276
225.763	55
225.829	253
225.895	-236
225.961	-205
226.027	-554
226.093	-281
226.159	457
226.225	113
226.291	-612
226.357	36
226.423	-554
226.489	-239
226.554	-667
226.620	49
226.686	-470
226.752	-138
226.818	-860
226.884	158
226.950	19
227.016	-331
227.082	111
227.148	-232
227.214	-351
227.279	634
227.345	-774
227.411	174
227.477	915
227.543	1735
227.609	2216
227.674	1691
227.740	-793
227.806	517
227.872	317
227.938	23
228.003	-133
228.069	-309
228.135	-1361
228.201	-1099
228.267	-841
228.332	444
228.398	-1641
228.464	93
228.530	-359
228.595	1193
228.661	-1112
228.727	-601
228.792	430
228.858	-59
228.924	-2233
228.990	1257
229.055	-1144
229.121	486
229.187	-536
229.252	-529
229.318	-450
229.384	-306
229.449	-816
229.515	-2474
229.581	-1516
229.646	890
229.712	-802
229.777	-1075
229.843	-374
229.909	-378
229.974	163
230.040	-892
230.105	-237
230.171	-540
230.236	-355
230.302	-701
230.368	-612
230.433	-1117
230.499	-645
230.564	253
230.630	-789
230.695	-357
230.761	136
230.826	-1556
230.892	-135
230.957	-1006
231.023	-542
231.088	-296
231.154	-914
231.219	157
231.284	-826
231.350	-386
231.415	-1144
231.481	376
231.546	-641
231.612	165
231.677	-975
231.742	-1352
231.808	570
231.873	-738
231.939	-2176
232.004	291
232.069	192
232.135	-272
232.200	-507
232.265	711
232.331	-936
232.396	-612
232.461	-868
232.527	-615
232.592	-792
232.657	339
232.723	-518
232.788	100
232.853	-383
232.918	28
232.984	-525
233.049	-943
233.114	-1373
233.179	-267
233.245	487
233.310	-345
233.375	-1676
233.440	-223
233.506	-1420
233.571	-380
233.636	188
233.701	-435
233.766	62
233.832	-751
233.897	-757
233.962	-879
234.027	536
234.092	-207
234.157	-889
234.222	-516
234.288	-456
234.353	-614
234.418	-371
234.483	162
234.548	163
234.613	-662
234.678	90
234.743	-938
234.808	125
234.873	-1708
234.938	-291
235.004	-484
235.069	-685
235.134	-751
235.199	740
235.264	-245
235.329	-1608
235.394	651
235.459	-345
235.524	-1304
235.589	1016
235.654	-662
235.719	-1567
235.784	665
235.849	-743
235.913	-220
235.978	-825
236.043	173
236.108	-646
236.173	-849
236.238	337
236.303	-246
236.368	-741
236.433	-397
236.498	-741
236.563	-162
236.627	-384
236.692	598
236.757	-419
236.822	-91
236.887	-1046
236.952	814
237.017	-1347
237.081	-171
237.146	-925
237.211	1099
237.276	-601
237.341	1503
237.405	-1212
237.470	-272
237.535	-970
237.600	686
237.664	502
237.729	-574
237.794	-1518
237.859	148
237.923	-781
237.988	-431
238.053	-313
238.118	-785
238.182	119
238.247	1471
238.312	-2100
238.376	309
238.441	-1848
238.506	947
238.570	-1127
238.635	1178
238.700	-160
238.764	-998
238.829	-1221
238.893	-1543
238.958	-403
239.023	-162
239.087	80
239.152	260
239.216	-1112
239.281	-144
239.346	-241
239.410	-559
239.475	-819
239.539	584
239.604	-740
239.668	1048
239.733	183
239.797	2332
239.862	4459
239.926	3519
239.991	2172
240.055	752
240.120	-461
240.184	-75
240.249	-767
240.313	-77
240.378	-357
240.442	15
240.507	-293
240.571	-355
240.635	-1710
240.700	-118
240.764	-779
240.829	-665
240.893	-1411
240.957	523
241.022	563
241.086	517
241.151	-1929
241.215	-1606
241.279	187
241.344	-512
241.408	-18
241.472	-1217
241.537	692
241.601	-437
241.665	-1817
241.730	-438
241.794	-232
241.858	-678
241.922	-722
241.987	372
242.051	-603
242.115	-2047
242.179	-790
242.244	-773
242.308	393
242.372	-304
242.436	-738
242.501	-202
242.565	-1644
242.629	-1643
242.693	520
242.757	-927
242.822	-278
242.886	-474
242.950	836
243.014	-923
243.078	-904
243.142	-550
243.206	-1279
243.271	39
243.335	-1128
243.399	-358
243.463	-311
243.527	2157
243.591	-730
243.655	-230
243.719	-1072
243.783	552
243.847	-247
243.911	87
243.975	-1082
244.040	-2149
244.104	526
244.168	-89
244.232	-1305
244.296	-284
244.360	403
244.424	-1893
244.488	-360
244.552	214
244.615	-1562
244.679	-741
244.743	-1130
244.807	-1271
244.871	-442
244.935	-299
244.999	-1628
245.063	-721
245.127	-711
245.191	78
245.255	-891
245.319	-711
245.383	-2186
245.446	890
245.510	-1177
245.574	-645
245.638	-412
245.702	-1094
245.766	-974
245.829	826
245.893	-1380
245.957	-1067
246.021	-279
246.085	-545
246.149	-1218
246.212	889
246.276	-805
246.340	-823
246.404	-1277
246.467	521
246.531	-2748
246.595	178
246.659	-10
246.722	-1488
246.786	-114
246.850	-667
246.913	-822
246.977	-1063
247.041	-152
247.104	-641
247.168	187
247.232	-294
247.295	116
247.359	51
247.423	-1009
247.486	-71
247.550	403
247.614	-848
247.677	-1244
247.741	-1045
247.804	74
247.868	712
247.932	-1137
247.995	1517
248.059	-821
248.122	-1114
248.186	832
248.249	131
248.313	1050
248.376	1831
248.440	-649
248.503	-1529
248.567	616
248.630	-980
248.694	-1073
248.757	298
248.821	1601
248.884	1719
248.948	-664
249.011	665
249.075	1027
249.138	1548
249.202	-562
249.265	-764
249.328	-112
249.392	-1097
249.455	257
249.519	-481
249.582	-709
249.645	-348
249.709	-606
249.772	-641
249.835	-548
249.899	-1305
249.962	195
250.025	-805
250.089	-454
250.152	826
250.215	-239
250.279	-674
250.342	168
250.405	474
250.468	-828
250.532	322
250.595	855
250.658	1025
250.721	5416
250.785	569
250.848	1279
250.911	-1025
250.974	590
251.038	-1151
251.101	897
251.164	-302
251.227	-92
251.290	-757
251.354	178
251.417	4475
251.480	3635
251.543	1175
251.606	8116
251.669	6216
251.732	1124
251.795	1297
251.859	1184
251.922	4560
251.985	3137
252.048	1079
252.111	146
252.174	-980
252.237	256
252.300	1767
252.363	1473
252.426	7568
252.489	1618
252.552	754
252.615	-841
252.678	634
252.741	1434
252.804	1679
252.867	7670
252.930	2621
252.993	605
253.056	729
253.119	305
253.182	-757
253.245	-824
253.308	770
253.371	-990
253.434	-385
253.497	432
253.559	1043
253.622	-353
253.685	-153
253.748	-353
253.811	88
253.874	217
253.937	-319
254.000	-821
254.062	-346
254.125	54
254.188	1004
254.251	-818
254.314	415
254.376	-1158
254.439	-201
254.502	-78
254.565	-700
254.628	753
254.690	-1
254.753	-625
254.816	-99
254.878	-594
254.941	367
255.004	-318
255.067	-357
255.129	-852
255.192	81
255.255	-1572
255.317	-502
255.380	-733
255.443	93
255.505	-1101
255.568	-639
255.631	-1072
255.693	145
255.756	-1090
255.819	1009
255.881	-675
255.944	18
256.006	-1448
256.069	-809
256.132	-769
256.194	360
256.257	-499
256.319	-674
256.382	-99
256.444	443
256.507	-413
256.569	-185
256.632	-771
256.694	-1290
256.757	444
256.819	991
256.882	-861
256.944	-190
257.007	491
257.069	-582
257.132	-369
257.194	269
257.257	-296
257.319	-1058
257.381	-1153
257.444	248
257.506	677
257.569	970
257.631	-440
257.693	271
257.756	-909
257.818	-928
257.880	-1409
257.943	78
258.005	-1118
258.067	-469
258.130	-667
258.192	-808
258.254	-261
258.317	-82
258.379	-192
258.441	-1377
258.503	27
258.566	170
258.628	64
258.690	-1091
258.753	528
258.815	-38
258.877	-1297
258.939	-39
259.001	-730
259.064	-560
259.126	-1017
259.188	-812
259.250	758
259.312	863
259.375	-286
259.437	-338
259.499	-311
259.561	-354
259.623	-66
259.685	-637
259.747	-856
259.809	-214
259.872	323
259.934	768
259.996	411
260.058	276
260.120	-564
260.182	124
260.244	-664
260.306	-697
260.368	658
260.430	-615
260.492	-432
260.554	-36
260.616	-646
260.678	-116
260.740	314
260.802	-338
260.864	468
260.926	-1182
260.988	54
261.050	-438
261.112	-648
261.174	828
261.236	140
261.298	-494
261.359	-33
261.421	919
261.483	-1428
261.545	909
261.607	-1224
261.669	977
261.731	-488
261.793	-477
261.854	-1171
261.916	228
261.978	-757
262.040	628
262.102	10
262.164	-200
262.225	200
262.287	-84
262.349	-1138
262.411	48
262.472	602
262.534	-278
262.596	-528
262.658	210
262.719	-299
262.781	1067
262.843	-892
262.904	244
262.966	-457
263.028	249
263.090	1245
263.151	1779
263.213	430
263.275	-650
263.336	-210
263.398	613
263.459	-270
263.521	285
263.583	90
263.644	530
263.706	-260
263.767	-740
263.829	-584
263.891	-204
263.952	86
264.014	-492
264.075	-275
264.137	11
264.198	324
264.260	-297
264.321	-592
264.383	-409
264.444	1001
264.506	-274
264.567	-519
264.629	855
264.690	-519
264.752	29
264.813	-466
264.875	-841
264.936	889
264.998	-72
265.059	-367
265.120	378
265.182	-812
265.243	-830
265.305	-76
265.366	736
265.427	-27
265.489	181
265.550	-842
265.611	-170
265.673	-711
265.734	-313
265.795	-48
265.857	-304
265.918	-1642
265.979	542
266.040	409
266.102	334
266.163	29
266.224	-206
266.286	-1350
266.347	-912
266.408	-470
266.469	1023
266.530	-740
266.592	-3
266.653	-1030
266.714	150
266.775	-123
266.836	513
266.898	-608
266.959	483
267.020	372
267.081	653
267.142	134
267.203	-89
267.264	-767
267.326	1344
267.387	-487
267.448	-294
267.509	-25
267.570	813
267.631	-354
267.692	-711
267.753	-222
267.814	-713
267.875	134
267.936	-327
267.997	-187
268.058	-98
268.119	-848
268.180	-979
268.241	-858
268.302	404
268.363	-559
268.424	-343
268.485	-629
268.546	-1221
268.607	-508
268.668	-364
268.729	-656
268.790	-835
268.851	237
268.912	-560
268.972	-1036
269.033	-1000
269.094	-785
269.155	43
269.216	-833
269.277	-1057
269.338	-156
269.398	-210
269.459	-1581
269.520	342
269.581	-882
269.642	-326
269.702	-260
269.763	-23
269.824	-557
269.885	-710
269.945	-169
270.006	211
270.067	-425
270.128	-441
270.188	-993
270.249	-778
270.310	-621
270.370	-99
270.431	-733
270.492	-561
270.553	-759
270.613	230
270.674	-127
270.734	-955
270.795	-584
270.856	322
270.916	-1276
270.977	23
271.038	284
271.098	-777
271.159	-1001
271.219	-112
271.280	-306
271.340	260
271.401	-847
271.462	58
271.522	-1010
271.583	41
271.643	-810
271.704	126
271.764	553
271.825	-278
271.885	940
271.946	2121
272.006	-36
272.066	516
272.127	2010
272.187	1997
272.248	493
272.308	1117
272.369	1324
272.429	953
272.489	250
272.550	592
272.610	1193
272.671	229
272.731	167
272.791	-74
272.852	-386
272.912	48
272.972	336
273.033	176
273.093	-32
273.153	560
273.214	-4
273.274	1098
273.334	2108
273.394	2216
273.455	1019
273.515	2203
273.575	1417
273.635	2219
273.696	2495
273.756	3402
273.816	1637
273.876	2660
273.936	910
273.997	2195
274.057	-131
274.117	399
274.177	597
274.237	1099
274.297	1512
274.358	406
274.418	666
274.478	1018
274.538	2
274.598	-544
274.658	492
274.718	782
274.778	451
274.838	1203
274.898	-361
274.958	896
275.018	1272
275.078	565
275.138	510
275.198	-351
275.258	-576
275.318	-4
275.378	-897
275.438	157
275.498	-36
275.558	716
275.618	1303
275.678	-207
275.738	-39
275.798	968
275.858	-464
275.918	-266
275.978	-330
276.038	214
276.098	-567
276.157	-11
276.217	599
276.277	1055
276.337	-145
276.397	534
276.457	166
276.517	179
276.576	-153
276.636	610
276.696	-296
276.756	-177
276.815	56
276.875	657
276.935	332
276.995	979
277.055	871
277.114	-409
277.174	-29
277.234	657
277.293	186
277.353	130
277.413	889
277.472	425
277.532	451
277.592	2344
277.651	5876
277.711	13923
277.771	4425
277.830	13566
277.890	12999
277.950	8432
278.009	23935
278.069	11670
278.128	9504
278.188	14755
278.248	7157
278.307	16069
278.367	10128
278.426	3015
278.486	1902
278.545	1058
278.605	1267
278.664	1101
278.724	1282
278.783	2147
278.843	2827
278.902	2411
278.962	1421
279.021	2904
279.081	5465
279.140	5562
279.199	4338
279.259	3347
279.318	4709
279.378	8243
279.437	11452
279.496	24012
279.556	74255
279.615	65687
279.675	24997
279.734	13746
279.793	12065
279.853	14206
279.912	7612
279.971	5729
280.031	4920
280.090	5850
280.149	9782
280.208	14179
280.268	53058
280.327	57883
280.386	19136
280.445	10033
280.505	5038
280.564	4488
280.623	2821
280.682	3351
280.742	2741
280.801	2379
280.860	2158
280.919	2149
280.978	1365
281.037	1665
281.097	642
281.156	2671
281.215	1702
281.274	1268
281.333	1606
281.392	1180
281.451	1159
281.510	975
281.569	786
281.628	665
281.688	481
281.747	1683
281.806	29
281.865	828
281.924	458
281.983	717
282.042	175
282.101	72
282.160	259
282.219	942
282.278	394
282.337	267
282.396	545
282.454	620
282.513	411
282.572	308
282.631	677
282.690	916
282.749	639
282.808	781
282.867	548
282.926	126
282.985	1240
283.043	1015
283.102	318
283.161	1757
283.220	1277
283.279	1582
283.338	319
283.396	1716
283.455	888
283.514	1467
283.573	1266
283.631	1480
283.690	1197
283.749	1660
283.808	1334
283.866	1527
283.925	1527
283.984	1727
284.043	1451
284.101	2780
284.160	1874
284.219	3571
284.277	2971
284.336	2887
284.395	5362
284.453	5229
284.512	5028
284.570	6248
284.629	6658
284.688	8463
284.746	10112
284.805	13348
284.863	16300
284.922	20362
284.981	22892
285.039	30500
285.098	35816
285.156	39020
285.215	33941
285.273	29631
285.332	35732
285.390	39075
285.449	32255
285.507	25674
285.566	19495
285.624	16717
285.683	12243
285.741	10666
285.799	8801
285.858	7376
285.916	6159
285.975	5301
286.033	3762
286.091	4370
286.150	3285
286.208	3908
286.267	3080
286.325	3316
286.383	2570
286.442	2924
286.500	1769
286.558	2741
286.616	1678
286.675	2698
286.733	1536
286.791	502
286.850	1170
286.908	1240
286.966	1377
287.024	1325
287.083	1284
287.141	1419
287.199	1051
287.257	1158
287.315	940
287.374	391
287.432	392
287.490	1332
287.548	610
287.606	667
287.664	-32
287.723	1414
287.781	813
287.839	729
287.897	1074
287.955	583
288.013	455
288.071	1366
288.129	5058
288.187	22124
288.245	9417
288.303	2897
288.361	1030
288.419	762
288.477	1066
288.535	816
288.593	1309
288.651	198
288.709	-278
288.767	-78
288.825	-43
288.883	599
288.941	294
288.999	318
289.057	318
289.115	261
289.173	-266
289.231	406
289.289	518
289.346	-236
289.404	-3
289.462	665
289.520	-15
289.578	1319
289.636	-222
289.694	637
289.751	461
289.809	722
289.867	-195
289.925	374
289.983	-504
290.040	183
290.098	289
290.156	-219
290.214	92
290.271	-61
290.329	169
290.387	401
290.444	260
290.502	-330
290.560	585
290.617	354
290.675	483
290.733	343
290.790	57
290.848	620
290.906	275
290.963	52
291.021	174
291.078	556
291.136	150
291.194	279
291.251	30
291.309	124
291.366	29
291.424	-347
291.481	-407
291.539	406
291.596	1570
291.654	21
291.711	125
291.769	341
291.826	-22
291.884	780
291.941	-113
291.999	102
292.056	605
292.114	191
292.171	-42
292.228	833
292.286	332
292.343	153
292.401	-194
292.458	171
292.515	-38
292.573	1198
292.630	-168
292.687	325
292.745	-185
292.802	-171
292.859	1269
292.917	3154
292.974	1141
293.031	479
293.089	81
293.146	453
293.203	362
293.260	-8
293.318	255
293.375	952
293.432	104
293.489	584
293.546	263
293.604	839
293.661	2549
293.718	5245
293.775	2785
293.832	2572
293.889	3257
293.947	2533
294.004	603
294.061	357
294.118	1402
294.175	2119
294.232	3792
294.289	4108
294.346	-103
294.403	864
294.460	501
294.517	425
294.574	308
294.631	162
294.688	-472
294.745	271
294.802	1599
294.859	1887
294.916	335
294.973	-72
295.030	-472
295.087	425
295.144	656
295.201	-48
295.258	-235
295.315	90
295.372	435
295.429	1788
295.486	-87
295.542	76
295.599	158
295.656	656
295.713	257
295.770	1978
295.827	-614
295.883	71
295.940	-455
295.997	337
296.054	-281
296.111	543
296.167	422
296.224	-231
296.281	-285
296.338	-672
296.394	-620
296.451	-760
296.508	-612
296.564	478
296.621	823
296.678	1335
296.734	2987
296.791	1009
296.848	138
296.904	81
296.961	-31
297.018	1300
297.074	546
297.131	-148
297.187	-77
297.244	53
297.301	758
297.357	4176
297.414	389
297.470	334
297.527	596
297.583	-586
297.640	45
297.696	-281
297.753	-102
297.809	-144
297.866	-289
297.922	329
297.979	-273
298.035	-236
298.092	267
298.148	416
298.204	818
298.261	56
298.317	-287
298.374	2159
298.430	759
298.486	9
298.543	-20
298.599	681
298.656	-768
298.712	638
298.768	20
298.824	359
298.881	-299
298.937	17
298.993	-472
299.050	161
299.106	-170
299.162	-345
299.218	-375
299.275	335
299.331	402
299.387	817
299.443	2970
299.500	8347
299.556	7255
299.612	2879
299.668	2105
299.724	6652
299.780	9207
299.837	3352
299.893	1151
299.949	4822
300.005	8201
300.061	7047
300.117	11259
300.173	4547
300.229	669
300.285	1084
300.341	1077
300.397	1069
300.453	2
300.510	1011
300.566	1045
300.622	2700
300.678	10379
300.734	15225
300.790	6718
300.845	4783
300.901	5722
300.957	9407
301.013	4420
301.069	1445
301.125	815
301.181	211
301.237	1391
301.293	638
301.349	-81
301.405	272
301.461	114
301.516	1075
301.572	366
301.628	492
301.684	-486
301.740	670
301.796	264
301.851	938
301.907	104
301.963	838
302.019	1064
302.074	6172
302.130	6595
302.186	3547
302.242	1127
302.297	475
302.353	68
302.409	1041
302.464	1040
302.520	1029
302.576	532
302.631	2107
302.687	-630
302.743	134
302.798	-6
302.854	-382
302.910	193
302.965	588
303.021	608
303.076	-294
303.132	132
303.187	214
303.243	-460
303.299	-354
303.354	-667
303.410	703
303.465	-451
303.521	-388
303.576	-881
303.632	-234
303.687	-375
303.743	1909
303.798	1669
303.853	437
303.909	253
303.964	236
304.020	93
304.075	214
304.130	-425
304.186	582
304.241	792
304.297	837
304.352	-296
304.358	-271
304.407	-69
304.449	-150
304.463	-174
304.518	-1162
304.539	-787
304.573	-210
304.629	-55
304.630	-60
304.684	-275
304.720	207
304.739	420
304.794	1547
304.811	1659
304.850	1923
304.902	268
304.905	159
304.960	483
304.992	571
305.015	655
305.071	-61
305.083	-44
305.126	-31
305.173	498
305.181	596
305.236	-168
305.264	-110
305.292	-101
305.347	-85
305.354	-18
305.402	519
305.445	369
305.457	297
305.512	450
305.535	252
305.567	-10
305.622	-67
305.626	-48
305.678	347
305.716	773
305.733	945
305.788	1007
305.807	1071
305.843	1242
305.897	1416
305.898	1416
305.953	1858
305.988	1279
306.008	958
306.063	503
306.078	349
306.118	-23
306.168	426
306.173	467
306.228	-328
306.259	70
306.283	435
306.338	-279
306.349	-145
306.393	134
306.440	-212
306.448	-207
306.503	298
306.530	316
306.558	179
306.613	129
306.620	170
306.668	711
306.711	1013
306.723	996
306.778	-327
306.801	-20
306.833	592
306.888	201
306.892	257
306.943	709
306.982	203
306.997	118
307.052	562
307.072	525
307.107	364
307.162	539
307.163	535
307.217	414
307.253	781
307.272	876
307.327	255
307.343	287
307.381	588
307.434	373
307.436	355
307.491	648
307.524	695
307.546	821
307.600	1539
307.614	1411
307.655	941
307.704	1038
307.710	1042
307.765	444
307.795	780
307.819	1061
307.874	976
307.885	847
307.929	526
307.975	1449
307.984	1620
308.038	1505
308.065	1666
308.093	2491
308.148	4437
308.156	5062
308.202	8089
308.246	10461
308.257	10414
308.312	5088
308.336	3543
308.366	2982
308.421	2026
308.426	2030
308.475	2137
308.517	2172
308.530	2195
308.585	2553
308.607	2623
308.639	2830
308.694	3315
308.697	3310
308.748	2810
308.787	3017
308.803	3294
308.857	3441
308.877	3730
308.912	4321
308.967	4960
308.967	4978
309.021	9019
309.058	12244
309.076	13797
309.130	19324
309.148	20663
309.185	26210
309.238	35850
309.239	36017
309.293	44953
309.328	47597
309.348	44367
309.402	29912
309.418	25707
309.457	20433
309.508	15587
309.511	15669
309.566	19647
309.598	22416
309.620	28012
309.674	45684
309.688	50313
309.729	49231
309.778	42152
309.783	41153
309.837	26387
309.868	18825
309.892	16068
309.946	10521
309.959	9715
310.001	8112
310.049	5903
310.055	5746
310.109	4912
310.139	4406
310.163	3679
310.218	2388
310.229	2133
310.272	2377
310.319	2761
310.326	2645
310.381	1625
310.409	1355
310.435	1581
310.489	1426
310.499	1495
310.543	1958
310.589	2279
310.598	2205
310.652	1686
310.679	1371
310.706	1375
310.760	1647
310.769	1654
310.814	1789
310.859	2033
310.868	2002
310.923	1632
310.948	1517
310.977	1610
311.031	1664
311.038	1704
311.085	1617
311.128	1326
311.139	1355
311.193	1558
311.218	1567
311.247	1481
311.301	1681
311.308	1675
311.356	1617
311.398	1497
311.410	1447
311.464	1303
311.488	1286
311.518	1471
311.572	1549
311.578	1570
311.626	1038
311.668	525
311.680	684
311.734	1461
311.758	1779
311.788	1836
311.842	1919
311.847	1922
311.896	1794
311.937	1698
311.950	1656
312.004	1427
312.027	1338
312.058	1051
312.112	523
312.117	475
312.165	1205
312.207	1837
312.297	1241
312.386	672
312.476	1509
312.566	813
312.656	2357
312.745	1341
312.835	1377
312.925	1469
313.015	1320
313.104	770
313.194	1507
313.284	1113
313.374	1477
313.463	1623
313.553	1808
313.643	651
313.732	1722
313.822	1180
313.912	2693
314.001	2276
314.091	3090
314.180	2296
314.270	2533
314.360	1783
314.449	1807
314.539	1522
314.628	2988
314.718	2180
314.808	2123
314.897	2322
314.987	3088
315.076	2935
315.166	3207
315.255	2673
315.345	3012
315.434	1728
315.524	3116
315.613	3004
315.703	4968
315.792	14630
315.881	47311
315.971	13540
316.060	4419
316.150	2755
316.239	2256
316.328	2151
316.418	3098
316.507	2263
316.597	3500
316.686	2397
316.775	3082
316.865	2210
316.954	2833
317.043	1790
317.133	2276
317.222	1647
317.311	2294
317.400	757
317.490	3434
317.579	2242
317.668	3355
317.757	7192
317.847	24826
317.936	69186
318.025	20474
318.114	19030
318.203	7509
318.293	3440
318.382	4822
318.471	4103
318.560	3602
318.649	4233
318.738	2830
318.828	1650
318.917	1925
319.006	2210
319.095	2221
319.184	2376
319.273	2187
319.362	1441
319.451	1684
319.540	1318
319.629	1183
319.718	1782
319.807	2057
319.896	1909
319.985	3899
320.074	1556
320.163	850
320.252	934
320.341	1679
320.430	1586
320.519	2299
320.608	1771
320.697	2592
320.786	2916
320.875	4149
320.964	3868
321.053	3892
321.142	4857
321.230	5140
321.319	4678
321.408	6633
321.497	6457
321.586	4743
321.675	3848
321.764	3666
321.852	3522
321.941	4392
322.030	3139
322.119	3654
322.207	5015
322.296	7248
322.385	6936
322.474	8876
322.562	8902
322.651	6611
322.740	5109
322.829	5353
322.917	3670
323.006	2999
323.095	2360
323.183	2361
323.272	2788
323.361	3603
323.449	3183
323.538	2606
323.626	2091
323.715	2512
323.804	1399
323.892	2693
323.981	1899
324.069	2735
324.158	2543
324.246	2014
324.335	1960
324.424	2300
324.512	1758
324.601	1842
324.689	1727
324.778	2482
324.866	1941
324.954	1745
325.043	915
325.131	1314
325.220	2877
325.308	1728
325.397	1562
325.485	1347
325.574	1204
325.662	1364
325.750	937
325.839	2183
325.927	1253
326.015	1649
326.104	1102
326.192	1940
326.280	1099
326.369	1084
326.457	938
326.545	1473
326.634	1661
326.722	1433
326.810	853
326.898	2391
326.987	747
327.075	718
327.163	2740
327.251	910
327.340	1808
327.428	3579
327.516	2176
327.604	2829
327.692	1746
327.781	1710
327.869	1909
327.957	1579
328.045	825
328.133	1858
328.221	280
328.309	1591
328.397	1740
328.485	2329
328.574	2825
328.662	4878
328.750	2436
328.838	2317
328.926	1446
329.014	1890
329.102	939
329.190	2456
329.278	804
329.366	1640
329.454	826
329.542	1116
329.630	273
329.718	1651
329.806	654
329.893	1878
329.981	1079
330.069	722
330.157	1167
330.245	2225
330.333	1260
330.421	1638
330.509	1134
330.597	1759
330.684	1145
330.772	2149
330.860	1506
330.948	1395
331.036	680
331.123	1103
331.211	992
331.299	1866
331.387	1510
331.475	855
331.562	1323
331.650	1498
331.738	966
331.825	1590
331.913	664
332.001	1887
332.089	1261
332.176	1745
332.264	676
332.352	960
332.439	1133
332.527	1532
332.614	541
332.702	1682
332.790	1295
332.877	2493
332.965	6309
333.052	4960
333.140	6529
333.228	18547
333.315	4449
333.403	3098
333.490	3227
333.578	7253
333.665	26201
333.753	9574
333.840	2210
333.928	3112
334.015	3035
334.103	3680
334.190	5315
334.278	6610
334.365	9304
334.452	9813
334.540	5243
334.627	4978
334.715	6185
334.802	9445
334.889	18003
334.977	24510
335.064	14782
335.151	6759
335.239	5121
335.326	4042
335.413	4896
335.501	4769
335.588	3645
335.675	5418
335.762	6159
335.850	7676
335.937	12183
336.024	20479
336.111	35037
336.199	31520
336.286	13214
336.373	7015
336.460	4185
336.547	3491
336.635	2878
336.722	3043
336.809	2355
336.896	2728
336.983	2109
337.070	3315
337.157	2923
337.245	3133
337.332	2205
337.419	2119
337.506	2079
337.593	1829
337.680	2460
337.767	3046
337.854	1395
337.941	1975
338.028	1349
338.115	360
338.202	2379
338.289	2439
338.376	1601
338.463	1886
338.550	1449
338.637	1969
338.724	1296
338.811	2067
338.898	948
338.984	1585
339.071	181
339.158	1751
339.245	1546
339.332	1755
339.419	1658
339.506	1881
339.593	399
339.679	1254
339.766	1128
339.853	1290
339.940	1449
340.027	1566
340.113	1068
340.200	1331
340.287	1151
340.374	1062
340.460	1676
340.547	329
340.634	1266
340.720	2399
340.807	719
340.894	1524
340.980	1162
341.067	1806
341.154	1517
341.240	1141
341.327	1181
341.414	2210
341.500	1214
341.587	1669
341.674	1189
341.760	1112
341.847	1007
341.933	1113
342.020	514
342.106	1631
342.193	817
342.279	1499
342.366	271
342.452	2167
342.539	732
342.625	1878
342.712	1606
342.798	1671
342.885	311
342.971	1764
343.058	1915
343.144	464
343.230	1367
343.317	1322
343.403	833
343.490	1067
343.576	699
343.662	1413
343.749	1250
343.835	1655
343.921	1398
344.008	6099
344.094	8274
344.180	2762
344.267	1000
344.353	1581
344.439	1731
344.525	1068
344.612	1177
344.698	1240
344.784	623
344.870	1423
344.957	418
345.043	1874
345.129	15
345.215	2352
345.301	423
345.387	1545
345.474	-101
345.560	253
345.646	17
345.732	1203
345.818	189
345.904	1796
345.990	921
346.076	1815
346.162	1169
346.249	1378
346.335	725
346.421	2103
346.507	1406
346.593	3286
346.679	-73
346.765	2701
346.851	2990
346.937	1530
347.023	1670
347.108	1557
347.194	511
347.280	1157
347.366	1743
347.452	6509
347.538	7040
347.624	5177
347.710	2726
347.796	1460
347.882	1430
347.967	1805
348.053	391
348.139	1968
348.225	678
348.311	815
348.397	1178
348.482	1310
348.568	1414
348.654	2408
348.740	8466
348.825	7898
348.911	3669
348.997	3768
349.083	4219
349.168	1458
349.254	1594
349.340	2241
349.425	1231
349.511	1535
349.597	223
349.682	993
349.768	1577
349.854	1614
349.939	1065
350.025	1273
350.110	1297
350.196	1443
350.282	618
350.367	2021
350.453	965
350.538	1489
350.624	274
350.709	1705
350.795	895
350.880	1563
350.966	1573
351.051	1410
351.137	1120
351.222	1559
351.308	1029
351.393	1600
351.479	962
351.564	749
351.649	1260
351.735	1816
351.820	596
351.906	767
351.991	201
352.076	1287
352.162	1519
352.247	1573
352.332	-28
352.418	1222
352.503	327
352.588	2671
352.673	1386
352.759	1222
352.844	1030
352.929	1228
353.014	267
353.100	2263
353.185	1225
353.270	917
353.355	1335
353.441	2173
353.526	248
353.611	1229
353.696	279
353.781	2634
353.866	685
353.952	1996
354.037	514
354.122	1295
354.207	289
354.292	1634
354.377	1614
354.462	1640
354.547	1006
354.632	2102
354.717	1295
354.802	933
354.887	983
354.972	1744
355.057	921
355.142	1231
355.227	1214
355.312	1673
355.397	807
355.482	1723
355.567	906
355.652	2451
355.737	1072
355.822	2442
355.907	1086
355.991	2613
356.076	355
356.161	2229
356.246	373
356.331	1756
356.416	1188
356.501	5023
356.585	2773
356.670	606
356.755	2297
356.840	1960
356.924	3430
357.009	8863
357.094	3890
357.179	1771
357.263	990
357.348	2332
357.433	1669
357.517	1103
357.602	815
357.687	1151
357.771	1845
357.856	2236
357.941	1677
358.025	4176
358.110	13888
358.195	6224
358.279	1941
358.364	1763
358.448	2429
358.533	4083
358.617	2036
358.702	3000
358.787	1412
358.871	2471
358.956	1772
359.040	1236
359.125	1315
359.209	1961
359.294	1510
359.378	3268
359.462	2015
359.547	1829
359.631	1068
359.716	1286
359.800	974
359.885	2050
359.969	-134
360.053	1948
360.138	521
360.222	1130
360.306	1039
360.391	1703
360.475	1055
360.559	2398
360.644	1797
360.728	1062
360.812	3750
360.896	6043
360.981	1890
361.065	2364
361.149	1198
361.233	2022
361.318	560
361.402	1744
361.486	1902
361.570	2002
361.654	1389
361.739	2361
361.823	4306
361.907	7881
361.991	3043
362.075	3621
362.159	3313
362.243	10887
362.327	23475
362.411	37300
362.495	12882
362.580	6226
362.664	5502
362.748	5737
362.832	9322
362.916	20637
363.000	65171
363.084	90275
363.168	33550
363.252	9139
363.336	5206
363.420	5465
363.503	4965
363.587	3708
363.671	2904
363.755	2953
363.839	4402
363.923	3864
364.007	5156
364.091	7673
364.175	10880
364.258	30420
364.342	70961
364.426	132190
364.510	65662
364.594	19374
364.677	8896
364.761	8056
364.845	6484
364.929	3282
365.013	2673
365.096	2797
365.180	1521
365.264	3776
365.347	4564
365.431	2165
365.515	733
365.598	631
365.682	2478
365.766	1579
365.849	1365
365.933	1454
366.017	2786
366.100	875
366.184	984
366.267	2809
366.351	1412
366.435	1826
366.518	1268
366.602	2409
366.685	1686
366.769	2133
366.852	1803
366.936	2306
367.019	1649
367.103	926
367.186	2915
367.270	1057
367.353	1257
367.436	2746
367.520	1651
367.603	2369
367.687	1406
367.770	1755
367.853	3059
367.937	3903
368.020	2330
368.104	1116
368.187	2011
368.270	1969
368.353	653
368.437	1806
368.520	2166
368.603	1856
368.687	1186
368.770	2627
368.853	1222
368.936	2208
369.020	1163
369.103	1873
369.186	1363
369.269	1518
369.352	1024
369.436	1381
369.519	1374
369.602	497
369.685	2994
369.768	1212
369.851	1343
369.934	1456
370.018	1186
370.101	1292
370.184	3087
370.267	2184
370.350	1899
370.433	2188
370.516	8536
370.599	25722
370.682	9666
370.765	4333
370.848	3864
370.931	3110
371.014	3671
371.097	1268
371.180	2537
371.263	2607
371.346	832
371.429	2678
371.511	1461
371.594	2633
371.677	2804
371.760	3871
371.843	3230
371.926	8478
372.009	14263
372.091	10163
372.174	4143
372.257	7012
372.340	4474
372.423	4492
372.505	4886
372.588	3072
372.671	4402
372.754	3375
372.836	3500
372.919	3967
373.002	3725
373.085	2189
373.167	3760
373.250	3450
373.332	4316
373.415	9884
373.498	14618
373.580	11709
373.663	37241
373.746	35039
373.828	6742
373.911	4190
373.993	2899
374.076	4506
374.159	2215
374.241	2622
374.324	3436
374.406	3787
374.489	4404
374.571	10638
374.654	4038
374.736	4358
374.819	6242
374.901	11590
374.983	9281
375.066	4634
375.148	2815
375.231	3995
375.313	5156
375.395	3220
375.478	2441
375.560	3320
375.643	3325
375.725	3826
375.807	7566
375.890	7211
375.972	1623
376.054	3080
376.136	2294
376.219	1567
376.301	3720
376.383	4793
376.465	3339
376.548	2429
376.630	2034
376.712	4715
376.794	2829
376.877	2151
376.959	1583
377.041	1911
377.123	1006
377.205	2216
377.287	1184
377.369	1469
377.452	2019
377.534	2404
377.616	1786
377.698	1789
377.780	1351
377.862	1669
377.944	2351
378.026	1493
378.108	2652
378.190	1652
378.272	2392
378.354	2500
378.436	1123
378.518	1299
378.600	1660
378.682	2364
378.764	1658
378.846	1989
378.928	1403
379.010	946
379.091	2775
379.173	2606
379.255	777
379.337	1447
379.419	1281
379.501	4177
379.583	2415
379.664	2002
379.746	700
379.828	4025
379.910	2211
379.991	3378
380.073	1225
380.155	2387
380.237	1557
380.318	2888
380.400	2006
380.482	2786
380.564	1815
380.645	1792
380.727	1595
380.809	4111
380.890	2402
380.972	1202
381.053	2231
381.135	3455
381.217	2475
381.298	4153
381.380	2226
381.461	3420
381.543	5463
381.624	6817
381.706	3721
381.787	4825
381.869	5090
381.951	6145
382.032	10867
382.113	11190
382.195	3685
382.276	7134
382.358	5649
382.439	8677
382.521	11963
382.602	15603
382.684	15004
382.765	26506
382.846	77130
382.928	162454
383.009	92627
383.090	79779
383.172	201321
383.253	236394
383.334	84104
383.416	36372
383.497	28409
383.578	35781
383.659	68257
383.741	181491
383.822	303360
383.903	167829
383.984	51526
384.066	28122
384.147	16619
384.228	13401
384.309	10503
384.390	9603
384.471	8173
384.553	7482
384.634	7275
384.715	7795
384.796	6249
384.877	6434
384.958	7993
385.039	5914
385.120	5695
385.201	6144
385.282	4831
385.363	7138
385.444	7393
385.525	8037
385.606	8197
385.687	7013
385.768	5465
385.849	5219
385.930	10260
386.011	12878
386.092	6477
386.173	5743
386.254	4378
386.335	5334
386.416	3158
386.496	4349
386.577	4749
386.658	4212
386.739	3268
386.820	4648
386.901	3291
386.981	5906
387.062	5137
387.143	6176
387.224	6629
387.304	7959
387.385	7057
387.466	5477
387.547	6820
387.627	6895
387.708	7193
387.789	8634
387.869	6960
387.950	6886
388.031	4546
388.111	3150
388.192	6839
388.273	6728
388.353	5411
388.434	3631
388.514	3231
388.595	5872
388.676	5563
388.756	3955
388.837	3465
388.917	3792
388.998	1449
389.078	3273
389.159	2957
389.239	1801
389.320	4463
389.400	1485
389.480	3698
389.561	3321
389.641	3923
389.722	3252
389.802	1602
389.883	3689
389.963	4395
390.043	2963
390.124	1207
390.204	3625
390.284	3159
390.365	3142
390.445	3828
390.525	4035
390.605	4453
390.686	2226
390.766	3412
390.846	4157
390.927	1959
391.007	2605
391.087	4060
391.167	2239
391.247	997
391.328	4459
391.408	3436
391.488	5229
391.568	1955
391.648	3587
391.728	4287
391.808	5026
391.888	3930
391.969	5265
392.049	4772
392.129	6770
392.209	5545
392.289	8259
392.369	7567
392.449	8439
392.529	7953
392.609	10471
392.689	12179
392.769	14432
392.849	18661
392.929	23367
393.009	31732
393.089	49402
393.169	92189
393.248	208569
393.328	388314
393.408	374518
393.488	190646
393.568	82714
393.648	43633
393.728	28515
393.807	18752
393.887	16293
393.967	12066
394.047	10272
394.127	7859
394.206	7873
394.286	9876
394.366	23921
394.446	23176
394.525	7038
394.605	4610
394.685	6171
394.764	5966
394.844	11594
394.924	12284
395.003	5994
395.083	4810
395.163	5614
395.242	4205
395.322	4181
395.402	2425
395.481	5722
395.561	5276
395.640	18183
395.720	31817
395.799	15251
395.879	6188
395.958	6118
396.038	11698
396.117	34195
396.197	34145
396.276	13107
396.356	10275
396.435	14026
396.515	19920
396.594	32189
396.673	70591
396.753	187809
396.832	348054
396.912	256273
396.991	90597
397.070	40308
397.150	21475
397.229	20352
397.308	30617
397.388	49815
397.467	22913
397.546	9516
397.625	4251
397.705	7460
397.784	4669
397.863	5258
397.942	4311
398.022	3740
398.101	2498
398.180	4700
398.259	2503
398.338	4109
398.417	2303
398.497	2492
398.576	3331
398.655	2049
398.734	2500
398.813	2729
398.892	2874
398.971	3500
399.050	1291
399.129	1261
399.208	2417
399.287	2046
399.366	414
399.445	1594
399.524	1759
399.603	472
399.682	1417
399.761	2840
399.840	3964
399.919	3700
399.998	1671
400.077	742
400.156	-33
400.235	3442
400.313	868
400.392	483
400.471	2204
400.550	2129
400.629	237
400.708	2105
400.786	338
400.865	1512
400.944	-239
401.023	3024
401.102	435
401.180	1542
401.259	1213
401.338	1017
401.416	697
401.495	-248
401.574	1344
401.652	834
401.731	1523
401.810	587
401.888	373
401.967	-202
402.046	370
402.124	1185
402.203	-364
402.281	1382
402.360	-318
402.438	1812
402.517	-695
402.596	1044
402.674	290
402.753	1349
402.831	561
402.910	1820
402.988	-61
403.066	1549
403.145	3245
403.223	2688
403.302	1263
403.380	2826
403.459	1435
403.537	762
403.615	909
403.694	936
403.772	1989
403.850	2009
403.929	716
404.007	389
404.085	1147
404.164	15
404.242	895
404.320	2243
404.398	2230
404.477	1417
404.555	5413
404.633	4935
404.711	1304
404.789	1749
404.868	837
404.946	924
405.024	-66
405.102	866
405.180	-469
405.258	-404
405.336	987
405.415	96
405.493	1079
405.571	2015
405.649	-330
405.727	671
405.805	1348
405.883	1294
405.961	1382
406.039	273
406.117	-865
406.195	1007
406.273	-150
406.351	2936
406.429	2295
406.507	765
406.585	-644
406.663	999
406.740	349
406.818	-470
406.896	-89
406.974	1641
407.052	-1113
407.130	2520
407.208	1437
407.285	1943
407.363	-772
407.441	861
407.519	277
407.596	1201
407.674	1671
407.752	4964
407.830	3269
407.907	1950
407.985	-921
408.063	686
408.141	308
408.218	1874
408.296	-1170
408.373	1251
408.451	960
408.529	585
408.606	486
408.684	2031
408.762	765
408.839	1234
408.917	1498
408.994	2087
409.072	614
409.149	2751
409.227	6008
409.304	8856
409.382	8764
409.459	11446
409.537	14462
409.614	11604
409.692	7249
409.769	9194
409.846	14926
409.924	17992
410.001	9298
410.079	6982
410.156	5480
410.233	3720
410.311	2333
410.388	2994
410.465	2746
410.543	2337
410.620	2501
410.697	2629
410.775	1760
410.852	1396
410.929	3103
411.006	3465
411.083	1533
411.161	1991
411.238	2678
411.315	1263
411.392	1523
411.469	2341
411.547	906
411.624	220
411.701	90
411.778	1493
411.855	384
411.932	641
412.009	373
412.086	1997
412.163	704
412.240	963
412.317	829
412.394	672
412.471	1119
412.548	-60
412.625	520
412.702	1324
412.779	829
412.856	409
412.933	-9
413.010	1095
413.087	1064
413.164	174
413.241	1059
413.318	214
413.395	1213
413.471	1044
413.548	760
413.625	950
413.702	-214
413.779	636
413.855	-93
413.932	-135
414.009	-172
414.086	577
414.162	82
414.239	966
414.316	408
414.393	1552
414.469	-211
414.546	896
414.623	-321
414.699	677
414.776	-429
414.853	234
414.929	148
415.006	-149
415.082	265
415.159	160
415.236	154
415.312	1930
415.389	432
415.465	-153
415.542	-339
415.618	-316
415.695	908
415.771	-363
415.848	-785
415.924	1023
416.000	-731
416.077	1833
416.153	-853
416.230	-661
416.306	-19
416.383	533
416.459	537
416.535	758
416.612	227
416.688	581
416.764	491
416.841	1021
416.917	-191
416.993	868
417.069	-224
417.146	46
417.222	-53
417.298	-159
417.374	-155
417.451	1059
417.527	85
417.603	-32
417.679	154
417.755	63
417.831	-664
417.908	1453
417.984	442
418.060	-55
418.136	708
418.212	854
418.288	524
418.364	1279
418.440	-323
418.516	347
418.592	-162
418.668	464
418.744	-69
418.820	350
418.896	59
418.972	-512
419.048	-357
419.124	1307
419.200	-792
419.276	734
419.352	15
419.428	725
419.504	-258
419.579	814
419.655	347
419.731	1370
419.807	-71
419.883	563
419.959	121
420.034	910
420.110	449
420.186	1108
420.262	1541
420.337	768
420.413	1246
420.489	1031
420.565	1763
420.640	1762
420.716	1433
420.792	339
420.867	1718
420.943	1752
421.019	1808
421.094	2608
421.170	2164
421.245	2600
421.321	2648
421.397	2375
421.472	4271
421.548	5219
421.623	4915
421.699	5814
421.774	5476
421.850	6336
421.925	7885
422.001	10352
422.076	11060
422.152	15131
422.227	20189
422.302	30597
422.378	44652
422.453	74733
422.529	125886
422.604	158222
422.679	140627
422.755	157691
422.830	125294
422.905	74763
422.981	46570
423.056	32858
423.131	23685
423.207	18706
423.282	14038
423.357	11214
423.432	8693
423.508	7788
423.583	5813
423.658	6143
423.733	5208
423.808	4465
423.883	4835
423.959	5726
424.034	6117
424.109	6623
424.184	3723
424.259	3171
424.334	2492
424.409	2910
424.484	1188
424.559	2187
424.634	1311
424.709	1915
424.784	1424
424.859	2003
424.934	524
425.009	1844
425.084	1907
425.159	905
425.234	1039
425.309	1457
425.384	978
425.459	49
425.534	1100
425.609	663
425.683	566
425.758	583
425.833	985
425.908	1383
425.983	153
426.058	1708
426.132	141
426.207	66
426.282	1781
426.357	206
426.431	23
426.506	1383
426.581	487
426.655	1281
426.730	-490
426.805	480
426.879	1551
426.954	1185
427.029	-419
427.103	1595
427.178	2333
427.253	792
427.327	141
427.402	178
427.476	664
427.551	-394
427.625	326
427.700	-26
427.774	124
427.849	464
427.923	-47
427.998	598
428.072	735
428.147	4411
428.221	22275
428.296	65931
428.370	31983
428.444	4034
428.519	696
428.593	972
428.667	735
428.742	2115
428.816	8310
428.890	41298
428.965	56916
429.039	12410
429.113	1974
429.188	1072
429.262	1126
429.336	1089
429.410	440
429.485	1057
429.559	555
429.633	755
429.707	1207
429.781	7471
429.855	37351
429.930	49911
430.004	11834
430.078	6478
430.152	25387
430.226	88882
430.300	79233
430.374	15208
430.448	4860
430.522	2610
430.596	3327
430.670	13007
430.744	50796
430.818	49051
430.892	7520
430.966	1878
431.040	754
431.114	76
431.188	-458
431.262	534
431.336	-910
431.410	941
431.484	-534
431.557	973
431.631	-581
431.705	3404
431.779	17492
431.853	63179
431.927	37213
432.000	4624
432.074	1250
432.148	56
432.222	-859
432.295	-632
432.369	-1212
432.443	-363
432.516	357
432.590	1583
432.664	301
432.737	-297
432.811	-696
432.885	-337
432.958	232
433.032	-1042
433.106	-258
433.179	-508
433.253	-798
433.326	-785
433.400	-559
433.473	-329
433.547	-881
433.620	433
433.694	-751
433.767	-434
433.841	-1313
433.914	127
433.988	-950
434.061	65
434.134	-887
434.208	702
434.281	-134
434.355	-419
434.428	-743
434.501	-415
434.575	-1007
434.648	257
434.721	-1243
434.795	115
434.868	-564
434.941	388
435.014	-675
435.088	190
435.161	806
435.234	2289
435.307	1672
435.381	1802
435.454	3810
435.527	6977
435.600	7294
435.673	5537
435.746	3052
435.819	3083
435.892	1093
435.966	1639
436.039	39
436.112	988
436.185	-492
436.258	-425
436.331	-580
436.404	-201
436.477	53
436.550	-54
436.623	-90
436.696	-67
436.769	-884
436.842	-225
436.915	-304
436.987	117
437.060	-3
437.133	20
437.206	-1274
437.279	-258
437.352	-1667
437.425	-1170
437.498	-260
437.570	54
437.643	-1080
437.716	-370
437.789	-491
437.861	-469
437.934	-558
438.007	-414
438.080	-708
438.152	-639
438.225	-1
438.298	651
438.370	3760
438.443	1510
438.516	-667
438.588	-936
438.661	-856
438.734	-263
438.806	-1041
438.879	360
438.951	-399
439.024	-387
439.096	-506
439.169	12
439.241	-468
439.314	-379
439.386	-991
439.459	-940
439.531	-1124
439.604	-346
439.676	-173
439.749	-360
439.821	-915
439.893	834
439.966	-791
440.038	-316
440.110	-812
440.183	-75
440.255	-1496
440.327	-537
440.400	-415
440.472	1537
440.544	396
440.617	-563
440.689	106
440.761	-88
440.833	-451
440.905	60
440.978	-829
441.050	-653
441.122	45
441.194	-348
441.266	-839
441.338	-833
441.411	-1335
441.483	-62
441.555	611
441.627	-194
441.699	122
441.771	-381
441.843	-92
441.915	-86
441.987	460
442.059	134
442.131	-35
442.203	1007
442.275	1443
442.347	3469
442.419	9802
442.491	50611
442.563	96159
442.635	35075
442.706	5629
442.778	2952
442.850	1142
442.922	1999
442.994	967
443.066	944
443.137	1022
443.209	3386
443.281	5110
443.353	14249
443.425	56324
443.496	156031
443.568	152627
443.640	57719
443.711	10989
443.783	4794
443.855	1485
443.926	2079
443.998	965
444.070	865
444.141	894
444.213	1392
444.285	352
444.356	646
444.428	21
444.499	817
444.571	281
444.642	1183
444.714	417
444.785	302
444.857	666
444.928	1174
445.000	804
445.071	2508
445.143	2886
445.214	5528
445.285	9574
445.357	29478
445.428	104908
445.500	182821
445.571	138513
445.642	88133
445.714	26197
445.785	7932
445.856	2343
445.928	1629
445.999	1331
446.070	1068
446.141	811
446.213	773
446.284	-620
446.355	862
446.426	-589
446.497	414
446.569	-484
446.640	-533
446.711	-86
446.782	265
446.853	-284
446.924	-251
446.995	-944
447.066	-198
447.138	-489
447.209	68
447.280	-2168
447.351	-82
447.422	-1660
447.493	-797
447.564	-929
447.635	-706
447.706	-1404
447.777	-637
447.847	-858
447.918	-1354
447.989	-716
448.060	-601
448.131	-334
448.202	-203
448.273	-1244
448.344	-138
448.414	-387
448.485	-874
448.556	-211
448.627	-299
448.698	-124
448.768	-545
448.839	-1260
448.910	-770
448.981	-874
449.051	-454
449.122	-975
449.193	-837
449.263	-725
449.334	-853
449.405	-696
449.475	-1325
449.546	-451
449.616	260
449.687	-742
449.758	-366
449.828	-1477
449.899	-721
449.969	-854
450.040	-667
450.110	-1151
450.181	-79
450.251	-1318
450.322	-1129
450.392	-945
450.463	-883
450.533	-1551
450.604	-105
450.674	-905
450.744	726
450.815	-681
450.885	241
450.955	-137
451.026	-747
451.096	-678
451.166	-425
451.237	-255
451.307	398
451.377	-279
451.447	-720
451.518	-816
451.588	-1251
451.658	-1224
451.728	-654
451.799	-853
451.869	-77
451.939	-1136
452.009	-200
452.079	-1420
452.149	-681
452.219	-1062
452.289	44
452.360	-640
452.430	131
452.500	-857
452.570	1199
452.640	5131
452.710	15511
452.780	14074
452.850	5699
452.920	1450
452.990	1200
453.060	-178
453.129	-537
453.199	-708
453.269	55
453.339	-35
453.409	-120
453.479	-558
453.549	660
453.619	-185
453.688	-946
453.758	-1360
453.828	-695
453.898	-1225
453.968	-752
454.037	-1043
454.087	-363
454.107	-93
454.168	-845
454.177	-968
454.247	-1403
454.249	-1378
454.316	-1074
454.330	-936
454.386	-405
454.411	-785
454.456	-1501
454.492	-1101
454.525	-761
454.574	-864
454.595	-925
454.655	-1029
454.665	-1056
454.734	-931
454.736	-909
454.804	-999
454.817	-995
454.873	-1033
454.898	-759
454.943	-247
454.979	-384
455.013	-588
455.060	-798
455.082	-895
455.141	-777
455.152	-753
455.221	103
455.222	106
455.291	-1069
455.303	-1058
455.360	-1034
455.384	-892
455.430	-700
455.465	-686
455.499	-711
455.546	-114
455.569	188
455.627	162
455.638	119
455.707	-479
455.708	-470
455.777	-571
455.789	-607
455.846	-767
455.869	-597
455.916	-389
455.950	-669
455.985	-922
456.031	-779
456.054	-758
456.112	-133
456.124	-12
456.193	411
456.193	401
456.262	-158
456.274	-25
456.332	666
456.355	301
456.401	-620
456.436	-89
456.470	402
456.516	-329
456.540	-664
456.597	-279
456.609	-179
456.678	77
456.678	65
456.747	-13
456.759	-145
456.817	-789
456.840	-574
456.886	-243
456.920	-104
456.955	79
457.001	804
457.024	1105
457.082	347
457.093	197
457.162	896
457.163	909
457.232	-355
457.243	-161
457.301	501
457.324	307
457.370	164
457.405	532
457.439	993
457.485	1223
457.508	1242
457.566	1801
457.577	2130
457.646	4194
457.647	4243
457.715	12201
457.727	14009
457.784	25819
457.808	33993
457.853	41605
457.889	45569
457.922	42437
457.969	27532
457.991	28968
458.050	39172
458.060	41205
458.129	72502
458.130	73355
458.198	61559
458.211	53953
458.267	25968
458.292	16425
458.336	11525
458.372	11751
458.405	19525
458.453	32385
458.474	41687
458.533	75831
458.543	77757
458.611	109384
458.614	109756
458.680	55956
458.694	41516
458.749	16672
458.775	11262
458.818	7188
458.855	5222
458.887	4138
458.936	2978
458.955	2726
459.016	2628
459.024	2611
459.093	2677
459.097	2646
459.162	1395
459.177	1383
459.230	1645
459.257	1478
459.299	1438
459.338	1963
459.368	1951
459.418	1263
459.437	1281
459.499	1709
459.505	1688
459.574	1447
459.579	1444
459.643	1481
459.659	1437
459.711	1486
459.740	1696
459.780	1753
459.820	1362
459.849	1081
459.900	1032
459.917	1103
459.981	1364
459.986	1358
460.054	1514
460.061	1500
460.123	1300
460.141	1356
460.191	1661
460.222	1554
460.260	1449
460.302	1643
460.328	1603
460.382	1927
460.397	1977
460.462	1251
460.465	1265
460.534	2222
460.543	2353
460.602	5920
460.623	7358
460.671	11485
460.703	14806
460.739	12834
460.783	8987
460.808	7187
460.864	2428
460.876	2254
460.944	1626
460.945	1611
461.013	1614
461.024	1543
461.081	1343
461.104	1480
461.150	1539
461.184	1300
461.218	1493
461.264	1815
461.286	1655
461.345	1208
461.355	1234
461.423	2070
461.425	2071
461.491	1391
461.505	1371
461.559	1665
461.585	1606
461.628	1779
461.665	2401
461.696	2712
461.745	2515
461.764	2258
461.825	1614
461.832	1629
461.901	1830
461.905	1862
461.969	1381
461.985	1164
462.037	2172
462.065	3156
462.105	2860
462.145	1697
462.173	1606
462.225	2154
462.241	2146
462.305	1903
462.310	1915
462.378	1861
462.385	1873
462.446	1841
462.465	1855
462.514	2138
462.545	2326
462.582	2136
462.625	1988
462.650	2069
462.705	1840
462.718	1826
462.785	2203
462.786	2202
462.854	1410
462.865	1451
462.922	2192
462.945	2267
462.990	2266
463.025	2272
463.058	2206
463.104	2122
463.126	2228
463.184	2328
463.194	2309
463.262	2218
463.264	2226
463.330	2140
463.344	2061
463.398	2611
463.424	2867
463.466	2445
463.504	2031
463.533	2171
463.583	2454
463.601	2406
463.663	2301
463.669	2302
463.737	2312
463.743	2290
463.805	2318
463.823	2357
463.873	2422
463.903	2476
463.940	2415
463.982	2239
464.008	2295
464.062	2561
464.076	2537
464.142	2326
464.144	2330
464.211	2062
464.221	2086
464.279	1905
464.301	1684
464.347	1582
464.381	1659
464.414	1856
464.461	2034
464.482	1964
464.540	1836
464.550	1907
464.617	2255
464.620	2273
464.685	2862
464.699	2868
464.753	2322
464.779	2226
464.820	2611
464.859	2710
464.888	2344
464.938	2020
464.956	2243
465.018	2823
465.023	2832
465.091	2890
465.098	2898
465.158	2404
465.177	2215
465.226	2511
465.257	2682
465.293	2535
465.336	2401
465.361	2481
465.416	2600
465.428	2587
465.495	2596
465.496	2604
465.563	2724
465.575	2789
465.631	3011
465.654	3100
465.698	2973
465.734	2816
465.765	2919
465.813	2907
465.833	2838
465.893	2846
465.900	2940
465.968	3537
465.972	3577
466.035	2405
466.052	2073
466.102	2388
466.131	2579
466.170	2599
466.210	2560
466.237	2580
466.290	2645
466.304	2799
466.369	3406
466.372	3422
466.439	3707
466.449	3734
466.506	2926
466.528	2606
466.573	2781
466.607	2887
466.641	3032
466.687	3264
466.708	3616
466.766	4517
466.775	4406
466.842	3530
466.845	3478
466.909	4055
466.925	4195
466.977	3758
467.004	3489
467.044	3296
467.083	3120
467.111	3097
467.163	3002
467.178	3021
467.242	3091
467.245	3125
467.312	3683
467.321	3750
467.379	3805
467.400	3814
467.446	4259
467.480	4565
467.559	4481
467.638	3392
467.717	3152
467.796	4672
467.875	4399
467.955	4563
468.034	5164
468.113	7237
468.192	9164
468.271	9742
468.350	16098
468.429	23175
468.508	23866
468.588	13934
468.667	8070
468.746	5376
468.825	4348
468.904	4975
468.983	4813
469.062	4049
469.141	4984
469.220	3140
469.299	4481
469.378	3558
469.456	4855
469.535	3925
469.614	3317
469.693	3733
469.772	5316
469.851	4676
469.930	4429
470.009	5854
470.088	6773
470.166	11065
470.245	20934
470.324	28010
470.403	16673
470.482	9514
470.560	6086
470.639	5111
470.718	4547
470.797	4163
470.875	4605
470.954	2823
471.033	4844
471.111	3892
471.190	3659
471.269	3060
471.347	3501
471.426	2484
471.505	3929
471.583	2817
471.662	3162
471.740	4110
471.819	3893
471.898	3132
471.976	3746
472.055	3579
472.133	3684
472.212	4714
472.290	2734
472.369	3690
472.447	3715
472.526	3237
472.604	4358
472.683	3390
472.761	3595
472.839	3873
472.918	3996
472.996	3592
473.075	3585
473.153	4687
473.231	3403
473.310	3546
473.388	4394
473.466	3057
473.545	3080
473.623	3884
473.701	3744
473.780	4298
473.858	2572
473.936	5600
474.014	4001
474.093	4094
474.171	4753
474.249	4419
474.327	4272
474.405	2527
474.484	4400
474.562	3457
474.640	3334
474.718	4019
474.796	3550
474.874	3349
474.952	2853
475.030	3581
475.108	3559
475.187	3924
475.265	4048
475.343	4290
475.421	3511
475.499	4116
475.577	4414
475.655	3578
475.733	3921
475.811	3462
475.889	3981
475.966	3418
476.044	2726
476.122	3666
476.200	3569
476.278	2929
476.356	3265
476.434	3435
476.512	2625
476.590	3859
476.667	4176
476.745	3935
476.823	3742
476.901	4531
476.979	2803
477.056	3591
477.134	3197
477.212	3876
477.290	4156
477.367	3231
477.445	2813
477.523	2834
477.601	3595
477.678	4193
477.756	3418
477.834	3613
477.911	3553
477.989	3593
478.066	3045
478.144	2824
478.222	2610
478.299	2984
478.377	2821
478.454	3100
478.532	3761
478.609	2859
478.687	2142
478.764	2875
478.842	3678
478.919	2043
478.997	3505
479.074	3616
479.152	3035
479.229	3326
479.307	3358
479.384	3058
479.461	3322
479.539	3058
479.616	2938
479.694	3053
479.771	3680
479.848	2725
479.926	1771
480.003	4803
480.080	4355
480.157	3210
480.235	3063
480.312	3364
480.389	3554
480.467	4252
480.544	3751
480.621	4443
480.698	4634
480.775	4236
480.853	3534
480.930	3341
481.007	4052
481.084	3785
481.161	4472
481.238	3730
481.315	3076
481.392	3967
481.470	4910
481.547	4233
481.624	3322
481.701	4341
481.778	3550
481.855	4259
481.932	5334
482.009	5239
482.086	5706
482.163	7711
482.240	7749
482.317	8517
482.393	5698
482.470	6427
482.547	6209
482.624	4873
482.701	5516
482.778	5235
482.855	3967
482.932	5052
483.009	5193
483.085	6919
483.162	7778
483.239	8165
483.316	7227
483.393	8625
483.469	6783
483.546	5897
483.623	5107
483.699	4535
483.776	4299
483.853	4253
483.930	3556
484.006	4179
484.083	6117
484.160	4698
484.236	5208
484.313	4027
484.389	5201
484.466	6956
484.543	7386
484.619	10898
484.696	13904
484.772	7952
484.849	6348
484.925	6084
485.002	5820
485.078	5785
485.155	3886
485.231	3838
485.308	3082
485.384	3596
485.461	3810
485.537	3104
485.614	5069
485.690	3304
485.766	4234
485.843	3630
485.919	2823
485.995	3300
486.072	3793
486.148	3386
486.224	2975
486.301	4139
486.377	3850
486.453	3010
486.530	4394
486.606	4634
486.682	4016
486.758	5223
486.835	5042
486.911	4084
486.987	5645
487.063	6252
487.139	7184
487.215	6848
487.292	9461
487.368	11264
487.444	12776
487.520	19691
487.596	30893
487.672	84846
487.748	277653
487.824	400373
487.900	117161
487.976	29668
488.052	16190
488.128	10719
488.204	7867
488.280	6956
488.356	6206
488.432	5987
488.508	6342
488.584	4690
488.660	5118
488.736	4736
488.812	3532
488.888	4619
488.964	4283
489.039	4736
489.115	4312
489.191	4694
489.267	3873
489.343	4452
489.418	4420
489.494	3972
489.570	2355
489.646	4759
489.722	3295
489.797	3296
489.873	4369
489.949	5000
490.024	4505
490.100	3320
490.176	4036
490.251	4254
490.327	4375
490.403	4318
490.478	5418
490.554	3997
490.629	4163
490.705	3548
490.781	4333
490.856	3243
490.932	4425
491.007	3770
491.083	3276
491.158	3599
491.234	3019
491.309	4957
491.385	3733
491.460	2565
491.536	3920
491.611	3787
491.686	3873
491.762	3477
491.837	4094
491.913	4175
491.988	4539
492.063	5520
492.139	4278
492.214	3920
492.289	3897
492.365	4270
492.440	3172
492.515	2848
492.590	3361
492.666	3679
492.741	3119
492.816	4394
492.891	2803
492.967	3571
493.042	3628
493.117	3282
493.192	3777
493.267	4394
493.342	4448
493.418	5217
493.493	3157
493.568	2888
493.643	3074
493.718	3558
493.793	4421
493.868	4207
493.943	3669
494.018	4058
494.093	3326
494.168	4547
494.243	3731
494.318	4207
494.393	3837
494.468	3441
494.543	3282
494.618	4506
494.693	3486
494.768	3865
494.842	3856
494.917	4830
494.992	3692
495.067	4632
495.142	3785
495.217	3248
495.292	3819
495.366	4499
495.441	3349
495.516	4725
495.591	4033
495.665	5435
495.740	8325
495.815	5490
495.890	3433
495.964	2883
496.039	6254
496.114	5184
496.188	5061
496.263	5489
496.338	3981
496.412	3935
496.487	4436
496.561	4630
496.636	4053
496.710	4556
496.785	3807
496.860	4332
496.934	4315
497.009	5022
497.083	3341
497.158	5012
497.232	4662
497.307	5402
497.381	6428
497.455	5737
497.530	4390
497.604	4194
497.679	4644
497.753	4183
497.827	4386
497.902	5011
497.976	5265
498.050	7742
498.125	15837
498.199	13539
498.273	5214
498.348	6132
498.422	5155
498.496	6093
498.570	7385
498.645	4245
498.719	1453
498.793	3205
498.867	4728
498.941	4177
499.016	7522
499.090	15279
499.164	7074
499.238	5328
499.312	4833
499.386	5363
499.460	6054
499.534	7253
499.609	8542
499.683	6260
499.757	4644
499.831	5308
499.905	9644
499.979	8503
500.053	4086
500.127	3533
500.201	3603
500.275	5438
500.349	5052
500.422	5398
500.496	6713
500.570	8162
500.644	12889
500.718	14429
500.792	4537
500.866	3882
500.940	3090
501.013	3439
501.087	2564
501.161	3384
501.235	2303
501.309	6320
501.382	8743
501.456	7892
501.530	4302
501.603	4417
501.677	2648
501.751	1795
501.825	5302
501.898	3226
501.972	3931
502.046	4235
502.119	2493
502.193	4430
502.266	4619
502.340	3466
502.413	3443
502.487	4285
502.561	2799
502.634	3708
502.708	3396
502.781	1466
502.855	4354
502.928	2122
503.002	3129
503.075	1707
503.149	3380
503.222	3276
503.295	2598
503.369	3411
503.442	4099
503.516	5854
503.589	8762
503.662	7841
503.736	8883
503.809	12023
503.882	14322
503.956	23497
504.029	50101
504.102	154666
504.175	213121
504.249	72261
504.322	23549
504.395	13073
504.468	9558
504.542	5380
504.615	3821
504.688	4377
504.761	2514
504.834	4577
504.907	3405
504.980	2963
505.053	1735
505.127	674
505.200	5027
505.273	2006
505.346	2207
505.419	887
505.492	3373
505.565	1568
505.638	2532
505.711	2196
505.784	1874
505.857	1870
505.930	2983
506.003	270
506.076	3397
506.149	1399
506.221	-284
506.294	3009
506.367	518
506.440	4618
506.513	3552
506.586	2413
506.659	1548
506.731	1979
506.804	1498
506.877	895
506.950	1723
507.022	2766
507.095	815
507.168	2303
507.241	2769
507.313	1215
507.386	710
507.459	2206
507.531	1697
507.604	1274
507.677	4165
507.749	24
507.822	3720
507.894	1136
507.967	2297
508.040	1002
508.112	2937
508.185	2267
508.257	1510
508.330	3481
508.402	2019
508.475	2191
508.547	1860
508.620	1246
508.692	1650
508.765	1916
508.837	1053
508.909	1754
508.982	2033
509.054	2027
509.127	1432
509.199	2246
509.271	397
509.344	865
509.416	2126
509.488	669
509.560	2649
509.633	1362
509.705	1127
509.777	2034
509.849	2324
509.922	314
509.994	1118
510.066	3111
510.138	-489
510.210	3257
510.283	1377
510.355	3224
510.427	2593
510.499	1298
510.571	1583
510.643	740
510.715	3178
510.787	-67
510.859	3152
510.931	1853
511.003	2554
511.076	2712
511.148	1396
511.219	1350
511.291	1422
511.363	1781
511.435	1596
511.507	663
511.579	1432
511.651	3117
511.723	1277
511.795	2093
511.867	1498
511.939	2283
512.010	928
512.082	2819
512.154	1011
512.226	2061
512.298	2256
512.369	1688
512.441	2444
512.513	2275
512.585	757
512.656	2964
512.728	1423
512.800	1630
512.871	3304
512.943	2607
513.015	280
513.086	1435
513.158	2323
513.230	1315
513.301	1324
513.373	2445
513.444	1653
513.516	1920
513.588	1727
513.659	2517
513.731	1706
513.802	967
513.874	3645
513.945	2187
514.016	1149
514.088	2213
514.159	431
514.231	2810
514.302	1392
514.374	2299
514.445	524
514.516	3804
514.588	1894
514.659	2111
514.730	1432
514.802	3337
514.873	169
514.944	4878
515.016	2352
515.087	2114
515.158	2108
515.229	2778
515.301	522
515.372	3420
515.443	796
515.514	2451
515.585	1230
515.656	3858
515.728	3578
515.799	2253
515.870	3645
515.941	3516
516.012	2872
516.083	5544
516.154	4257
516.225	6787
516.296	9534
516.367	9869
516.438	11194
516.509	16536
516.580	31929
516.651	125559
516.722	385200
516.793	135534
516.864	24470
516.935	22984
517.006	27234
517.077	38933
517.148	103510
517.219	453946
517.289	587219
517.360	93103
517.431	25201
517.502	13604
517.573	12245
517.643	11095
517.714	10515
517.785	13309
517.856	13630
517.926	19518
517.997	22815
518.068	29102
518.138	45038
518.209	82009
518.280	309894
518.350	833281
518.421	330737
518.492	61624
518.562	36098
518.633	36451
518.703	46594
518.774	109786
518.845	282634
518.915	243115
518.986	63599
519.056	26297
519.127	17226
519.197	12834
519.268	10709
519.338	8630
519.408	5509
519.479	5611
519.549	3834
519.620	6380
519.690	3782
519.760	3564
519.831	4126
519.901	2413
519.971	3660
520.042	2244
520.112	2501
520.182	4080
520.253	2666
520.323	1898
520.393	1643
520.463	3367
520.534	-723
520.604	4551
520.674	3731
520.744	1783
520.814	2354
520.885	2912
520.955	3617
521.025	4908
521.095	2560
521.165	3665
521.235	1273
521.305	1152
521.375	1908
521.445	2687
521.515	2424
521.585	2876
521.655	1032
521.725	4098
521.795	2960
521.865	389
521.935	4813
522.005	1687
522.075	2287
522.145	3020
522.215	1150
522.285	2656
522.355	2205
522.424	3161
522.494	1992
522.564	3238
522.634	2746
522.704	4976
522.774	1723
522.843	3560
522.913	2513
522.983	2088
523.053	1610
523.122	2822
523.192	2313
523.262	2844
523.331	2196
523.401	3411
523.471	2015
523.540	3333
523.610	1662
523.680	4051
523.749	2701
523.819	2975
523.888	2441
523.958	2391
524.027	2998
524.097	2959
524.166	2703
524.236	2210
524.305	4791
524.375	2390
524.444	1685
524.514	4893
524.583	2594
524.653	2229
524.722	3019
524.791	1708
524.861	3770
524.930	1534
524.999	3039
525.069	4131
525.138	2805
525.207	3332
525.277	5646
525.346	3843
525.415	5294
525.484	6096
525.554	6395
525.623	9632
525.692	11380
525.761	13684
525.830	19036
525.900	24005
525.969	40789
526.038	83056
526.107	184756
526.176	498116
526.245	354984
526.314	105260
526.383	254615
526.452	319227
526.522	471571
526.591	377519
526.660	60319
526.729	36683
526.797	39703
526.867	60816
526.935	190992
527.004	679186
527.073	378092
527.142	50640
527.211	20228
527.280	13933
527.349	10332
527.418	7013
527.487	6811
527.555	4724
527.624	4503
527.693	3507
527.762	5538
527.831	2956
527.899	4407
527.968	3845
528.037	2011
528.106	3688
528.174	4866
528.243	3646
528.312	3424
528.380	2597
528.449	2071
528.518	5063
528.586	816
528.655	3868
528.723	2506
528.792	2847
528.861	1840
528.929	1375
528.998	4070
529.066	2862
529.135	3204
529.203	1992
529.272	1978
529.340	4767
529.409	5268
529.477	2695
529.545	2173
529.614	6371
529.682	2031
529.751	4215
529.819	6172
529.887	4229
529.956	3241
530.024	4547
530.092	2601
530.161	4651
530.229	4561
530.297	3205
530.365	5166
530.434	4067
530.502	3361
530.570	4500
530.638	2049
530.707	4418
530.775	5222
530.843	2703
530.911	4348
530.979	4237
531.047	4152
531.115	4081
531.183	4052
531.252	4886
531.320	3055
531.388	3172
531.456	5484
531.524	2737
531.592	4412
531.660	6392
531.728	3902
531.796	3848
531.864	5487
531.932	4564
532.000	4348
532.067	4832
532.135	5254
532.203	6541
532.271	5048
532.339	7014
532.407	6760
532.475	5533
532.542	5229
532.610	5977
532.678	4907
532.746	8112
532.814	10364
532.881	6088
532.949	6312
533.017	5180
533.084	5264
533.152	4308
533.220	4907
533.287	4984
533.355	4933
533.423	6814
533.490	4862
533.558	5735
533.625	5592
533.693	5273
533.761	6266
533.828	5798
533.896	4485
533.963	7179
534.031	6393
534.098	8113
534.166	9802
534.233	7635
534.300	10503
534.368	9679
534.435	9138
534.503	11450
534.570	12394
534.637	14194
534.705	16073
534.772	21418
534.840	48821
534.907	222993
534.974	238104
535.041	28634
535.109	12332
535.176	8737
535.243	10409
535.310	9950
535.378	7596
535.445	8139
535.512	8093
535.579	8744
535.646	6185
535.714	7916
535.781	9548
535.848	8621
535.915	8499
535.982	7177
536.049	7897
536.116	8518
536.183	7363
536.250	7508
536.317	6991
536.384	8598
536.451	8340
536.518	9423
536.585	7013
536.652	8829
536.719	9419
536.786	6858
536.853	7079
536.920	9740
536.987	8705
537.053	7016
537.120	10628
537.187	10847
537.254	8766
537.321	8562
537.388	10275
537.454	8027
537.521	8758
537.588	9097
537.654	9410
537.721	10631
537.788	9369
537.855	9479
537.921	8642
537.988	8724
538.055	8781
538.121	7215
538.188	7522
538.254	7925
538.321	7308
538.388	9491
538.454	9211
538.521	10683
538.587	9794
538.654	10006
538.720	8990
538.787	9610
538.853	9090
538.920	9069
538.986	7786
539.053	7198
539.119	8929
539.185	8179
539.252	10046
539.318	9083
539.385	10713
539.451	8249
539.517	9640
539.583	9587
539.650	8642
539.716	9232
539.782	7711
539.849	8331
539.915	9722
539.981	8047
540.047	7701
540.114	8015
540.180	9917
540.246	9110
540.312	9546
540.378	9517
540.444	11074
540.510	10058
540.576	10760
540.643	8857
540.709	7668
540.775	8962
540.841	8952
540.907	8995
540.973	8573
541.039	8734
541.105	9047
541.171	9818
541.237	9520
541.303	9763
541.369	11262
541.435	10284
541.500	9588
541.566	8089
541.632	8300
541.698	8865
541.764	10245
541.830	8656
541.896	8004
541.961	9834
542.027	8543
542.093	10441
542.159	10270
542.224	7922
542.290	10101
542.356	9073
542.421	9015
542.487	8982
542.553	7958
542.618	8505
542.684	8330
542.750	9428
542.815	9070
542.881	9518
542.947	10009
543.012	10807
543.078	8606
543.143	7563
543.209	8756
543.274	7778
543.340	8233
543.405	9067
543.471	9009
543.536	10151
543.602	9360
543.667	7277
543.732	10458
543.798	8513
543.863	8793
543.928	9669
543.994	9053
544.059	10344
544.124	9928
544.190	9584
544.255	10551
544.320	10666
544.386	9255
544.451	10103
544.516	9924
544.581	10042
544.646	10529
544.712	12208
544.777	10986
544.842	10547
544.907	9387
544.972	11376
545.037	10861
545.102	11288
545.168	10493
545.233	12541
545.298	12422
545.363	11207
545.428	12160
545.493	14157
545.558	13311
545.623	12499
545.688	12659
545.753	13544
545.818	14369
545.883	15366
545.947	14362
546.012	16189
546.077	15624
546.142	17976
546.207	16944
546.272	19050
546.337	19463
546.401	20788
546.466	20950
546.531	20719
546.596	23227
546.661	24472
546.725	26520
546.790	26332
546.855	31129
546.919	32125
546.984	37784
547.049	40345
547.113	45888
547.178	50707
547.243	59076
547.307	67639
547.372	74544
547.436	74846
547.501	80164
547.565	85206
547.630	75623
547.695	74806
547.759	75531
547.823	76270
547.888	75394
547.952	80042
548.017	81609
548.081	84388
548.146	81977
548.210	86383
548.274	92985
548.339	91491
548.403	83686
548.468	78284
548.532	78735
548.596	79261
548.660	78559
548.725	88141
548.789	93563
548.853	91318
548.917	88297
548.982	85212
549.046	76705
549.110	68708
549.174	72289
549.238	83593
549.303	92382
549.367	94731
549.431	89433
549.495	84080
549.559	84097
549.623	98428
549.687	106363
549.751	104408
549.815	125601
549.879	125807
549.943	121660
550.007	127679
550.071	126069
550.135	112500
550.199	105998
550.263	103707
550.327	99818
550.391	102345
550.455	114725
550.519	120821
550.582	127757
550.646	144870
550.710	144562
550.774	145124
550.838	146344
550.901	148952
550.965	159104
551.029	165377
551.093	178879
551.156	195461
551.220	218723
551.284	240378
551.347	187000
551.411	157286
551.475	151456
551.538	156184
551.602	146265
551.666	138216
551.729	131234
551.793	127459
551.856	126448
551.920	123305
551.983	124324
552.047	121821
552.110	123933
552.174	122727
552.237	127218
552.301	118130
552.364	114636
552.428	110627
552.491	114959
552.554	118001
552.618	117224
552.681	121267
552.745	118561
552.808	137895
552.871	157578
552.934	134032
552.998	119807
553.061	113578
553.124	109814
553.187	110562
553.251	111740
553.314	111261
553.377	114549
553.440	120857
553.503	122538
553.567	123065
553.630	122681
553.693	122911
553.756	121757
553.819	119911
553.882	116459
553.945	116869
554.008	117763
554.071	118142
554.134	118892
554.197	112379
554.260	108581
554.323	111055
554.386	113940
554.449	118492
554.512	116216
554.575	112519
554.638	113674
554.701	110775
554.764	110395
554.827	104673
554.889	101679
554.952	94208
555.015	94392
555.078	95175
555.141	96868
555.203	95560
555.266	93814
555.329	94064
555.391	89488
555.454	89443
555.517	84803
555.580	82654
555.642	78349
555.705	78385
555.768	78661
555.830	76045
555.893	71569
555.955	69383
556.018	68472
556.080	69453
556.143	70790
556.206	71065
556.268	67788
556.330	66187
556.393	65075
556.455	61856
556.518	60718
556.580	59764
556.643	58033
556.705	55846
556.767	54816
556.830	54033
556.892	52237
556.955	51878
557.017	50018
557.079	50898
557.142	48711
557.204	47244
557.266	47756
557.328	45454
557.391	42475
557.453	40390
557.515	42187
557.577	41329
557.639	41891
557.701	42467
557.764	41906
557.826	42182
557.888	45177
557.950	44997
558.012	51059
558.074	67144
558.136	151386
558.198	313654
558.260	105029
558.322	47680
558.384	45991
558.446	50023
558.508	51553
558.570	58270
558.632	68226
558.694	89835
558.756	153469
558.818	420276
558.880	772531
558.942	320558
559.003	335961
559.065	148014
559.127	61765
559.189	57793
559.251	65364
559.312	100017
559.374	232387
559.436	604739
559.498	277441
559.559	69639
559.621	58405
559.683	69370
559.744	117439
559.806	348640
559.868	440977
559.929	98933
559.991	66803
560.052	115522
560.114	307845
560.176	179332
560.237	184172
560.299	264581
560.360	55539
560.422	24173
560.483	21385
560.545	19760
560.606	18228
560.667	18438
560.729	16706
560.790	16203
560.852	16744
560.913	14734
560.974	15490
561.036	15425
561.097	14924
561.158	14719
561.220	13775
561.281	12804
561.342	13133
561.403	14451
561.465	13222
561.526	13763
561.587	13734
561.648	12176
561.709	11873
561.771	12701
561.832	10722
561.893	11441
561.954	11893
562.015	11485
562.076	11406
562.137	11011
562.198	11498
562.259	11214
562.320	10745
562.381	11593
562.442	11564
562.503	10557
562.564	9818
562.625	10516
562.686	10774
562.747	10548
562.808	9648
562.869	9324
562.930	9461
562.991	9422
563.051	9070
563.112	9297
563.173	9910
563.234	8594
563.294	9740
563.355	8649
563.416	9063
563.477	8660
563.537	9571
563.598	8460
563.659	9014
563.720	9485
563.780	9376
563.841	9378
563.901	9277
563.962	8484
564.023	8089
564.083	8988
564.144	8138
564.204	7860
564.265	7783
564.325	7776
564.386	7488
564.446	9118
564.507	7692
564.567	7526
564.628	7407
564.688	7143
564.749	7645
564.809	8280
564.869	6878
564.930	7451
564.990	7672
565.050	7312
565.111	7564
565.171	6540
565.231	7214
565.292	8602
565.352	7377
565.412	7643
565.472	7100
565.532	7679
565.593	6737
565.653	6764
565.713	7230
565.773	7693
565.833	7162
565.893	8814
565.953	6695
566.013	7261
566.074	7363
566.134	6825
566.194	6075
566.254	7300
566.314	7714
566.374	6998
566.434	6777
566.494	7236
566.554	5276
566.614	7900
566.673	7153
566.733	7401
566.793	7072
566.853	7466
566.913	7736
566.973	6922
567.033	7489
567.092	7648
567.152	6628
567.212	7880
567.272	7316
567.331	7547
567.391	7469
567.451	8678
567.511	7786
567.570	6955
567.630	8095
567.690	7145
567.749	6609
567.809	7272
567.868	7116
567.928	7237
567.988	7025
568.047	7531
568.107	6800
568.166	7957
568.226	7763
568.285	7058
568.345	7327
568.404	7778
568.464	7878
568.523	6509
568.582	6944
568.642	7365
568.701	6253
568.761	6916
568.820	6769
568.879	8134
568.939	7131
568.998	6571
569.057	6754
569.116	6619
569.176	7055
569.235	6538
569.294	6941
569.353	6629
569.413	6471
569.472	6064
569.531	6058
569.590	6540
569.649	5986
569.708	6017
569.767	7034
569.827	6176
569.886	7250
569.945	7041
570.004	6566
570.063	6618
570.122	7074
570.181	7183
570.240	7073
570.299	6778
570.358	7292
570.417	6696
570.475	7676
570.534	8196
570.593	6478
570.652	7858
570.711	7447
570.770	6873
570.829	7013
570.887	7145
570.946	7326
571.005	7849
571.064	8260
571.122	9348
571.181	8345
571.240	7529
571.299	7140
571.357	6232
571.416	6361
571.475	6991
571.533	7081
571.592	8374
571.650	7637
571.709	8187
571.768	9234
571.826	9062
571.885	8070
571.943	7106
572.002	6535
572.060	6749
572.119	6895
572.177	6428
572.236	7359
572.294	6996
572.352	8067
572.411	7934
572.469	7392
572.528	6371
572.586	6420
572.644	6067
572.703	7320
572.761	6521
572.819	5705
572.877	5877
572.936	5712
572.994	5814
573.052	6332
573.110	5997
573.169	7037
573.227	6564
573.285	6117
573.343	6935
573.401	6369
573.459	6685
573.517	7020
573.576	7119
573.634	7379
573.692	7007
573.750	7022
573.808	6306
573.866	5634
573.924	6203
573.982	5487
574.040	5189
574.098	6496
574.155	6375
574.213	6493
574.271	6315
574.329	6955
574.387	6661
574.445	5477
574.503	5558
574.560	4634
574.618	6232
574.676	5461
574.734	5370
574.792	4971
574.849	6212
574.907	3684
574.965	3903
575.022	3605
575.080	3695
575.138	4607
575.195	4663
575.253	3845
575.311	3915
575.368	5029
575.426	3436
575.483	4116
575.541	4877
575.598	4048
575.656	5154
575.713	4958
575.771	5231
575.828	4621
575.886	4407
575.943	4279
576.001	3020
576.058	3559
576.115	3701
576.173	4192
576.230	4022
576.287	4513
576.345	5195
576.402	4072
576.459	4882
576.517	4658
576.574	4400
576.631	3780
576.688	3393
576.746	3857
576.803	3830
576.860	3482
576.917	3928
576.974	4095
577.031	4951
577.089	3299
577.146	3161
577.203	3746
577.260	3939
577.317	3168
577.374	4036
577.431	2906
577.488	3319
577.545	3310
577.602	5051
577.659	2794
577.716	3775
577.773	3941
577.830	3390
577.886	3362
577.943	3089
578.000	2757
578.057	4062
578.114	4079
578.171	3489
578.227	3411
578.284	3437
578.341	3205
578.398	3924
578.454	3583
578.511	3998
578.568	4901
578.625	3014
578.681	3951
578.738	3223
578.794	2946
578.851	3923
578.908	3217
578.964	2803
579.021	3474
579.077	2296
579.134	3397
579.190	2928
579.247	3935
579.303	3354
579.360	3064
579.416	3422
579.473	3607
579.529	3490
579.586	2822
579.642	3729
579.698	3658
579.755	3777
579.811	4325
579.867	4027
579.924	4187
579.980	3368
580.036	3954
580.093	4726
580.149	3796
580.205	4359
580.261	4241
580.317	4439
580.374	4684
580.430	4090
580.486	4175
580.542	4093
580.598	4430
580.619	4777
580.654	5388
580.692	3913
580.710	3186
580.765	3395
580.767	3403
580.823	4677
580.838	4455
580.879	3883
580.911	4160
580.935	4362
580.984	4142
580.991	4117
581.047	4595
581.057	4581
581.103	4556
581.130	4816
581.159	5072
581.203	4462
581.215	4324
581.270	4861
581.276	4766
581.326	3777
581.349	3718
581.382	3670
581.422	4027
581.438	4170
581.494	4618
581.494	4610
581.550	3954
581.567	3979
581.606	3980
581.640	4039
581.661	4133
581.713	4768
581.717	4814
581.773	3522
581.786	3799
581.829	4670
581.859	4510
581.885	4430
581.932	3895
581.940	3801
581.996	4871
582.004	4808
582.052	4342
582.077	4102
582.107	3887
582.150	4081
582.163	4120
582.219	4077
582.223	4024
582.274	3444
582.296	3562
582.330	3760
582.368	3891
582.386	3979
582.441	4089
582.441	4090
582.497	3916
582.514	3792
582.552	3667
582.587	4264
582.608	4644
582.659	4207
582.663	4157
582.719	5029
582.732	4906
582.774	4621
582.805	4505
582.830	4425
582.877	4742
582.885	4802
582.941	4412
582.950	4522
582.996	4813
583.023	4499
583.052	4416
583.095	4507
583.107	4447
583.162	4646
583.168	4680
583.218	5100
583.240	4691
583.273	4108
583.313	4371
583.328	4501
583.384	4678
583.385	4664
583.439	4008
583.458	4306
583.494	4841
583.531	4713
583.549	4771
583.603	4238
583.605	4211
583.660	3999
583.676	4198
583.715	4809
583.748	4475
583.770	4213
583.820	4143
583.825	4141
583.881	3742
583.893	3885
583.936	4465
583.965	4702
583.991	4850
584.038	4309
584.046	4216
584.101	4073
584.110	4139
584.156	4573
584.183	4497
584.211	4289
584.255	5031
584.266	5280
584.321	5518
584.328	5482
584.376	4947
584.400	5096
584.431	5406
584.472	5200
584.486	5071
584.541	4877
584.545	4927
584.596	5886
584.617	5937
584.651	6215
584.689	6311
584.706	6222
584.761	6326
584.762	6324
584.816	6167
584.834	6568
584.871	7382
584.906	7585
584.926	7635
584.978	7942
584.980	7966
585.035	8500
585.051	8751
585.090	9185
585.123	10107
585.145	10987
585.195	11638
585.200	11705
585.254	13877
585.267	14569
585.309	16874
585.340	18511
585.364	20060
585.412	24103
585.419	24716
585.473	31007
585.484	33037
585.528	44222
585.556	56506
585.583	78303
585.628	129763
585.637	147208
585.692	309768
585.700	334142
585.747	414960
585.772	346200
585.801	211564
585.845	72788
585.856	54952
585.910	27097
585.917	24578
585.965	18561
585.989	16554
586.019	14666
586.061	12639
586.074	12236
586.128	11125
586.133	11077
586.183	10691
586.205	10392
586.237	10065
586.277	9679
586.292	9600
586.346	9484
586.349	9515
586.401	10053
586.421	10174
586.455	10104
586.493	9694
586.509	9753
586.564	9661
586.565	9690
586.618	11334
586.637	11746
586.672	13028
586.709	14870
586.727	15680
586.781	17861
586.781	17860
586.835	13270
586.853	12292
586.889	10839
586.925	9693
586.944	9570
586.996	10311
586.998	10322
587.052	9857
587.068	9613
587.106	9250
587.140	9520
587.161	9681
587.212	9587
587.215	9603
587.269	10195
587.284	10250
587.323	10105
587.356	10043
587.377	10134
587.427	10720
587.431	10744
587.485	10710
587.499	10627
587.539	10909
587.571	11563
587.593	11956
587.643	12629
587.648	12669
587.702	12466
587.715	12542
587.755	12869
587.786	12981
587.810	13000
587.858	13036
587.864	13085
587.917	13321
587.930	13372
587.971	13260
588.001	13317
588.025	13426
588.073	13669
588.079	13716
588.133	13649
588.145	13663
588.187	13908
588.217	14166
588.241	14190
588.288	14589
588.295	14721
588.348	15018
588.360	15150
588.402	15255
588.431	15232
588.456	15585
588.503	16427
588.510	16545
588.564	17800
588.575	17994
588.617	18934
588.646	19679
588.671	20501
588.718	22728
588.725	23282
588.778	28423
588.789	29711
588.832	44065
588.861	56000
588.886	82424
588.932	141711
588.939	147358
588.993	182927
589.004	181659
589.047	95460
589.075	47142
589.100	36034
589.147	22420
589.154	22020
589.207	20131
589.218	19747
589.261	20132
589.290	20797
589.314	21433
589.361	22952
589.368	23857
589.421	32391
589.433	34585
589.475	60253
589.504	81007
589.528	107770
589.576	163279
589.582	158030
589.635	78927
589.647	63498
589.689	35546
589.718	19911
589.742	18780
589.790	16761
589.795	16674
589.849	16236
589.861	16136
589.902	15598
589.932	15037
589.955	14794
590.004	14393
590.009	14390
590.062	14436
590.075	14347
590.115	14223
590.146	14361
590.168	14417
590.218	14252
590.222	14286
590.275	14750
590.289	14858
590.328	15457
590.360	15851
590.381	15858
590.431	15883
590.435	15949
590.488	16774
590.503	17006
590.541	16407
590.574	15775
590.594	15947
590.645	16501
590.647	16545
590.700	17348
590.716	17598
590.753	17682
590.787	17672
590.806	17969
590.859	18739
590.859	18756
590.912	18965
590.930	19016
590.965	19465
591.001	19879
591.018	19921
591.071	20028
591.072	20008
591.124	19894
591.143	19764
591.177	19083
591.214	18475
591.230	18822
591.283	19927
591.285	19948
591.336	19415
591.356	19233
591.389	20003
591.427	20721
591.442	20539
591.495	19833
591.498	19767
591.547	20004
591.569	20034
591.600	19906
591.640	19784
591.653	19842
591.706	19873
591.711	19874
591.759	20530
591.782	20799
591.811	21392
591.853	22276
591.864	22283
591.917	22087
591.924	22048
591.969	22563
591.995	22830
592.022	22621
592.066	22230
592.075	22412
592.127	23426
592.137	23605
592.180	24112
592.208	24356
592.233	24838
592.279	25768
592.285	25807
592.338	25879
592.350	25872
592.390	25648
592.421	25451
592.443	25615
592.491	25909
592.495	26002
592.548	26989
592.562	27245
592.600	27043
592.633	26812
592.653	26800
592.704	26579
592.705	26736
592.775	27017
592.846	28930
592.916	28562
592.987	29428
593.058	30348
593.128	30907
593.199	29339
593.270	29774
593.341	30624
593.411	32718
593.482	32021
593.553	35328
593.623	34127
593.694	34981
593.764	35566
593.835	36273
593.906	35499
593.976	36450
594.047	37455
594.117	40070
594.188	40560
594.258	40388
594.329	40416
594.399	41331
594.470	42996
594.540	44493
594.611	45261
594.681	44963
594.751	43486
594.822	47002
594.892	48402
594.963	48785
595.033	50542
595.103	52050
595.174	52110
595.244	53692
595.314	56495
595.384	58186
595.455	59725
595.525	60346
595.595	64485
595.665	62383
595.736	62111
595.806	62689
595.876	64089
595.946	63713
596.016	67655
596.087	69327
596.157	69703
596.227	70407
596.297	73770
596.367	79641
596.437	83610
596.507	81583
596.577	82743
596.647	87220
596.717	91158
596.787	91496
596.857	91986
596.927	91572
596.997	92686
597.067	94147
597.137	96248
597.207	95552
597.277	95876
597.347	92484
597.417	90605
597.487	90344
597.557	90765
597.626	93198
597.696	95267
597.766	93708
597.836	88646
597.906	83854
597.975	82590
598.045	85075
598.115	86993
598.185	95954
598.254	107360
598.324	115999
598.394	116743
598.464	113398
598.533	110471
598.603	104193
598.672	100327
598.742	103662
598.812	102326
598.881	107372
598.951	105330
599.020	108454
599.090	112850
599.159	113601
599.229	108730
599.299	106173
599.368	110721
599.437	108401
599.507	99423
599.576	96257
599.646	94294
599.715	94378
599.785	92216
599.854	90142
599.924	88258
599.993	88766
600.062	90875
600.132	93160
600.201	99652
600.270	114549
600.340	120054
600.409	119871
600.478	116567
600.547	119466
600.617	107773
600.686	86395
600.755	78697
600.824	74879
600.894	72543
600.963	72939
601.032	72093
601.101	68830
601.170	67252
601.239	63277
601.308	64174
601.378	63662
601.447	65189
601.516	65316
601.585	66480
601.654	66730
601.723	67833
601.792	69074
601.861	71715
601.930	73893
601.999	76055
602.068	73240
602.137	76457
602.206	77574
602.275	78456
602.343	78532
602.412	79587
602.481	79844
602.550	80731
602.619	83389
602.688	83902
602.756	85332
602.825	86611
602.894	87846
602.963	89251
603.032	91632
603.100	91565
603.169	91427
603.238	91788
603.307	92970
603.375	93752
603.444	97328
603.513	96966
603.581	98105
603.650	100033
603.719	95561
603.787	99437
603.856	102417
603.924	104672
603.993	108070
604.061	113278
604.130	118946
604.198	119597
604.267	123217
604.335	123453
604.404	125376
604.472	128308
604.541	130147
604.609	129264
604.678	131992
604.746	131549
604.815	137405
604.883	136514
604.951	138634
605.020	140271
605.088	141433
605.156	145074
605.225	148203
605.293	146911
605.361	147466
605.429	150320
605.498	150679
605.566	155262
605.634	164352
605.702	167990
605.771	174367
605.839	174254
605.907	170625
605.975	165460
606.043	161124
606.111	160105
606.180	161990
606.248	159191
606.316	157001
606.384	157731
606.452	157917
606.520	162127
606.588	167053
606.656	170079
606.724	166524
606.792	156615
606.860	140278
606.928	126188
606.996	123272
607.064	120653
607.132	125654
607.200	132072
607.267	136825
607.335	139713
607.403	141893
607.471	135888
607.539	133454
607.607	133719
607.674	116350
607.742	118116
607.810	116192
607.878	117796
607.946	121160
608.013	126191
608.081	127132
608.149	128525
608.216	133329
608.284	139349
608.352	137715
608.419	135585
608.487	132699
608.555	130374
608.622	136260
608.690	145879
608.757	158660
608.825	162052
608.893	156709
608.960	147152
609.028	142947
609.095	141687
609.163	141124
609.230	126355
609.298	114787
609.365	121975
609.432	133252
609.500	144098
609.567	167068
609.635	187096
609.702	197026
609.769	184992
609.837	145076
609.904	125457
609.971	129008
610.039	139968
610.106	175227
610.173	301173
610.241	612516
610.308	341703
610.375	154050
610.442	133977
610.509	130145
610.577	132147
610.644	131104
610.711	136297
610.778	140992
610.845	148152
610.912	159139
610.980	162338
611.047	162699
611.114	158585
611.181	153388
611.248	153503
611.315	162120
611.382	167588
611.449	172706
611.516	174345
611.583	172702
611.650	173156
611.717	174868
611.784	177931
611.851	185373
611.918	194012
611.984	218750
612.051	282436
612.118	479353
612.185	947961
612.252	619773
612.319	254619
612.386	223320
612.452	204489
612.519	195955
612.586	192527
612.653	196170
612.719	202745
612.786	194957
612.853	183107
612.919	178499
612.986	180120
613.053	169726
613.120	160567
613.186	154547
613.253	159570
613.319	156477
613.386	157089
613.453	159685
613.519	161274
613.586	157857
613.652	157604
613.719	157223
613.785	161151
613.852	163465
613.918	159995
613.985	161664
614.051	167944
614.118	167945
614.184	161901
614.250	161936
614.317	164070
614.383	162226
614.449	166568
614.516	165499
614.582	166051
614.648	161849
614.715	162951
614.781	157194
614.847	158031
614.914	155985
614.980	152234
615.046	152950
615.112	156960
615.179	159529
615.245	160843
615.311	158457
615.377	159573
615.443	161377
615.509	163338
615.575	168998
615.642	167208
615.708	170164
615.774	177854
615.840	185971
615.906	194349
615.972	223525
616.038	305274
616.104	556563
616.170	1041651
616.236	848363
616.302	334745
616.368	275954
616.434	208177
616.500	195285
616.565	216580
616.631	263377
616.697	219206
616.763	224935
616.829	323835
616.895	543720
616.961	487904
617.026	229611
617.092	174328
617.158	168232
617.224	163689
617.289	152257
617.355	145190
617.421	144693
617.487	145464
617.552	138084
617.618	136101
617.684	137359
617.749	139023
617.815	132467
617.880	130035
617.946	130296
618.012	133803
618.077	134906
618.143	130236
618.208	131571
618.274	140777
618.339	140366
618.405	116540
618.470	116536
618.536	116677
618.601	114448
618.667	106787
618.732	102257
618.798	100937
618.863	101224
618.928	100628
618.994	99824
619.059	100481
619.124	101459
619.190	99476
619.255	99300
619.320	98687
619.386	100143
619.451	99265
619.516	96523
619.581	97865
619.647	99840
619.712	100898
619.777	96094
619.842	97822
619.907	99371
619.972	99568
620.038	99950
620.103	96624
620.168	98050
620.233	100146
620.298	98537
620.363	101734
620.428	103419
620.493	107056
620.558	107585
620.623	107893
620.688	107379
620.753	107335
620.818	109057
620.883	108636
620.948	109822
621.013	106681
621.078	105405
621.143	106838
621.207	109067
621.272	104549
621.337	102885
621.402	100887
621.467	100974
621.532	101568
621.596	101418
621.661	98643
621.726	98047
621.791	98041
621.855	98909
621.920	97640
621.985	99441
622.049	102489
622.114	102495
622.179	103841
622.243	104732
622.308	107916
622.373	111853
622.437	109933
622.502	104569
622.566	104149
622.631	102422
622.695	105111
622.760	103977
622.824	103971
622.889	103809
622.953	102346
623.018	109369
623.082	111544
623.147	110127
623.211	108012
623.276	108330
623.340	103188
623.404	101214
623.469	101589
623.533	102421
623.597	99885
623.662	99231
623.726	91632
623.790	87054
623.854	83666
623.919	86585
623.983	87803
624.047	88659
624.111	90325
624.176	90642
624.240	91468
624.304	95268
624.368	90180
624.432	90936
624.496	92460
624.560	98097
624.625	98774
624.689	97992
624.753	102708
624.817	96990
624.881	95126
624.945	86939
625.009	84648
625.073	85836
625.137	86040
625.201	92181
625.265	91080
625.329	88863
625.393	87434
625.456	90119
625.520	92023
625.584	93165
625.648	95222
625.712	97511
625.776	96951
625.839	91188
625.903	77105
625.967	72443
626.031	79057
626.095	92148
626.158	85494
626.222	66456
626.286	63807
626.349	61093
626.413	55301
626.477	57258
626.540	57162
626.604	55487
626.668	56657
626.731	53875
626.795	54334
626.858	54095
626.922	53259
626.986	53707
627.049	51668
627.113	56534
627.176	53985
627.240	51054
627.303	51639
627.366	51174
627.430	52516
627.493	51131
627.557	49440
627.620	51255
627.684	53930
627.747	53827
627.810	47298
627.874	43995
627.937	42584
628.000	45242
628.064	42562
628.127	36403
628.190	38702
628.253	36868
628.317	35153
628.380	34087
628.443	33042
628.506	32083
628.569	31771
628.632	28928
628.696	29952
628.759	29899
628.822	27727
628.885	27236
628.948	27475
629.011	26891
629.074	26348
629.137	25243
629.200	24102
629.263	24973
629.326	23710
629.389	24346
629.452	23658
629.515	23023
629.578	22667
629.641	24230
629.704	22911
629.767	22893
629.830	23341
629.892	21416
629.955	21049
630.018	23120
630.081	20868
630.144	22694
630.207	19650
630.269	22802
630.332	19711
630.395	20612
630.458	20397
630.520	18000
630.583	20894
630.646	19857
630.708	20854
630.771	19548
630.834	22294
630.896	20531
630.959	21200
631.021	19108
631.084	19493
631.146	20396
631.209	21228
631.272	20265
631.334	21141
631.397	20861
631.459	21569
631.522	22219
631.584	22485
631.646	24020
631.709	25766
631.771	24078
631.834	24464
631.896	23165
631.958	20683
632.021	20924
632.083	18967
632.145	20094
632.208	19162
632.270	20247
632.332	18839
632.395	18778
632.457	20083
632.519	18266
632.581	19307
632.643	17868
632.706	19564
632.768	17687
632.830	19467
632.892	19502
632.954	19443
633.016	20523
633.078	18654
633.141	19297
633.203	19245
633.265	18557
633.327	20128
633.389	19290
633.451	19807
633.513	18041
633.575	20099
633.637	18562
633.698	20092
633.760	21338
633.822	22311
633.884	21923
633.946	22838
634.008	22591
634.070	22839
634.132	24624
634.193	28798
634.255	29714
634.317	30215
634.379	30790
634.441	26747
634.502	23760
634.564	21825
634.626	20261
634.687	18998
634.749	19249
634.811	19057
634.873	18041
634.934	19148
634.996	19293
635.057	17260
635.119	18709
635.181	18584
635.242	20529
635.304	17123
635.365	21778
635.427	18403
635.488	19112
635.550	18282
635.611	20003
635.673	17674
635.734	21346
635.796	21482
635.857	24161
635.918	24902
635.980	27658
636.041	29441
636.102	31772
636.164	33145
636.225	32253
636.286	25354
636.348	22940
636.409	20894
636.470	19251
636.531	19380
636.593	17187
636.654	18351
636.715	17500
636.776	17155
636.838	16077
636.899	16311
636.960	15834
637.021	16409
637.082	15568
637.143	16342
637.204	14671
637.265	14827
637.326	16644
637.387	16905
637.448	14318
637.509	15680
637.570	15724
637.631	16515
637.692	13893
637.753	14270
637.814	14765
637.875	13925
637.936	14877
637.997	14111
638.058	13864
638.119	14233
638.179	13960
638.240	13728
638.301	13999
638.362	13355
638.423	13009
638.483	14521
638.544	11690
638.605	13692
638.666	12184
638.726	13979
638.787	14207
638.848	13039
638.908	12399
638.969	13518
639.030	12283
639.090	11449
639.151	11850
639.211	13677
639.272	13347
639.332	13205
639.393	13465
639.453	13921
639.514	13827
639.574	13475
639.635	11310
639.695	12548
639.756	10261
639.816	12157
639.877	11327
639.937	13656
639.997	11419
640.058	10400
640.118	11517
640.178	12476
640.239	11198
640.299	11898
640.359	11400
640.420	13013
640.480	14690
640.540	15925
640.600	16542
640.661	14914
640.721	12652
640.781	13767
640.841	10486
640.901	12693
640.961	12203
641.021	12638
641.082	12254
641.142	11896
641.202	11817
641.262	10232
641.322	11602
641.382	9718
641.442	12085
641.502	11424
641.562	11612
641.622	12062
641.682	13012
641.742	14790
641.802	12754
641.861	12004
641.921	10179
641.981	11755
642.041	10923
642.101	9204
642.161	8656
642.221	10108
642.280	10320
642.340	10449
642.400	8791
642.460	12132
642.519	10171
642.579	10955
642.639	10208
642.698	9032
642.758	12755
642.818	10997
642.877	9512
642.937	10448
642.997	11072
643.056	10649
643.116	9366
643.175	11735
643.235	11421
643.294	11500
643.354	12241
643.414	14194
643.473	16175
643.532	18522
643.592	25194
643.651	39984
643.711	67749
643.770	131457
643.830	307652
643.889	559965
643.948	147630
644.008	34878
644.067	21528
644.126	15558
644.186	13972
644.245	13740
644.304	10941
644.363	13484
644.423	10066
644.482	11226
644.541	11552
644.600	11251
644.659	16744
644.719	18802
644.778	29731
644.837	50904
644.896	110220
644.955	239462
645.014	72495
645.073	18638
645.132	13838
645.191	12885
645.250	12243
645.309	13955
645.368	14119
645.427	20903
645.486	34200
645.545	59579
645.604	16541
645.663	11679
645.722	10892
645.781	12156
645.840	13590
645.898	17556
645.957	24340
646.016	36045
646.075	64372
646.134	125137
646.192	329440
646.251	423768
646.310	74505
646.369	25211
646.427	21970
646.486	15781
646.545	12865
646.603	10870
646.662	10766
646.721	10283
646.779	9857
646.838	9447
646.896	13604
646.955	18184
647.014	31465
647.072	62424
647.131	167539
647.189	70759
647.248	11868
647.306	10322
647.365	9134
647.423	6964
647.481	9033
647.540	6331
647.598	7916
647.657	8100
647.715	7196
647.773	5179
647.832	8134
647.890	4841
647.948	5669
648.007	6387
648.065	5245
648.123	5470
648.181	7103
648.240	6452
648.298	5292
648.356	6007
648.414	6515
648.472	5741
648.531	5848
648.589	5152
648.647	5507
648.705	6025
648.763	5131
648.821	6464
648.879	6566
648.937	7238
648.995	8693
649.053	11020
649.111	18662
649.169	30288
649.227	56512
649.285	119338
649.343	321126
649.401	137046
649.459	18816
649.516	11594
649.574	8092
649.632	10303
649.690	9533
649.748	14812
649.806	21347
649.863	41712
649.921	121970
649.979	71938
650.037	10289
650.094	4202
650.152	5267
650.210	4400
650.268	4835
650.325	4761
650.383	4466
650.440	2910
650.498	3730
650.556	4089
650.613	3568
650.671	3903
650.728	3604
650.786	3829
650.843	6054
650.901	3392
650.958	3367
651.016	2881
651.073	3526
651.131	1996
651.188	2612
651.246	2878
651.303	2451
651.360	3233
651.418	2855
651.475	2852
651.532	2333
651.590	3379
651.647	2346
651.704	2254
651.762	2141
651.819	2528
651.876	1822
651.933	2866
651.990	2631
652.048	1252
652.105	1479
652.162	2587
652.219	1962
652.276	2618
652.333	2576
652.390	1530
652.448	2437
652.505	1395
652.562	1629
652.619	1600
652.676	1919
652.733	3204
652.790	2150
652.847	891
652.904	2862
652.961	1498
653.017	2110
653.074	2513
653.131	1684
653.188	1022
653.245	1629
653.302	1871
653.359	1783
653.415	2761
653.472	974
653.529	1664
653.586	1069
653.642	1539
653.699	2247
653.756	1048
653.813	607
653.869	2498
653.926	1908
653.983	608
654.039	1788
654.096	1613
654.152	2706
654.209	143
654.266	1119
654.322	1196
654.379	1894
654.435	2469
654.492	1108
654.548	1748
654.605	51
654.661	2537
654.717	2037
654.774	986
654.830	922
654.887	872
654.943	999
655.000	1292
655.056	1192
655.112	1784
655.168	842
655.225	1278
655.281	1682
655.337	1562
655.394	584
655.450	592
655.506	1494
655.562	899
655.618	2357
655.675	1071
655.731	1536
655.787	737
655.843	1980
655.899	1054
655.955	2205
656.011	1582
656.067	969
656.123	2192
656.179	1301
656.235	3477
656.291	226
656.347	2934
656.403	718
656.459	1863
656.515	544
656.571	1167
656.627	742
656.683	1127
656.739	1598
656.795	1750
656.850	617
656.906	2188
656.962	2081
657.018	1269
657.074	2609
657.129	4057
657.185	7090
657.241	18511
657.297	8781
657.352	1394
657.408	1271
657.464	1271
657.519	1066
657.575	408
657.630	1559
657.686	-42
657.742	796
657.797	1254
657.853	611
657.908	1844
657.964	495
658.019	587
658.075	362
658.130	1061
658.186	-463
658.241	1467
658.297	121
658.352	521
658.407	771
658.463	921
658.518	332
658.573	1071
658.629	338
658.684	731
658.739	1482
658.795	-132
658.850	518
658.905	923
658.960	872
659.016	358
659.071	609
659.126	557
659.181	373
659.236	1961
659.291	1104
659.346	181
659.401	290
659.457	664
659.512	638
659.567	1723
659.622	282
659.677	609
659.732	185
659.787	1671
659.842	865
659.897	138
659.952	1083
660.007	473
660.061	1
660.116	62
660.171	316
660.226	449
660.281	1386
660.336	-864
660.391	1053
660.445	-505
660.500	459
660.555	879
660.610	385
660.664	45
660.719	463
660.774	184
660.828	1024
660.883	48
660.938	404
660.992	126
661.047	626
661.101	490
661.156	222
661.211	-29
661.265	463
661.320	674
661.374	243
661.429	283
661.483	744
661.538	-285
661.592	676
661.647	-100
661.701	111
661.755	165
661.810	-48
661.864	-737
661.919	6
661.973	1232
662.027	423
662.081	-546
662.136	-198
662.190	681
662.244	576
662.299	831
662.353	288
662.407	334
662.461	1047
662.515	483
662.569	-140
662.624	367
662.678	410
662.732	-331
662.786	-199
662.840	323
662.894	306
662.948	120
663.002	278
663.056	171
663.110	307
663.164	-175
663.218	-442
663.272	473
663.326	406
663.380	-209
663.434	-24
663.488	-152
663.542	569
663.595	685
663.649	600
663.703	962
663.757	-128
663.811	-537
663.864	393
663.918	176
663.972	-172
664.026	-170
664.079	19
664.133	962
664.187	-495
664.240	504
664.294	345
664.348	732
664.401	685
664.455	125
664.508	293
664.562	726
664.615	-405
664.669	287
664.722	-490
664.776	40
664.829	410
664.883	-58
664.936	225
664.990	26
665.043	421
665.097	287
665.150	697
665.203	-474
665.257	403
665.310	-411
665.363	449
665.417	872
665.470	255
665.523	840
665.576	-253
665.630	-163
665.683	47
665.736	600
665.789	164
665.842	13
665.895	-34
665.949	214
666.002	23
666.055	691
666.108	477
666.161	199
666.214	419
666.267	813
666.320	587
666.373	-328
666.426	424
666.479	17
666.532	527
666.585	498
666.638	142
666.691	40
666.744	1327
666.796	-267
666.849	195
666.902	754
666.955	743
667.008	311
667.060	112
667.113	327
667.166	420
667.219	168
667.271	739
667.324	989
667.377	672
667.430	271
667.482	558
667.535	60
667.587	413
667.640	405
667.693	429
667.745	745
667.798	1385
667.850	522
667.903	879
667.955	1096
668.008	-171
668.060	660
668.113	290
668.165	445
668.218	388
668.270	217
668.322	637
668.375	221
668.427	1224
668.479	274
668.532	704
668.584	165
668.636	1213
668.689	1203
668.741	-668
668.793	32
668.845	745
668.898	663
668.950	-264
669.002	666
669.054	-462
669.106	-834
669.158	593
669.211	168
669.263	70
669.315	431
669.367	1036
669.419	-342
669.471	838
669.523	624
669.575	729
669.627	320
669.679	93
669.731	590
669.783	297
669.835	-68
669.886	-153
669.938	-96
669.990	414
670.042	-668
670.094	1240
670.146	994
670.197	941
670.249	1191
670.301	623
670.353	577
670.404	1478
670.456	557
670.508	2190
670.560	2983
670.611	6329
670.663	9403
670.715	25375
670.766	36289
670.818	8307
670.869	1000
670.921	1157
670.972	1398
671.024	1347
671.075	246
671.127	1080
671.178	1384
671.230	748
671.281	1527
671.333	1587
671.384	2126
671.436	2583
671.487	5495
671.538	8531
671.590	13541
671.641	25975
671.692	50074
671.744	95150
671.795	56816
671.846	17098
671.897	7923
671.949	4116
672.000	1846
672.051	968
672.102	1662
672.153	435
672.204	654
672.256	976
672.307	574
672.358	-322
672.409	56
672.460	-91
672.511	-243
672.562	-360
672.613	-233
672.664	-819
672.715	235
672.766	-196
672.817	338
672.868	305
672.919	-96
672.970	-58
673.021	-530
673.071	-1062
673.122	103
673.173	-583
673.224	-93
673.275	-657
673.326	-299
673.376	-216
673.427	-364
673.478	-742
673.528	93
673.579	-857
673.630	-396
673.680	808
673.731	283
673.782	-658
673.832	-508
673.883	-233
673.934	-542
673.984	66
674.035	-741
674.085	-168
674.136	-682
674.186	54
674.237	-1212
674.287	-613
674.338	-700
674.388	26
674.438	-49
674.489	655
674.539	306
674.589	377
674.640	338
674.690	-539
674.740	-535
674.791	-659
674.841	345
674.891	184
674.942	409
674.992	-422
675.042	-1313
675.092	-184
675.142	-981
675.193	-22
675.243	-497
675.293	-485
675.343	-1119
675.393	127
675.443	-631
675.493	-534
675.543	-1227
675.593	-385
675.643	243
675.693	200
675.743	-380
675.793	-481
675.843	-1375
675.893	-339
675.943	-461
675.993	-817
676.043	-1097
676.093	331
676.142	-262
676.192	249
676.242	-388
676.292	-709
676.341	-490
676.391	-704
676.441	-958
676.491	-406
676.540	-911
676.590	-467
676.640	-1041
676.689	-1564
676.739	-1412
676.789	-733
676.838	-896
676.888	-1126
676.937	-982
676.987	-833
677.037	-923
677.086	-1130
677.136	-367
677.185	-1376
677.235	-1076
677.284	-698
677.333	-518
677.383	-1605
677.432	-1658
677.482	-976
677.531	-800
677.580	-1886
677.630	-586
677.679	-735
677.728	-1110
677.778	-1203
677.827	-432
677.876	-580
677.925	-1771
677.975	-406
678.024	-782
678.073	-695
678.122	-858
678.171	-610
678.220	-1525
678.269	-395
678.319	-229
678.368	-129
678.417	-183
678.466	-167
678.515	-149
678.564	-832
678.613	-762
678.662	-1582
678.711	-1081
678.760	-1257
678.809	-895
678.857	-1311
678.906	248
678.955	-1306
679.004	-783
679.053	-850
679.102	-1685
679.151	-1334
679.199	-801
679.248	-1186
679.297	-1227
679.346	-849
679.394	-1516
679.443	-618
679.492	-447
679.540	-734
679.589	-759
679.638	-1209
679.686	-866
679.735	-783
679.784	-486
679.832	-613
679.881	-1402
679.929	-1506
679.978	-970
680.026	-225
680.075	-731
680.123	-1146
680.172	-686
680.220	-1289
680.268	-836
680.317	-1849
680.365	-708
680.414	-1796
680.462	-1499
680.510	-765
680.559	-1165
680.607	-1644
680.655	-1154
680.703	-652
680.752	-927
680.800	-1308
680.848	-1034
680.896	-1103
680.945	-488
680.993	-1790
681.041	-1616
681.089	-755
681.137	-1428
681.185	-1178
681.233	-1714
681.258	-1411
681.281	-1137
681.329	-186
681.377	-745
681.380	-708
681.425	-263
681.473	153
681.502	-516
681.521	-1010
681.569	-921
681.617	-466
681.624	-480
681.665	-656
681.713	-1062
681.745	-883
681.761	-824
681.809	-912
681.857	-616
681.867	-587
681.904	-531
681.952	-304
681.989	-582
682.000	-683
682.048	-931
682.096	-704
682.111	-458
682.143	14
682.191	-1022
682.233	-567
682.239	-510
682.286	-155
682.334	-128
682.354	-161
682.382	-233
682.430	134
682.476	-889
682.477	-923
682.525	480
682.572	-344
682.598	-531
682.620	-720
682.667	-237
682.715	-183
682.720	-159
682.763	-61
682.810	266
682.841	308
682.857	325
682.905	-358
682.952	378
682.963	131
683.000	-857
683.047	-137
683.085	66
683.095	133
683.142	-114
683.190	127
683.206	128
683.237	13
683.284	-138
683.328	-197
683.332	-210
683.379	-686
683.426	-39
683.449	-66
683.473	-68
683.521	-92
683.568	684
683.571	675
683.615	383
683.662	-517
683.693	243
683.709	622
683.757	-260
683.804	99
683.814	61
683.851	-69
683.898	177
683.936	425
683.945	482
683.992	21
684.039	751
684.057	729
684.086	697
684.133	376
684.179	78
684.180	55
684.227	1017
684.274	1302
684.300	916
684.321	642
684.368	329
684.415	263
684.422	301
684.462	429
684.509	553
684.543	705
684.556	755
684.603	945
684.649	546
684.665	805
684.696	1349
684.743	1071
684.786	949
684.790	921
684.837	1059
684.883	784
684.908	645
684.930	573
684.977	1023
685.023	1206
685.029	1131
685.070	453
685.117	1003
685.150	1358
685.164	1481
685.210	996
685.257	1524
685.272	1438
685.303	1310
685.350	954
685.393	1380
685.396	1397
685.443	947
685.490	1151
685.514	1240
685.536	1360
685.583	974
685.629	1066
685.636	1031
685.675	855
685.722	774
685.757	1069
685.768	1125
685.815	1153
685.861	1555
685.878	1390
685.908	1175
685.954	1112
686.000	1534
686.000	1538
686.047	1243
686.093	1441
686.121	1768
686.139	1927
686.185	2239
686.232	1114
686.242	1381
686.278	2346
686.324	1261
686.363	1175
686.370	1159
686.416	1356
686.463	1734
686.484	1653
686.509	1502
686.555	1239
686.601	1363
686.606	1423
686.647	2077
686.693	1470
686.727	1670
686.739	1742
686.785	1856
686.831	2134
686.848	2103
686.877	1905
686.923	1556
686.969	1716
686.969	1719
687.015	1875
687.061	2174
687.090	2832
687.107	3094
687.153	2248
687.199	2311
687.211	2247
687.245	2025
687.291	2232
687.332	1903
687.336	1888
687.382	2139
687.428	2019
687.453	2057
687.474	2083
687.520	2223
687.565	2506
687.574	2430
687.611	2143
687.657	2547
687.695	2445
687.702	2425
687.748	2550
687.794	2653
687.816	2598
687.839	2502
687.885	2805
687.931	2287
687.937	2285
687.976	2301
688.022	2599
688.058	2156
688.067	2059
688.113	2610
688.158	2322
688.179	2470
688.204	2698
688.249	3134
688.295	3036
688.300	3014
688.340	2817
688.386	3295
688.421	3164
688.431	3109
688.477	2651
688.522	3264
688.542	3167
688.567	3148
688.613	3170
688.658	3196
688.663	3200
688.703	3023
688.749	2497
688.784	2671
688.794	2795
688.839	3216
688.884	3469
688.905	3455
688.930	3320
688.975	3622
689.020	3139
689.026	3134
689.065	3123
689.110	2722
689.146	2574
689.155	2576
689.201	2759
689.246	2423
689.267	2729
689.291	3150
689.336	3288
689.381	3638
689.388	3551
689.426	2880
689.471	3496
689.509	3407
689.516	3414
689.561	3744
689.606	3458
689.630	3244
689.651	3061
689.696	3438
689.741	3585
689.750	3580
689.785	3722
689.830	3740
689.871	3977
689.875	3979
689.920	3905
689.965	3624
689.992	3663
690.010	3730
690.054	3260
690.099	3669
690.112	3581
690.144	3399
690.189	3286
690.233	3370
690.233	3378
690.278	3648
690.323	3381
690.354	3553
690.367	3672
690.412	3719
690.457	3549
690.474	3739
690.501	3868
690.546	3494
690.590	3300
690.595	3265
690.635	3184
690.680	2880
690.716	3189
690.724	3295
690.769	3457
690.813	3476
690.836	3590
690.857	3699
690.902	4029
690.946	4030
690.957	3982
690.991	3923
691.035	4371
691.077	4555
691.080	4565
691.124	4164
691.168	4363
691.198	4291
691.213	4132
691.257	3855
691.301	3247
691.318	3201
691.346	3579
691.390	3647
691.434	3921
691.439	3928
691.478	3853
691.522	4181
691.559	4029
691.567	4042
691.611	4517
691.655	4556
691.680	4470
691.699	4279
691.743	4034
691.787	4430
691.800	4258
691.831	4028
691.875	4073
691.919	4496
691.921	4479
691.964	4080
692.008	4298
692.041	4031
692.052	4054
692.096	4107
692.139	4627
692.162	4640
692.183	4446
692.227	4659
692.271	4008
692.282	3957
692.315	4286
692.359	4681
692.402	4766
692.403	4774
692.447	4612
692.490	4159
692.523	3785
692.534	3810
692.578	4139
692.622	3987
692.643	4147
692.666	4316
692.709	4178
692.753	4596
692.763	4588
692.797	4647
692.840	4919
692.884	4848
692.884	4858
692.928	4633
692.971	4488
693.004	4008
693.015	3986
693.059	4150
693.102	4914
693.124	4882
693.146	4824
693.189	4726
693.233	4886
693.245	4853
693.276	4684
693.320	4914
693.363	4583
693.365	4562
693.407	4578
693.450	4846
693.485	4840
693.493	4857
693.537	5165
693.580	5081
693.605	5107
693.624	5118
693.667	5197
693.710	5175
693.725	5120
693.753	5236
693.797	5507
693.840	6008
693.845	6022
693.883	5518
693.926	4904
693.966	4341
693.970	4382
694.013	4649
694.056	5120
694.086	5346
694.099	5385
694.142	5208
694.185	5317
694.206	5381
694.229	5466
694.272	5239
694.315	5436
694.326	5427
694.358	5404
694.401	5409
694.444	5435
694.446	5410
694.487	5090
694.530	4783
694.566	4408
694.573	4430
694.616	4738
694.659	5097
694.686	5324
694.702	5462
694.745	5503
694.787	5747
694.806	5856
694.830	5796
694.873	5477
694.916	5166
694.926	5075
694.959	5235
695.002	5696
695.044	5925
695.046	5915
695.087	5730
695.130	5590
695.166	5659
695.172	5738
695.215	5818
695.258	6095
695.286	6093
695.301	6142
695.343	6563
695.386	6722
695.406	6753
695.428	6843
695.471	7314
695.514	7629
695.526	7665
695.556	8111
695.599	8952
695.641	9486
695.646	9532
695.684	8993
695.726	8452
695.766	7711
695.769	7711
695.811	7674
695.854	7362
695.886	7216
695.896	7282
695.938	7457
695.981	7435
696.005	7576
696.023	7847
696.065	8324
696.108	8657
696.125	8917
696.150	9269
696.192	9515
696.235	9781
696.245	9830
696.277	9899
696.319	10012
696.361	10119
696.365	10097
696.404	10367
696.446	10544
696.485	10811
696.488	10818
696.530	10448
696.572	10058
696.604	9695
696.614	9721
696.656	9884
696.698	9815
696.724	9880
696.740	10008
696.783	10071
696.825	10277
696.844	10353
696.867	10318
696.909	10090
696.951	9873
696.964	9763
696.992	9887
697.034	10105
697.076	10325
697.083	10332
697.118	10518
697.160	10679
697.202	10831
697.203	10806
697.244	10739
697.286	10559
697.323	10367
697.327	10430
697.369	10726
697.411	11137
697.442	11331
697.453	11355
697.494	11286
697.536	11310
697.562	11221
697.578	11210
697.620	11221
697.661	11177
697.682	11114
697.703	11189
697.744	11322
697.786	11454
697.801	11455
697.828	11753
697.869	12116
697.911	12553
697.921	12622
697.952	12287
697.994	11798
698.035	11333
698.040	11237
698.077	11263
698.118	11301
698.160	11302
698.160	11268
698.201	11737
698.243	12196
698.279	12525
698.284	12597
698.325	12972
698.367	13338
698.399	13560
698.408	13655
698.449	13937
698.491	14203
698.518	14344
698.532	14318
698.573	14123
698.614	13918
698.638	13764
698.656	13915
698.697	14180
698.738	14438
698.757	14518
698.779	14505
698.820	14403
698.862	14295
698.877	14221
698.903	14370
698.944	14529
698.985	14693
698.996	14698
699.026	14831
699.067	14962
699.116	15077
699.235	13593
699.354	14296
699.474	13218
699.593	12424
699.713	12436
699.832	12762
699.951	14400
700.070	13819
700.190	12644
700.309	11604
700.428	11865
700.547	10908
700.667	11194
700.786	12276
700.905	11309
701.024	11379
701.143	11064
701.262	12281
701.381	12404
701.500	12567
701.619	12401
701.738	12059
701.857	11315
701.976	11100
702.095	11494
702.214	11882
702.333	11597
702.452	12251
702.571	11479
702.690	11172
702.809	11545
702.928	11239
703.047	11255
703.165	11167
703.284	10761
703.403	11196
703.522	10380
703.640	10066
703.759	10589
703.878	10303
703.997	11172
704.115	10746
704.234	10087
704.353	10440
704.471	8847
704.590	9212
704.708	9144
704.827	8772
704.946	9320
705.064	9942
705.183	8404
705.301	9150
705.420	9377
705.538	8713
705.656	7872
705.775	8267
705.893	8669
706.012	8930
706.130	7988
706.249	9220
706.367	7954
706.485	8430
706.604	7903
706.722	8354
706.840	8763
706.958	8933
707.077	8572
707.195	8316
707.313	8173
707.431	7114
707.549	7361
707.668	7579
707.786	7805
707.904	7013
708.022	8052
708.140	7434
708.258	7207
708.376	8163
708.494	7215
708.612	8671
708.730	7316
708.848	8104
708.966	8179
709.084	8451
709.202	7858
709.320	7097
709.438	7764
709.556	6565
709.674	6825
709.791	7002
709.909	6667
710.027	6961
710.145	7410
710.263	7217
710.380	6262
710.498	7033
710.616	6374
710.733	6366
710.851	5437
710.969	6866
711.086	6006
711.204	7093
711.322	7436
711.439	5546
711.557	6107
711.674	5690
711.792	5529
711.909	6107
712.027	5140
712.144	6214
712.262	6217
712.379	5887
712.497	6601
712.614	5817
712.732	6175
712.849	5515
712.966	6010
713.084	6192
713.201	5480
713.318	5711
713.436	5947
713.553	5447
713.670	6325
713.787	6915
713.905	4937
714.022	6277
714.139	6123
714.256	7617
714.373	11104
714.490	22689
714.608	65619
714.725	272220
714.842	201303
714.959	18038
715.076	7928
715.193	7229
715.310	6529
715.427	5707
715.544	5334
715.661	6472
715.778	5548
715.895	5278
716.011	5168
716.128	5686
716.245	5859
716.362	5755
716.479	4551
716.596	4795
716.713	4793
716.829	4463
716.946	3846
717.063	4915
717.180	3593
717.296	4219
717.413	4845
717.530	4910
717.646	4039
717.763	4565
717.880	3744
717.996	3488
718.113	3020
718.229	4224
718.346	3772
718.462	3741
718.579	3585
718.695	4261
718.812	3598
718.928	3852
719.045	4676
719.161	3965
719.277	4149
719.394	4159
719.510	4508
719.626	4361
719.743	5761
719.859	10542
719.975	22559
720.092	100158
720.208	174707
720.324	16729
720.440	5641
720.557	4834
720.673	4900
720.789	3883
720.905	3545
721.021	4214
721.137	3710
721.253	3046
721.369	3066
721.486	4404
721.602	3086
721.718	3674
721.834	3460
721.950	3294
722.066	2550
722.181	3091
722.297	3643
722.413	3955
722.529	3001
722.645	3258
722.761	3394
722.877	3825
722.993	3282
723.108	5192
723.224	3716
723.340	3237
723.456	3550
723.571	3207
723.687	2590
723.803	3500
723.918	2909
724.034	2775
724.150	3033
724.265	3083
724.381	2735
724.497	2983
724.612	2603
724.728	3040
724.843	3036
724.959	2940
725.074	2515
725.190	3448
725.305	2940
725.421	3097
725.536	2381
725.651	3525
725.767	2814
725.882	3188
725.997	2503
726.113	2978
726.228	2990
726.343	3501
726.459	2463
726.574	2498
726.689	2154
726.804	2585
726.920	2339
727.035	2627
727.150	2283
727.265	2280
727.380	2424
727.495	3060
727.610	2976
727.725	3243
727.841	1525
727.956	3041
728.071	1998
728.186	2714
728.301	2640
728.416	2972
728.531	2333
728.645	3131
728.760	2579
728.875	2385
728.990	2984
729.105	2215
729.220	2212
729.335	3197
729.449	2340
729.564	2472
729.679	2031
729.794	3450
729.908	2822
730.023	1958
730.138	2633
730.253	3476
730.367	1814
730.482	2862
730.596	2708
730.711	4310
730.826	4212
730.940	4363
731.055	3964
731.169	4130
731.284	2676
731.398	3527
731.513	3932
731.627	4311
731.742	5612
731.856	5514
731.970	6744
732.085	7753
732.199	10101
732.313	19225
732.428	54269
732.542	162672
732.656	71906
732.771	13793
732.885	8905
732.999	9576
733.113	10743
733.227	10241
733.342	8473
733.456	10260
733.570	8627
733.684	7783
733.798	8240
733.912	8350
734.026	7859
734.140	7692
734.254	7426
734.368	8327
734.482	7896
734.596	7460
734.710	7076
734.824	7338
734.938	7605
735.052	8072
735.166	7168
735.280	7387
735.393	6994
735.507	6423
735.621	6659
735.735	6437
735.849	7226
735.962	6776
736.076	6815
736.190	6761
736.303	7187
736.417	6938
736.531	6337
736.644	6773
736.758	6515
736.872	6103
736.985	6105
737.099	6599
737.212	6180
737.326	6387
737.439	6292
737.553	6645
737.666	6085
737.780	5513
737.893	5789
738.007	5410
738.120	6521
738.233	5410
738.347	6370
738.460	5898
738.573	6307
738.687	5918
738.800	5454
738.913	6354
739.026	5043
739.140	5139
739.253	5974
739.366	5747
739.479	4207
739.592	6225
739.705	4802
739.818	6351
739.932	4832
740.045	5068
740.158	4615
740.271	5752
740.384	5565
740.497	4920
740.610	5403
740.723	4890
740.836	4411
740.949	4714
741.062	6100
741.174	5343
741.287	4469
741.400	5110
741.513	4852
741.626	5120
741.739	4729
741.851	4881
741.964	4875
742.077	4308
742.189	4002
742.302	5129
742.415	4322
742.527	3705
742.640	4359
742.753	3637
742.865	3968
742.978	4602
743.090	3676
743.203	4270
743.316	3356
743.428	3924
743.541	4509
743.653	3503
743.766	4746
743.878	3851
743.990	3146
744.103	4670
744.215	4454
744.327	4060
744.440	5384
744.552	3776
744.664	2630
744.777	4415
744.889	3413
745.001	3666
745.113	4135
745.226	3436
745.338	3938
745.450	4640
745.562	3286
745.674	3089
745.786	3677
745.898	3053
746.010	2752
746.122	3016
746.234	3897
746.347	3617
746.459	3478
746.570	3451
746.682	4646
746.794	4969
746.906	3097
747.018	3039
747.130	3357
747.242	3306
747.354	3070
747.466	3531
747.577	3125
747.689	4120
747.801	3703
747.913	2828
748.024	1623
748.136	2518
748.248	2464
748.359	2952
748.471	2760
748.583	2736
748.694	2587
748.806	3734
748.918	1561
749.029	3687
749.141	3302
749.252	3234
749.364	1409
749.475	2684
749.587	1551
749.698	2244
749.809	2738
749.921	2777
750.032	2546
750.144	1981
750.255	1507
750.366	1880
750.478	2544
750.589	2648
750.700	2401
750.811	3402
750.923	2355
751.034	2043
751.145	3152
751.256	2185
751.367	2192
751.479	2135
751.590	1695
751.701	1750
751.812	1475
751.923	2933
752.034	2964
752.145	2736
752.256	1951
752.367	2875
752.478	2519
752.589	3068
752.700	3501
752.811	2093
752.922	2160
753.032	2514
753.143	1472
753.254	1537
753.365	2872
753.476	2161
753.586	1657
753.697	1605
753.808	2130
753.919	2250
754.029	2027
754.140	2337
754.251	1469
754.361	2101
754.472	2585
754.582	2282
754.693	2217
754.804	2606
754.914	1628
755.025	2226
755.135	1663
755.246	2789
755.356	1015
755.466	2150
755.577	1192
755.687	2048
755.798	1569
755.908	1844
756.018	1725
756.129	1936
756.239	2216
756.349	2278
756.460	1839
756.570	1752
756.680	2208
756.790	1715
756.900	2035
757.011	2270
757.121	1571
757.231	1882
757.341	1497
757.451	1470
757.561	1842
757.671	2342
757.781	1512
757.891	2568
758.001	1150
758.111	2430
758.221	2604
758.331	1581
758.441	1702
758.551	1842
758.661	2087
758.771	2632
758.880	1108
758.990	2035
759.100	951
759.210	1999
759.320	2006
759.429	2283
759.539	2543
759.649	2390
759.758	2698
759.868	3024
759.978	2439
760.087	2182
760.197	2517
760.307	3119
760.416	1723
760.526	1671
760.635	2649
760.745	3728
760.854	2281
760.964	3557
761.073	2229
761.182	2953
761.292	2847
761.401	2841
761.511	1232
761.620	1838
761.729	2268
761.839	675
761.948	1739
762.057	1539
762.166	1230
762.276	922
762.385	2980
762.494	1397
762.603	1888
762.712	2229
762.822	1810
762.931	2481
763.040	1081
763.149	484
763.258	1313
763.367	1457
763.476	1402
763.585	1377
763.694	925
763.803	1419
763.912	1964
764.021	1084
764.130	1742
764.238	1570
764.347	1900
764.456	1628
764.565	2320
764.674	1838
764.783	1326
764.891	1434
765.000	1987
765.109	1724
765.217	1396
765.326	1270
765.435	2677
765.543	3103
765.652	2551
765.761	2899
765.869	3679
765.978	6723
766.086	11267
766.195	23096
766.303	65976
766.412	178348
766.520	115612
766.629	30055
766.737	12413
766.846	6753
766.954	4197
767.062	4593
767.171	3243
767.279	2845
767.387	3120
767.496	1625
767.604	2227
767.712	2844
767.820	1588
767.928	2094
768.037	932
768.145	1735
768.253	2051
768.361	1495
768.469	1827
768.577	1646
768.685	2622
768.793	1302
768.901	1713
769.009	1374
769.117	1842
769.225	2506
769.333	3335
769.441	6059
769.549	10423
769.657	23541
769.765	81286
769.873	137071
769.981	39293
770.088	9291
770.196	5392
770.304	4908
770.412	3947
770.519	2848
770.627	2824
770.735	2840
770.842	2209
770.950	3504
771.058	3058
771.165	4106
771.273	3570
771.380	3729
771.488	5715
771.595	5716
771.703	4544
771.810	4698
771.918	3994
772.025	6371
772.133	6776
772.240	5789
772.348	8031
772.455	6700
772.562	5232
772.670	5534
772.777	6229
772.884	6205
772.991	6351
773.099	6062
773.206	4878
773.313	6047
773.420	5707
773.528	5182
773.635	5625
773.742	6552
773.849	4920
773.956	6279
774.063	4590
774.170	5434
774.277	4755
774.384	5718
774.491	4437
774.598	5666
774.705	4357
774.812	5089
774.919	5332
775.026	5240
775.133	5208
775.239	5056
775.346	4470
775.453	4176
775.560	4228
775.667	5769
775.773	4556
775.880	5553
775.987	4015
776.093	5344
776.200	4809
776.307	3273
776.413	4451
776.520	5219
776.627	4663
776.733	4015
776.840	2860
776.946	6174
777.053	4686
777.159	5707
777.266	2961
777.372	5992
777.478	5040
777.585	4361
777.691	3035
777.798	4331
777.904	3911
778.010	3692
778.117	4147
778.223	3664
778.329	4131
778.435	3975
778.542	4639
778.648	3921
778.754	2738
778.860	3947
778.966	3321
779.072	3255
779.178	3240
779.284	3368
779.391	3814
779.497	2812
779.603	4886
779.708	2041
779.815	3456
779.920	5073
780.026	4418
780.132	3664
780.238	2311
780.344	2454
780.450	4021
780.556	2808
780.661	2418
780.767	2813
780.873	1760
780.979	2895
781.085	3160
781.190	2775
781.296	2839
781.402	2158
781.507	2246
781.613	2430
781.719	1964
781.824	3199
781.930	2561
782.035	2464
782.141	3521
782.246	1448
782.352	1446
782.457	2933
782.563	2643
782.668	2591
782.773	2898
782.879	1240
782.984	2739
783.090	2667
783.195	2699
783.300	3522
783.405	1572
783.511	1908
783.616	2309
783.721	2605
783.826	1668
783.932	2336
784.037	2661
784.142	2192
784.247	1956
784.352	2583
784.457	2083
784.562	2808
784.667	2407
784.772	2159
784.877	810
784.982	3098
785.087	2458
785.192	2160
785.297	1943
785.402	2094
785.507	1704
785.611	1736
785.716	1586
785.821	1796
785.926	2386
786.031	1636
786.135	1149
786.240	2120
786.345	583
786.450	1467
786.554	1295
786.659	1481
786.763	308
786.868	2827
786.973	2219
787.077	1015
787.182	1155
787.286	2578
787.391	2354
787.495	1153
787.600	442
787.704	1137
787.809	1253
787.913	680
788.017	1475
788.122	1891
788.226	2277
788.330	289
788.435	1158
788.539	2101
788.643	1962
788.747	379
788.852	1204
788.956	1257
789.060	2498
789.164	2253
789.268	215
789.372	1892
789.476	1785
789.580	1688
789.684	960
789.788	2161
789.892	1067
789.996	1526
790.100	777
790.204	1471
790.308	1237
790.412	775
790.516	396
790.620	703
790.724	1644
790.828	925
790.931	658
791.035	2054
791.139	834
791.242	1412
791.346	1904
791.450	1568
791.554	-219
791.657	311
791.761	1385
791.864	1418
791.968	1527
792.072	1459
792.175	652
792.279	849
792.382	307
792.486	725
792.589	604
792.693	1261
792.796	-740
792.899	1369
793.003	576
793.106	336
793.209	1028
793.313	1047
793.416	-1138
793.519	1337
793.623	1439
793.726	1149
793.829	136
793.932	646
794.035	8
794.138	1664
794.242	1087
794.345	501
794.448	49
794.551	31
794.654	1717
794.757	2012
794.860	996
794.963	1255
795.066	360
795.169	1640
795.272	22
795.375	1459
795.477	150
795.580	1938
795.683	-181
795.786	1128
795.889	-191
795.991	1510
796.094	850
796.197	-196
796.300	2698
796.402	553
796.505	-444
796.608	592
796.710	1610
796.813	1345
796.915	891
797.018	468
797.120	280
797.223	493
797.326	1673
797.428	919
797.530	508
797.633	8
797.735	1915
797.838	-263
797.940	1453
798.042	317
798.145	-262
798.247	1036
798.349	79
798.452	2590
798.554	353
798.656	880
798.758	1107
798.860	517
798.962	384
799.065	-22
799.167	-284
799.269	753
799.371	1990
799.473	1949
799.575	454
799.677	402
799.779	1004
799.881	-1168
799.983	2041
800.085	384
800.187	442
800.289	-881
800.390	-518
800.492	1254
800.594	1139
800.696	225
800.798	58
800.899	144
801.001	300
801.103	919
801.205	361
801.306	908
801.408	-380
801.509	130
801.611	609
801.713	876
801.814	-206
801.916	-349
802.017	-300
802.119	285
802.220	866
802.322	-1551
802.423	1435
802.525	-869
802.626	55
802.727	1143
802.829	713
802.930	-1312
803.031	1619
803.133	708
803.234	336
803.335	938
803.436	-300
803.538	155
803.639	-594
803.740	574
803.841	-108
803.942	295
804.043	921
804.144	-79
804.245	-545
804.346	-404
804.447	-588
804.548	128
804.649	1025
804.750	10
804.851	-779
804.952	437
805.053	-135
805.154	-808
805.255	1249
805.355	386
805.456	-279
805.557	-1232
805.658	-137
805.758	1076
805.859	37
805.960	239
806.061	-226
806.161	554
806.262	142
806.362	-344
806.463	-719
806.564	704
806.664	-694
806.765	-746
806.865	-70
806.966	-581
807.066	-122
807.166	571
807.267	386
807.367	-280
807.468	431
807.568	-1416
807.668	484
807.769	1422
807.869	-412
807.969	520
808.069	140
808.170	727
808.270	-135
808.370	36
808.470	4
808.570	-733
808.670	-676
808.770	-139
808.870	319
808.970	424
809.070	-317
809.170	-412
809.271	667
809.370	-230
809.470	740
809.570	439
809.670	-365
809.770	345
809.870	893
809.970	-316
810.070	101
810.169	173
810.269	-1025
810.369	640
810.469	-1080
810.568	-575
810.668	-634
810.768	-367
810.867	527
810.967	-648
811.066	-819
811.166	-1135
811.265	601
811.365	-654
811.464	-378
811.564	984
811.663	-375
811.763	-1263
811.862	762
811.962	738
812.061	127
812.160	144
812.260	-451
812.359	55
812.458	-728
812.557	-372
812.657	-774
812.756	243
812.855	91
812.954	-164
813.053	67
813.153	-853
813.252	-907
813.351	173
813.450	52
813.549	-904
813.648	198
813.747	-700
813.846	712
813.945	6
814.044	-343
814.143	446
814.242	465
814.341	-365
814.439	732
814.538	1243
814.637	519
814.736	148
814.835	572
814.933	278
815.032	1658
815.131	2019
815.229	3405
815.328	5867
815.427	3370
815.525	3727
815.624	3136
815.722	2602
815.821	2574
815.919	3771
816.018	2395
816.116	4297
816.215	3474
816.313	3087
816.412	4796
816.510	4199
816.609	5513
816.707	5697
816.805	3527
816.904	3477
817.002	4252
817.100	5142
817.198	4695
817.296	3304
817.395	3898
817.493	4924
817.591	3056
817.689	4125
817.787	3478
817.885	4263
817.983	3896
818.081	4628
818.179	4088
818.277	6054
818.375	4598
818.473	3379
818.571	2628
818.669	3684
818.767	4501
818.865	2880
818.963	1889
819.061	3363
819.158	3322
819.256	5184
819.354	4799
819.452	8227
819.549	3169
819.647	4892
819.745	3231
819.842	3556
819.940	2859
820.038	2888
820.135	2776
820.233	4667
820.330	2510
820.428	2333
820.525	3875
820.623	2976
820.720	1599
820.818	2815
820.915	3107
821.012	2937
821.110	1628
821.207	3485
821.304	1975
821.402	2920
821.499	3981
821.596	3424
821.693	2914
821.791	3206
821.888	2709
821.985	4410
822.082	796
822.179	2880
822.276	2973
822.373	2281
822.470	2381
822.567	1954
822.664	2063
822.761	3171
822.858	1983
822.955	2483
823.052	1662
823.149	2537
823.246	2988
823.343	1701
823.440	2283
823.536	2159
823.633	1737
823.730	2446
823.827	2447
823.923	2458
824.020	2060
824.117	2515
824.213	1907
824.310	2618
824.407	1444
824.503	3128
824.600	2188
824.696	2060
824.793	2673
824.889	2633
824.986	1506
825.082	1503
825.179	1588
825.275	2873
825.371	1770
825.468	1600
825.564	123
825.660	2186
825.757	2619
825.853	1908
825.949	585
826.045	1886
826.142	1425
826.238	2163
826.334	2320
826.430	1461
826.526	1132
826.622	1180
826.718	2461
826.814	1437
826.910	2580
827.006	78
827.102	491
827.198	2177
827.294	2080
827.390	2194
827.486	1438
827.582	243
827.678	811
827.774	2885
827.869	756
827.965	1728
828.061	322
828.157	1488
828.252	1618
828.348	389
828.444	1347
828.539	1265
828.635	788
828.731	1587
828.826	-31
828.922	1478
829.017	1365
829.113	2192
829.208	139
829.304	486
829.399	2691
829.495	734
829.590	1270
829.685	1302
829.781	1850
829.876	1498
829.971	-300
830.066	448
830.162	450
830.257	1719
830.352	657
830.447	1168
830.543	1006
830.638	130
830.733	1818
830.828	47
830.923	1463
831.018	1383
831.113	1845
831.208	-270
831.303	88
831.398	824
831.493	890
831.588	2916
831.683	339
831.778	104
831.873	497
831.967	1683
832.062	-81
832.157	437
832.252	1363
832.346	214
832.441	2254
832.536	1519
832.631	622
832.725	132
832.820	639
832.914	702
833.009	84
833.104	830
833.198	111
833.293	340
833.387	388
833.482	384
833.576	905
833.670	1331
833.765	16
833.859	557
833.954	1210
834.048	1103
834.142	1076
834.237	-593
834.331	339
834.425	1060
834.519	550
834.613	401
834.708	231
834.802	-19
834.896	-369
834.990	825
835.084	157
835.178	-348
835.272	-752
835.366	1217
835.460	1179
835.554	684
835.648	-250
835.742	-326
835.836	415
835.930	15
836.024	346
836.117	1088
836.211	564
836.305	-74
836.399	-117
836.493	353
836.586	788
836.680	295
836.774	-976
836.867	614
836.961	-83
837.055	-109
837.148	-439
837.242	588
837.335	-140
837.429	35
837.522	-32
837.616	-21
837.709	758
837.803	-42
837.896	884
837.989	566
838.083	-131
838.176	168
838.269	-710
838.363	401
838.456	-180
838.549	1210
838.642	-117
838.735	667
838.829	474
838.922	273
839.015	235
839.108	-534
839.201	686
839.294	720
839.387	438
839.480	-1295
839.573	-161
839.666	-218
839.759	-270
839.852	-717
839.945	362
840.038	-121
840.131	-420
840.223	-1039
840.316	431
840.409	561
840.502	353
840.594	325
840.687	-1303
840.780	38
840.873	-1251
840.965	169
841.058	137
841.150	975
841.243	-1512
841.336	-238
841.428	-1267
841.521	140
841.613	-560
841.706	-361
841.798	-718
841.890	167
841.983	-879
842.075	86
842.167	-784
842.260	524
842.352	345
842.444	-78
842.537	-241
842.629	-631
842.721	-113
842.813	844
842.905	-1533
842.997	559
843.090	-746
843.182	111
843.274	-584
843.366	564
843.458	177
843.550	973
843.642	-269
843.734	-637
843.826	-835
843.918	670
844.009	-57
844.101	-489
844.193	-532
844.285	-208
844.377	152
844.469	359
844.560	-168
844.652	-65
844.744	334
844.835	90
844.927	-387
845.019	425
845.110	-1883
845.202	-187
845.293	358
845.385	-1045
845.476	-213
845.568	658
845.659	-210
845.751	581
845.842	-137
845.934	-654
846.025	-703
846.116	-509
846.208	-499
846.299	-566
846.390	-772
846.482	230
846.573	-239
846.664	96
846.755	-1056
846.846	535
846.937	-2077
847.029	-488
847.120	-1044
847.211	55
847.302	782
847.393	-743
847.484	453
847.575	-869
847.666	-806
847.757	-19
847.847	-1216
847.938	857
848.029	-415
848.120	-709
848.211	-36
848.302	-1196
848.392	-770
848.483	296
848.574	-224
848.664	-513
848.755	-221
848.846	-389
848.936	-200
849.027	-117
849.118	-392
849.208	535
849.299	95
849.389	2180
849.480	4439
849.570	8404
849.661	18462
849.751	25933
849.841	6616
849.932	-212
850.022	-649
850.112	-88
850.203	-20
850.293	-322
850.383	-368
850.474	-299
850.564	-695
850.654	-258
850.744	-762
850.834	-442
850.924	-786
851.014	179
851.104	-658
851.194	-528
851.284	-983
851.374	-743
851.464	-1017
851.554	-280
851.644	-655
851.734	263
851.824	-373
851.914	-967
852.004	-361
852.094	-565
852.183	347
852.273	-396
852.363	347
852.452	96
852.542	32
852.632	-1247
852.721	38
852.811	-54
852.901	247
852.990	308
853.080	-67
853.169	-1021
853.259	-187
853.348	-320
853.438	668
853.527	1510
853.617	1627
853.706	4709
853.795	8130
853.885	21141
853.974	36235
854.063	67961
854.152	85895
854.242	29452
854.331	6261
854.420	2150
854.509	1285
854.598	1665
854.687	851
854.777	917
854.866	-79
854.955	-311
855.044	-818
855.133	487
855.222	-568
855.311	-272
855.400	-418
855.488	-322
855.577	-818
855.666	-76
855.755	839
855.844	43
855.933	-1389
856.021	-168
856.110	89
856.199	-704
856.288	-603
856.376	-644
856.465	-1090
856.554	-677
856.642	-946
856.731	135
856.819	-283
856.908	-355
856.996	-314
857.085	-645
857.173	-1018
857.262	-425
857.350	-142
857.438	-195
857.527	-107
857.615	-615
857.703	-626
857.792	-842
857.880	-194
857.968	-772
858.056	-1007
858.145	-822
858.233	-690
858.321	-948
858.409	647
858.497	-253
858.585	-645
858.673	-476
858.761	-1017
858.849	-1096
858.937	-818
859.025	-61
859.113	-230
859.201	-380
859.289	-170
859.377	-666
859.465	-173
859.552	-586
859.640	-1958
859.728	-564
859.816	-854
859.903	-413
859.991	-522
860.079	-845
860.166	-1151
860.254	-58
860.342	-866
860.429	-516
860.517	-606
860.604	-234
860.692	-589
860.779	-984
860.867	-731
860.954	-603
861.042	-357
861.129	107
861.216	-184
861.304	-223
861.391	-458
861.478	-245
861.565	-485
861.653	62
861.740	-2391
861.827	-868
861.914	-379
862.001	-548
862.089	79
862.176	379
862.263	-748
862.350	-1212
862.437	-833
862.524	-1067
862.611	-874
862.698	-51
862.785	-388
862.871	185
862.958	-612
863.045	-307
863.132	554
863.219	-541
863.306	-638
863.392	336
863.479	-369
863.566	-921
863.652	-5
863.739	-48
863.826	270
863.912	-214
863.999	-516
864.086	-611
864.172	-471
864.259	82
864.345	347
864.432	-432
864.518	-3
864.604	-17
864.691	198
864.777	198
864.863	258
864.950	1884
865.036	2804
865.122	4982
865.209	5312
865.295	4887
865.381	3415
865.467	3746
865.553	4726
865.639	5438
865.726	7902
865.812	13862
865.898	22655
865.984	33170
866.070	58140
866.156	51937
866.242	15265
866.328	7214
866.414	4990
866.499	4633
866.585	3983
866.671	3998
866.757	4034
866.843	4285
866.928	3399
867.014	3505
867.100	3169
867.186	2902
867.271	3186
867.357	3919
867.442	3154
867.528	3440
867.614	3051
867.699	2801
867.785	3400
867.870	2665
867.956	2387
868.041	3313
868.127	2910
868.212	3797
868.297	2988
868.383	3581
868.468	1910
868.553	3161
868.639	3150
868.724	3099
868.809	2956
868.894	2888
868.979	2201
869.065	3586
869.150	1974
869.235	3167
869.320	2125
869.405	2383
869.490	2517
869.575	2844
869.660	1795
869.745	3125
869.830	2821
869.915	2088
870.000	1912
870.085	2169
870.169	3890
870.254	3398
870.339	1626
870.424	1480
870.509	2408
870.593	2826
870.678	3116
870.763	1855
870.847	1335
870.932	2279
871.016	2735
871.101	1781
871.186	1764
871.270	2638
871.355	1075
871.439	3074
871.523	2679
871.608	2005
871.692	1454
871.777	3408
871.861	2248
871.945	1539
872.030	2487
872.114	3313
872.198	1568
872.282	1559
872.367	1081
872.451	1851
872.535	1623
872.619	2426
872.703	1340
872.787	2506
872.871	2275
872.955	949
873.039	630
873.123	1402
873.207	2611
873.291	1425
873.375	1626
873.459	2655
873.543	1419
873.627	1450
873.711	1492
873.794	1482
873.878	1072
873.962	592
874.045	1748
874.129	1609
874.137	1619
874.213	1711
874.245	1564
874.296	1327
874.352	806
874.380	551
874.460	1063
874.464	1083
874.547	1051
874.568	1357
874.631	2239
874.676	1995
874.714	1806
874.784	2093
874.798	2138
874.881	2282
874.892	2066
874.965	656
874.999	1218
875.048	1943
875.107	1434
875.131	1245
875.215	953
875.215	953
875.298	697
875.323	976
875.381	1682
875.430	2188
875.465	2466
875.538	1501
875.548	1384
875.631	945
875.646	796
875.714	116
875.753	688
875.798	1345
875.861	1598
875.881	1635
875.964	760
875.968	729
876.047	471
876.076	857
876.130	1448
876.183	1427
876.213	1439
876.291	2274
876.296	2324
876.379	702
876.398	732
876.462	821
876.506	522
876.545	272
876.613	660
876.628	785
876.711	1755
876.721	1764
876.794	1531
876.828	1385
876.877	1309
876.935	806
876.960	592
877.043	602
877.043	603
877.125	1142
877.150	1460
877.208	1931
877.258	1475
877.291	1289
877.365	1031
877.374	983
877.456	868
877.472	794
877.539	831
877.579	980
877.622	911
877.687	774
877.704	823
877.787	1815
877.794	1796
877.869	1344
877.901	1441
877.952	1400
878.008	287
878.034	-116
878.115	605
878.117	627
878.199	570
878.222	885
878.282	1545
878.329	1504
878.364	1445
878.437	1886
878.447	1885
878.529	121
878.544	167
878.611	1073
878.651	1326
878.694	1575
878.758	1740
878.776	1781
878.858	1768
878.865	1786
878.941	1421
878.972	1042
879.023	732
879.078	877
879.105	1047
879.185	2035
879.187	2051
879.269	1586
879.292	1604
879.351	1397
879.399	1166
879.433	1242
879.506	1251
879.516	1208
879.598	1315
879.613	1211
879.680	1266
879.720	1649
879.762	1775
879.827	901
879.844	740
879.926	1402
879.933	1463
880.007	1969
880.040	1580
880.089	1073
880.147	1783
880.171	2135
880.253	3303
880.254	3303
880.335	3475
880.360	3856
880.417	6069
880.467	8972
880.499	10662
880.574	11057
880.580	10668
880.662	5009
880.680	3900
880.744	2236
880.787	1560
880.825	1373
880.893	1526
880.907	1537
880.989	1639
881.000	1603
881.070	1709
881.106	1877
881.152	1849
881.213	1222
881.233	1098
881.315	1112
881.319	1144
881.396	1739
881.426	1667
881.478	1568
881.532	1719
881.559	1777
881.639	1482
881.641	1477
881.722	1244
881.745	1330
881.803	1801
881.852	1618
881.885	1283
881.958	1118
881.966	1164
882.047	1535
882.064	1574
882.129	1205
882.171	1016
882.210	986
882.277	839
882.291	858
882.372	848
882.383	908
882.454	2105
882.489	2537
882.535	2299
882.596	2236
882.616	2293
882.697	2110
882.702	2090
882.778	1820
882.808	1524
882.859	1033
882.914	1102
882.940	1257
883.020	1814
883.021	1821
883.102	1744
883.127	1768
883.183	1949
883.233	1684
883.264	1419
883.339	1432
883.345	1425
883.426	599
883.445	632
883.507	1120
883.551	1116
883.587	1383
883.657	2273
883.668	2374
883.749	2655
883.763	2661
883.830	1626
883.869	1015
883.910	879
883.975	1180
883.991	1350
884.072	1546
884.081	1598
884.152	2226
884.187	2389
884.233	2337
884.292	2400
884.314	2208
884.394	1069
884.398	1037
884.475	1065
884.504	929
884.555	1064
884.610	1445
884.636	1544
884.716	1704
884.716	1718
884.797	3229
884.821	3576
884.877	2818
884.927	2146
884.958	2053
885.033	2013
885.038	1986
885.118	1165
885.139	1091
885.199	1428
885.244	1500
885.279	1648
885.350	1945
885.359	2027
885.439	2653
885.456	2730
885.520	2145
885.561	1993
885.600	1970
885.667	1572
885.680	1628
885.760	2101
885.773	2127
885.840	1411
885.878	1231
885.920	1477
885.984	1530
886.000	1557
886.080	1821
886.089	1843
886.160	2020
886.195	2130
886.240	2277
886.300	2313
886.320	2186
886.400	1769
886.406	1725
886.480	1585
886.511	1552
886.560	1961
886.616	2490
886.640	2258
886.720	1217
886.722	1190
886.800	1811
886.827	1999
886.879	1933
886.932	1940
886.959	2061
887.038	2182
887.039	2188
887.119	2239
887.143	2231
887.198	2407
887.248	2528
887.278	2511
887.354	2501
887.358	2497
887.437	2290
887.459	2200
887.517	2382
887.564	2499
887.596	2219
887.669	1668
887.676	1635
887.755	970
887.774	831
887.835	1098
887.880	1385
887.914	1817
887.985	2522
887.994	2552
888.073	2792
888.090	2867
888.153	3307
888.195	3361
888.232	2586
888.300	1462
888.311	1522
888.391	1688
888.405	1745
888.470	1455
888.510	1211
888.549	1454
888.615	1905
888.628	1980
888.708	2321
888.720	2379
888.787	2432
888.825	2413
888.866	1555
888.930	221
888.945	549
889.024	2302
889.035	2526
889.103	2309
889.140	2184
889.182	2095
889.245	1951
889.261	2053
889.340	2520
889.349	2565
889.419	2639
889.454	2669
889.498	2411
889.559	2044
889.577	2097
889.656	2303
889.664	2320
889.735	2510
889.768	2589
889.814	2516
889.873	2404
889.978	1935
890.083	1797
890.187	1686
890.292	1641
890.397	1464
890.501	2640
890.606	1740
890.710	2359
890.815	3161
890.919	2465
891.024	1197
891.128	2418
891.233	1938
891.337	2179
891.442	1825
891.546	2655
891.650	1489
891.755	2106
891.859	3297
891.963	2732
892.068	2446
892.172	1682
892.276	580
892.380	1722
892.484	2980
892.589	2586
892.693	2167
892.797	1734
892.901	1867
893.005	2521
893.109	3295
893.213	2863
893.317	1970
893.421	1141
893.525	1439
893.629	1048
893.733	1883
893.837	1751
893.941	1590
894.045	1825
894.148	770
894.252	1185
894.356	2954
894.460	3439
894.564	1960
894.667	2298
894.771	1200
894.875	390
894.978	1823
895.082	1816
895.186	2689
895.289	3010
895.393	1843
895.496	2626
895.600	1251
895.703	1194
895.807	1412
895.910	2412
896.014	1594
896.117	2048
896.221	1960
896.324	2424
896.427	1395
896.531	1073
896.634	1129
896.737	1115
896.840	2379
896.944	2428
897.047	1417
897.150	1736
897.253	1331
897.356	1588
897.460	1709
897.563	881
897.666	1863
897.769	2523
897.872	1311
897.975	1691
898.078	1094
898.181	1499
898.284	1174
898.387	2284
898.490	2312
898.593	1410
898.695	1077
898.798	2209
898.901	711
899.004	1664
899.107	838
899.209	2579
899.312	1760
899.415	1903
899.518	1231
899.620	1747
899.723	561
899.826	2772
899.928	1335
900.031	1940
900.133	2270
900.236	1312
900.338	443
900.441	1330
900.543	1213
900.646	1748
900.748	1267
900.851	2328
900.953	1773
901.055	1671
901.158	321
901.260	599
901.362	935
901.465	538
901.567	1960
901.669	2867
901.771	1172
901.873	1687
901.976	1668
902.078	2269
902.180	1178
902.282	1097
902.384	132
902.486	2171
902.588	1339
902.690	518
902.792	1135
902.894	1995
902.996	1817
903.098	2313
903.200	915
903.302	1150
903.404	867
903.505	1758
903.607	1468
903.709	3125
903.811	2073
903.913	1864
904.014	252
904.116	665
904.218	1193
904.319	1857
904.421	2349
904.523	2651
904.624	1125
904.726	1175
904.827	944
904.929	698
905.030	1984
905.132	1954
905.233	1719
905.335	948
905.436	866
905.537	1107
905.639	834
905.740	1203
905.841	1812
905.943	1540
906.044	1771
906.145	996
906.247	545
906.348	1412
906.449	1649
906.550	2311
906.651	1218
906.752	1056
906.854	926
906.955	1508
907.056	945
907.157	1879
907.258	1553
907.359	1012
907.460	385
907.561	918
907.662	1392
907.762	864
907.863	1562
907.964	2799
908.065	1161
908.166	1562
908.267	808
908.367	1248
908.468	1127
908.569	1667
908.670	1475
908.770	974
908.871	1010
908.971	1967
909.072	1183
909.173	1184
909.273	853
909.374	2561
909.474	1389
909.575	419
909.675	794
909.776	2129
909.876	866
909.977	1715
910.077	2158
910.177	1981
910.278	1223
910.378	114
910.478	655
910.579	2601
910.679	1417
910.779	1951
910.879	1833
910.980	1445
911.080	1937
911.180	766
911.280	-267
911.380	1464
911.480	650
911.580	898
911.680	309
911.780	1456
911.880	1107
911.980	700
912.080	1365
912.180	1807
912.280	1075
912.380	1599
912.480	-40
912.580	1768
912.679	962
912.779	1898
912.879	1511
912.979	1408
913.078	1422
913.178	1066
913.278	690
913.377	1375
913.477	1130
913.577	1097
913.676	1932
913.776	2403
913.875	815
913.975	1996
914.074	87
914.174	437
914.273	709
914.373	2334
914.472	1057
914.572	732
914.671	221
914.770	1043
914.870	783
914.969	1186
915.068	1419
915.167	1374
915.267	1636
915.366	1727
915.465	1660
915.564	1993
915.663	1656
915.763	2069
915.862	2357
915.961	1745
916.060	754
916.159	1092
916.258	502
916.357	1082
916.456	1489
916.555	1707
916.654	2148
916.752	1631
916.851	1209
916.950	1398
917.049	541
917.148	1463
917.247	780
917.345	1283
917.444	822
917.543	1826
917.642	1198
917.740	2293
917.839	2337
917.937	2277
918.036	2678
918.135	1303
918.233	1271
918.332	1427
918.430	1177
918.529	1776
918.627	1117
918.726	1965
918.824	936
918.923	1696
919.021	1136
919.119	1204
919.218	984
919.316	1456
919.414	1554
919.512	3162
919.611	2311
919.709	1462
919.807	1651
919.905	2177
920.003	2053
920.102	2435
920.200	2097
920.298	2622
920.396	2918
920.494	1857
920.592	1270
920.690	1825
920.788	2442
920.886	2522
920.984	2666
921.082	2647
921.180	3047
921.277	2946
921.375	3028
921.473	4582
921.571	3458
921.669	4622
921.766	2853
921.864	4834
921.962	3491
922.060	4122
922.157	2789
922.255	4488
922.352	3438
922.450	5319
922.548	4305
922.645	5664
922.743	6850
922.840	10721
922.938	12749
923.035	10370
923.133	10175
923.230	12409
923.327	14453
923.425	12230
923.522	12527
923.619	11965
923.717	10288
923.814	10856
923.911	10079
924.008	11098
924.106	10085
924.203	9413
924.300	10197
924.397	10743
924.494	10408
924.591	10570
924.688	9227
924.786	10628
924.883	9765
924.979	10082
925.077	8975
925.173	9322
925.270	9226
925.367	9798
925.464	10879
925.561	11195
925.658	11166
925.755	9552
925.852	10200
925.948	10287
926.045	9594
926.142	10310
926.239	9589
926.335	8118
926.432	10035
926.529	10194
926.625	10549
926.722	8161
926.818	8380
926.915	10538
927.011	9439
927.108	9715
927.204	9417
927.301	7627
927.397	9346
927.494	10499
927.590	7003
927.687	7841
927.783	10568
927.879	9639
927.976	7623
928.072	8171
928.168	8370
928.264	9424
928.361	8228
928.457	9886
928.553	8077
928.649	7967
928.745	9005
928.841	7470
928.937	8348
929.033	9093
929.129	8124
929.225	9897
929.321	8095
929.417	7780
929.513	8247
929.609	7670
929.705	6270
929.801	9585
929.897	6725
929.993	7348
930.089	8100
930.184	7487
930.280	7837
930.376	9935
930.471	6935
930.567	6232
930.663	7419
930.758	7337
930.854	7465
930.950	6703
931.045	5873
931.141	6892
931.236	9402
931.332	7215
931.427	5510
931.523	9562
931.618	7066
931.714	5109
931.809	5830
931.905	8260
932.000	5549
932.095	5254
932.191	7915
932.286	9690
932.381	6599
932.476	5567
932.572	6106
932.667	6197
932.762	4952
932.857	6922
932.952	8027
933.047	7366
933.142	4888
933.237	7383
933.332	6305
933.427	7900
933.522	5754
933.617	5736
933.712	5725
933.807	7517
933.902	7516
933.997	8096
934.092	4206
934.187	6144
934.282	5707
934.376	5933
934.471	5953
934.566	6012
934.661	4860
934.755	7382
934.850	7207
934.945	5236
935.039	4634
935.134	5422
935.228	5494
935.323	9384
935.417	5721
935.512	3884
935.606	3967
935.701	6199
935.795	6735
935.890	6205
935.984	4982
936.079	4641
936.173	4635
936.267	4008
936.362	4539
936.456	6277
936.550	7073
936.644	6035
936.738	3911
936.833	4695
936.927	3323
937.021	4312
937.115	5038
937.209	5193
937.303	5666
937.397	4488
937.491	5425
937.585	6466
937.679	5653
937.773	4972
937.867	4209
937.961	3880
938.055	6303
938.149	6120
938.243	3316
938.337	3874
938.430	4118
938.524	6298
938.618	4543
938.712	3896
938.805	3880
938.899	6574
938.993	5774
939.086	4413
939.180	2943
939.274	3888
939.367	5286
939.461	5470
939.554	4226
939.648	3844
939.741	4255
939.835	5483
939.928	6921
940.022	4975
940.115	4005
940.208	5775
940.302	6436
940.395	6197
940.488	3634
940.582	4844
940.675	3075
940.768	4394
940.861	5310
940.954	5693
941.048	2810
941.141	2663
941.234	3775
941.327	4102
941.420	4565
941.513	5203
941.606	2940
941.699	4202
941.792	5155
941.885	4165
941.978	4929
942.071	4224
942.164	2330
942.257	3554
942.349	4289
942.442	5354
942.535	2075
942.628	4052
942.721	4134
942.813	3874
942.906	4336
942.999	4396
943.091	2790
943.184	4205
943.277	3550
943.369	2996
943.462	2240
943.554	3624
943.647	3626
943.739	5543
943.832	4316
943.924	1231
944.017	2021
944.109	2963
944.201	3751
944.294	3915
944.386	3785
944.478	3256
944.571	2865
944.663	2099
944.755	3310
944.847	3929
944.940	3408
945.032	2230
945.124	2106
945.216	4305
945.308	3428
945.400	3256
945.492	2437
945.584	3930
945.676	4728
945.768	3557
945.860	3790
945.952	4723
946.044	3638
946.136	2405
946.228	2580
946.320	3418
946.412	2982
946.503	4245
946.595	4908
946.687	2370
946.779	1814
946.870	2124
946.962	2747
947.054	3386
947.145	3853
947.237	2633
947.329	2514
947.420	3024
947.512	3068
947.603	2006
947.695	2860
947.786	2588
947.878	2186
947.969	3275
948.061	2341
948.152	3375
948.243	1379
948.335	2350
948.426	1951
948.517	3109
948.609	3702
948.700	3482
948.791	2833
948.882	1710
948.973	1737
949.065	3096
949.156	3055
949.247	1680
949.338	2140
949.429	1207
949.520	1861
949.611	2614
949.702	2614
949.793	2758
949.884	3200
949.975	2763
950.066	1221
950.157	2133
950.247	1488
950.338	1913
950.429	2220
950.520	2334
950.611	2096
950.701	2493
950.792	3720
950.883	3464
950.973	1591
951.064	2371
951.155	2833
951.245	3589
951.336	2276
951.427	2792
951.517	3585
951.608	2648
951.698	1895
951.788	1947
951.879	522
951.969	2295
952.060	1639
952.150	2481
952.240	3365
952.331	2366
952.421	3385
952.511	976
952.602	1455
952.692	1475
952.782	1928
952.872	2096
952.962	3266
953.052	1545
953.143	1645
953.233	2186
953.323	2253
953.413	2201
953.503	2412
953.593	1958
953.683	1101
953.773	632
953.863	1102
953.953	1714
954.042	1876
954.132	1839
954.222	2296
954.312	1673
954.402	1502
954.492	2701
954.581	1859
954.671	1738
954.761	644
954.850	3177
954.940	767
955.030	1659
955.119	1259
955.209	2220
955.298	1804
955.388	2380
955.477	2846
955.567	1513
955.656	1512
955.746	2280
955.835	1200
955.925	1795
956.014	2000
956.103	2747
956.193	2660
956.282	2025
956.371	2029
956.461	2163
956.550	1796
956.639	1548
956.728	1361
956.817	2168
956.906	1741
956.995	3175
957.085	1118
957.174	2255
957.263	2165
957.352	2527
957.441	1394
957.530	1141
957.619	1104
957.708	932
957.796	1291
957.885	1717
957.974	1178
958.063	2203
958.152	-245
958.241	1487
958.329	1042
958.418	1777
958.507	275
958.596	3231
958.684	978
958.773	2010
958.861	1139
958.950	184
959.039	1250
959.127	1732
959.216	1194
959.304	1723
959.393	1161
959.481	3162
959.570	389
959.658	1528
959.746	758
959.835	1621
959.923	1510
960.011	834
960.100	886
960.188	1545
960.276	815
960.365	488
960.453	158
960.541	283
960.629	271
960.717	887
960.805	184
960.893	1338
960.981	1142
961.069	2879
961.158	854
961.245	2621
961.333	1937
961.421	1872
961.509	1526
961.597	1717
961.685	780
961.773	1724
961.861	1212
961.949	3162
962.036	807
962.124	1765
962.212	955
962.299	1224
962.387	87
962.475	1228
962.562	129
962.650	1965
962.738	771
962.825	1175
962.913	281
963.000	647
963.088	1848
963.175	1395
963.263	944
963.350	920
963.438	1139
963.525	1440
963.612	1440
963.700	302
963.787	1249
963.874	934
963.962	497
964.049	1347
964.136	701
964.223	1023
964.310	1308
964.398	1171
964.485	91
964.572	1450
964.659	1101
964.746	738
964.833	2
964.920	772
965.007	307
965.094	992
965.181	843
965.268	1768
965.355	1106
965.441	1394
965.528	-582
965.615	1547
965.702	725
965.789	1436
965.875	547
965.962	1676
966.049	527
966.136	1404
966.222	1515
966.309	2576
966.395	1116
966.482	1804
966.569	1532
966.655	2019
966.742	1348
966.828	1895
966.915	423
967.001	820
967.087	-339
967.174	-297
967.260	1242
967.347	981
967.433	250
967.519	649
967.605	499
967.692	950
967.778	630
967.864	1153
967.950	1319
968.036	441
968.123	1813
968.209	565
968.295	-584
968.381	2363
968.467	420
968.553	-21
968.639	1264
968.725	265
968.811	734
968.897	1932
968.983	840
969.069	-142
969.154	1102
969.240	1202
969.326	19
969.412	849
969.497	1120
969.583	312
969.669	1385
969.755	1460
969.840	531
969.926	2781
970.012	2782
970.097	3674
970.183	2419
970.268	1800
970.354	619
970.439	713
970.525	1273
970.610	803
970.696	1621
970.781	500
970.866	-621
970.952	1668
971.037	370
971.122	314
971.208	801
971.293	1081
971.378	-264
971.463	845
971.549	448
971.634	406
971.719	519
971.804	1008
971.889	946
971.974	647
972.059	486
972.144	1442
972.229	579
972.314	692
972.399	1209
972.484	426
972.569	-166
972.654	-525
972.739	994
972.824	-255
972.908	388
972.993	467
973.078	887
973.163	693
973.247	32
973.332	-190
973.417	1547
973.501	500
973.586	842
973.671	800
973.755	222
973.840	1566
973.924	1638
974.009	1958
974.093	1762
974.178	2002
974.262	1147
974.346	887
974.431	104
974.515	232
974.600	424
974.684	771
974.768	343
974.852	1629
974.937	-40
975.021	1555
975.105	279
975.189	481
975.273	656
975.358	224
975.442	-72
975.526	1601
975.610	-188
975.694	358
975.778	902
975.862	542
975.946	-2216
976.030	1694
976.114	-61
976.198	355
976.281	550
976.365	2117
976.449	-263
976.533	687
976.617	481
976.700	81
976.784	375
976.868	466
976.951	296
977.035	79
977.119	507
977.202	663
977.286	949
977.369	2583
977.453	3296
977.536	1730
977.620	955
977.703	2078
977.787	654
977.870	1880
977.953	1137
978.037	73
978.120	964
978.203	178
978.287	408
978.370	1463
978.453	10
978.536	1190
978.620	846
978.703	575
978.786	127
978.869	340
978.952	-387
979.035	2587
979.118	804
979.201	418
979.284	815
979.367	607
979.450	868
979.533	480
979.616	666
979.699	691
979.782	55
979.865	761
979.948	744
980.030	273
980.113	-237
980.196	-47
980.279	538
980.361	408
980.444	499
980.526	2161
980.609	1237
980.692	3104
980.774	2620
980.857	950
980.939	2022
981.022	1537
981.104	1120
981.187	371
981.269	1460
981.352	875
981.434	-105
981.516	523
981.599	1621
981.681	1893
981.763	519
981.846	222
981.928	564
982.010	745
982.092	345
982.174	1377
982.256	298
982.339	859
982.421	1097
982.503	1397
982.585	-111
982.667	1423
982.749	766
982.831	1045
982.913	202
982.995	1319
983.077	219
983.158	2439
983.240	704
983.322	1847
983.404	3536
983.486	1334
983.568	2758
983.649	1623
983.731	2521
983.813	1426
983.894	1537
983.976	1403
984.058	695
984.139	2252
984.221	146
984.302	1509
984.384	940
984.465	894
984.547	2117
984.628	714
984.710	1545
984.791	1841
984.872	814
984.954	1503
985.035	959
985.116	724
985.198	591
985.279	2772
985.360	407
985.441	1615
985.522	1469
985.604	1540
985.685	-558
985.766	2480
985.847	2785
985.928	1165
986.009	729
986.090	1202
986.171	598
986.252	1766
986.333	1516
986.414	1384
986.495	945
986.576	2048
986.656	1150
986.737	1624
986.818	1284
986.899	1608
986.980	890
987.060	2317
987.141	1359
987.222	2082
987.302	2457
987.383	2953
987.464	1493
987.544	2941
987.625	2211
987.705	3091
987.786	2259
987.866	2669
987.947	1977
988.027	2665
988.108	1636
988.188	2570
988.268	2407
988.349	2058
988.429	1964
988.509	2199
988.589	860
988.670	1026
988.750	2526
988.830	1541
988.910	1921
988.990	2028
989.070	1180
989.151	1812
989.231	887
989.311	2504
989.391	1642
989.471	2142
989.551	802
989.631	1542
989.711	2544
989.791	2108
989.870	1657
989.950	2341
990.030	1272
990.110	1842
990.190	502
990.269	2142
990.349	1388
990.429	2130
990.509	1637
990.588	777
990.668	1233
990.747	1512
990.827	803
990.907	2057
990.986	1969
991.066	1604
991.145	180
991.225	2143
991.304	728
991.383	1666
991.463	-68
991.542	1386
991.622	637
991.701	1049
991.780	422
991.859	1003
991.939	729
992.018	1022
992.097	430
992.176	942
992.256	1317
992.335	493
992.414	1655
992.493	523
992.572	534
992.651	1730
992.730	939
992.809	1003
992.888	85
992.967	1078
993.046	174
993.125	-726
993.203	1307
993.282	1148
993.361	1121
993.440	1041
993.519	-726
993.597	786
993.676	4
993.755	1560
993.834	645
993.912	325
993.991	441
994.069	-237
994.148	1091
994.226	980
994.305	417
994.384	1129
994.462	1256
994.540	-191
994.619	-445
994.697	1087
994.776	241
994.854	1183
994.932	-337
995.011	414
995.089	-667
995.167	734
995.245	776
995.324	73
995.402	899
995.480	-102
995.558	-589
995.636	-127
995.714	-289
995.792	838
995.870	-154
995.948	801
996.026	-596
996.104	318
996.182	152
996.260	-622
996.338	170
996.416	-411
996.494	-130
996.572	1190
996.649	-104
996.727	-301
996.805	520
996.883	-509
996.960	-830
997.038	584
997.116	513
997.193	162
997.271	450
997.348	-730
997.426	829
997.504	-207
997.581	411
997.658	446
997.736	-1030
997.813	-230
997.891	-747
997.968	498
998.046	90
998.123	-345
998.200	-78
998.277	-1014
998.355	123
998.432	-1075
998.509	-910
998.586	757
998.663	-161
998.741	148
998.818	-1162
998.895	-72
998.972	-254
999.049	1155
999.126	-1175
999.203	397
999.280	195
999.357	-359
999.434	-365
999.511	79
999.587	-453
999.664	-816
999.741	32
999.818	738
999.895	-404
999.971	-656
1000.048	-928
1000.125	493
1000.202	-288
1000.278	-956
1000.355	-808
1000.431	-510
1000.508	-993
1000.584	-659
1000.661	-410
1000.738	-127
1000.814	-1069
1000.890	449
1000.967	-736
1001.043	2
1001.120	-1390
1001.196	242
1001.272	-1432
1001.349	-271
1001.425	235
1001.501	649
1001.577	-1684
1001.654	322
1001.730	-520
1001.806	-999
1001.882	-1348
1001.958	284
1002.034	-31
1002.110	-782
1002.186	-819
1002.262	-825
1002.338	-1092
1002.414	110
1002.490	-458
1002.566	-975
1002.642	-1945
1002.718	-213
1002.794	-693
1002.870	-454
1002.945	-902
1003.021	-467
1003.097	-1129
1003.173	57
1003.248	-647
1003.324	-353
1003.400	-867
1003.475	-1227
1003.551	-1488
1003.626	282
1003.702	-1918
1003.777	-916
1003.853	-1551
1003.928	-958
1004.004	-310
1004.079	-1247
1004.155	-481
1004.230	-1005
1004.305	267
1004.381	-993
1004.456	-1230
1004.531	-755
1004.607	-689
1004.682	-332
1004.757	-1193
1004.832	-581
1004.907	-1936
1004.982	162
1005.057	-944
1005.133	-1190
1005.208	-803
1005.283	-863
1005.358	-33
1005.433	-1330
1005.508	-973
1005.583	-1434
1005.657	-1228
1005.732	24
1005.807	-1351
1005.882	-779
1005.957	-796
1006.032	-394
1006.106	-1061
1006.181	-420
1006.256	-126
1006.331	-1440
1006.405	-1912
1006.480	-1144
1006.554	-1718
1006.629	-645
1006.704	-1569
1006.778	-754
1006.853	-515
1006.927	-1359
1007.002	-1713
1007.076	-1121
1007.150	-1162
1007.225	-477
1007.299	-974
1007.373	-1297
1007.448	-1089
1007.522	123
1007.596	-872
1007.671	-1237
1007.745	-1354
1007.819	-1416
1007.893	-1266
1007.967	-1169
1008.041	-2622
1008.115	-136
1008.190	-1502
1008.264	-933
1008.338	-2257
1008.412	-1416
1008.486	-1108
1008.560	-1424
1008.633	-1603
1008.707	-786
1008.781	-341
1008.855	-1056
1008.929	-1139
1009.003	-1325
1009.076	-1068
1009.150	-789
1009.224	-1399
1009.298	-1260
1009.371	-2069
1009.445	-550
1009.519	-1293
1009.592	-1539
1009.666	-1510
1009.739	-538
1009.813	-1989
1009.886	157
1009.960	-2229
1010.033	-364
1010.107	-697
1010.180	-1811
1010.253	-1485
1010.327	-1878
1010.400	-1109
1010.473	-1521
1010.547	-9
1010.620	-1258
1010.693	-1328
1010.766	-878
1010.840	-1092
1010.913	-1152
1010.986	-1572
1011.059	-1325
1011.132	-2015
1011.205	-1284
1011.278	-1488
1011.351	-677
1011.424	-1136
1011.497	-1477
1011.570	-1581
1011.643	-759
1011.716	-1832
1011.789	-1446
1011.862	-1845
1011.934	-1841
1012.007	-3054
1012.080	-1218
1012.153	-1839
1012.225	-261
1012.298	-1997
1012.371	-1559
1012.443	-1262
1012.516	-1372
1012.588	-1976
1012.661	-643
1012.733	-2161
1012.806	-900
1012.879	-1691
1012.951	-610
1013.023	-1660
1013.096	-635
1013.168	-2004
1013.241	-675
1013.313	-925
1013.385	-1887
1013.458	-1506
1013.530	-313
1013.602	-3254
1013.674	-211
1013.746	-2060
1013.819	-1551
1013.891	-1405
1013.963	-1600
1014.035	-1413
1014.107	-1679
1014.179	-1341
1014.251	-1197
1014.323	-1473
1014.395	-724
1014.467	-1670
1014.539	-939
1014.611	-2330
1014.683	-1102
1014.754	-1814
1014.826	-1867
1014.898	-1574
1014.970	-1539
1015.042	-799
1015.113	-1476
1015.185	-945
1015.257	-1561
1015.328	-1019
1015.400	-1371
1015.471	-2016
1015.543	-1520
1015.615	-2038
1015.686	-752
1015.757	-1565
1015.829	-972
1015.901	-2712
1015.972	-1907
1016.043	-1733
1016.115	-2012
1016.186	-1062
1016.257	-2348
1016.328	-1727
1016.400	-1043
1016.471	-2088
1016.542	-1473
1016.613	-1366
1016.685	-1054
1016.756	-916
1016.827	-1410
1016.898	-2457
1016.969	-1054
1017.040	-2157
1017.111	-1975
1017.182	-1947
1017.253	-1498
1017.324	-1491
1017.395	-1990
1017.466	-726
1017.537	-1142
1017.608	-1583
1017.678	-1696
1017.749	-1063
1017.820	-1561
1017.891	-2331
1017.961	-1869
1018.032	-1902
1018.103	-1198
1018.173	-2055
1018.244	-1674
1018.315	-1753
1018.385	-918
1018.456	-1537
1018.526	-1978
1018.597	-1517
1018.667	-1260
1018.738	-2089
1018.808	-113
1018.878	-1928
1018.949	-1461
1019.019	-1710
1019.089	-1427
1019.160	-1051
1019.230	-1696
1019.300	-1891
1019.371	-2318
1019.441	-1425
1019.511	-1236
1019.581	-1747
1019.651	-1361
1019.721	-1550
1019.791	-1650
1019.861	-1719
1019.931	-1499
1020.001	-1581
1020.071	-1065
1020.141	-2231
1020.211	-879
1020.281	-2345
1020.351	-870
1020.421	-1558
1020.491	-1086
1020.560	-2029
1020.630	-1081
1020.700	-1120
1020.770	-2448
1020.839	-1602
1020.909	-1249
1020.979	-2029
1021.048	-1561
1021.118	-2665
1021.187	-2162
1021.257	-1234
1021.326	-1075
1021.396	-2110
1021.465	-1033
1021.535	-2455
1021.604	-1910
1021.674	-1830
1021.743	-1886
1021.812	-1744
1021.882	-1671
1021.951	-1529
1022.020	-1123
1022.089	-2037
1022.159	-1511
1022.228	-1434
1022.297	-923
1022.366	-2639
1022.435	-1147
1022.504	-2345
1022.573	-1365
1022.642	-1836
1022.711	-1435
1022.781	-1355
1022.849	-1460
1022.918	-2118
1022.987	-1043
1023.056	-2698
1023.125	-1682
1023.194	-1945
1023.263	-1099
1023.331	-1750
1023.400	-1493
1023.469	-2229
1023.538	-945
1023.606	-1550
1023.675	-1302
1023.744	-1997
1023.812	-2146
1023.881	-704
1023.949	-1785
1024.018	-1406
1024.086	-2096
1024.155	-2399
1024.223	-2772
1024.292	-2080
1024.360	-1650
1024.429	-2661
1024.497	-2672
1024.565	-1980
1024.634	-1884
1024.702	-2414
1024.770	-1553
1024.838	-2126
1024.907	-1328
1024.975	-1862
1025.043	-1655
1025.111	-2667
1025.179	-2281
1025.247	-2042
1025.315	-2290
1025.383	-1974
1025.451	-1504
1025.519	-2450
1025.587	-1684
1025.655	-1334
1025.723	-1604
1025.791	-2270
1025.859	-1995
1025.927	-1833
1025.995	-1416
1026.062	-2304
1026.130	-1561
1026.198	-2492
1026.266	-1635
1026.333	-1808
1026.401	-1236
1026.469	-1837
1026.536	-1713
1026.604	-1903
1026.671	-1631
1026.739	-1789
1026.806	-2015
1026.874	-2847
1026.941	-2304
1027.009	-1616
1027.076	-2070
1027.144	-2006
1027.211	-1384
1027.278	-2448
1027.345	-2065
1027.413	-2615
1027.480	-1344
1027.547	-2149
1027.614	-1816
1027.682	-1994
1027.749	-1409
1027.816	-2171
1027.883	-1998
1027.950	-2062
1028.017	-1871
1028.084	-1739
1028.151	-2070
1028.218	-2346
1028.285	-1482
1028.352	-2344
1028.419	-1715
1028.486	-1387
1028.553	-1193
1028.619	-2000
1028.686	-1334
1028.753	-1568
1028.820	-1577
1028.886	-2377
1028.953	-1280
1029.020	-2014
1029.086	-1087
1029.153	-2352
1029.220	-1694
1029.286	-2313
1029.353	-2402
1029.419	-1835
1029.486	-1810
1029.552	-2101
1029.619	-2064
1029.685	-1939
1029.751	-1941
1029.818	-1980
1029.884	-1849
1029.951	-1423
1030.017	-1835
1030.083	-1851
1030.149	-1705
1030.216	-2325
1030.282	-1215
1030.348	-2223
1030.414	-1908
1030.480	-2709
1030.546	-1590
1030.612	-2140
1030.678	-1382
1030.744	-2506
1030.810	-2426
1030.876	-1511
1030.942	-1785
1031.008	-2683
1031.074	-2281
1031.140	-1717
1031.206	-1418
1031.272	-2148
1031.337	-1232
1031.403	-1646
1031.469	-1131
1031.534	-2354
1031.600	-1884
1031.666	-2316
1031.731	-876
1031.797	-2094
1031.863	-1475
1031.928	-1946
1031.994	-1341
1032.059	-2220
1032.125	-2185
1032.190	-2184
1032.256	-1776
1032.321	-1709
1032.386	-1815
1032.452	-2383
1032.517	-1832
1032.582	-2032
1032.647	-1921
1032.713	-1469
1032.778	-1583
1032.843	-2086
1032.908	-1143
1032.974	-2152
1033.039	-1920
1033.104	-1711
1033.169	-2146
1033.234	-2216
1033.299	-1527
1033.364	-2118
1033.429	-1731
1033.494	-1777
1033.559	-1609
1033.624	-1687
1033.688	-2048
1033.753	-1978
1033.818	-865
1033.883	-1689
1033.948	-1637
1034.013	-1509
1034.077	-1418
1034.142	-937
1034.207	185
1034.271	911
1034.336	830
1034.400	223
1034.465	-432
1034.530	-1304
1034.594	-1330
1034.658	-1918
1034.723	-1106
1034.787	-2096
1034.852	-1355
1034.916	-2438
1034.981	-1917
1035.045	-2720
1035.109	-1885
1035.173	-1585
1035.238	-2224
1035.302	-2081
1035.366	-1353
1035.430	-1924
1035.495	-1637
1035.559	-2176
1035.623	-2218
1035.687	-2027
1035.751	-1869
1035.815	-2038
1035.879	-1823
1035.943	-1870
1036.007	-1511
1036.071	-2468
1036.135	-2064
1036.198	-2510
1036.262	-2071
1036.326	-1638
1036.390	-1161
1036.454	-2319
1036.517	-1127
1036.581	-1866
1036.645	-1260
1036.709	-1306
1036.772	-1534
1036.836	-2160
1036.900	-2138
1036.963	-2225
1037.026	-1472
1037.090	-1180
1037.154	-1471
1037.217	-2864
1037.280	-1952
1037.344	-2219
1037.407	-1417
1037.471	-2093
1037.534	-1694
1037.597	-1679
1037.661	-1573
1037.724	-1726
1037.787	-1905
1037.850	-1974
1037.913	-1985
1037.977	-2241
1038.040	-1715
1038.103	-2063
1038.166	-1774
1038.229	-2354
1038.292	-986
1038.355	-2411
1038.418	-2170
1038.481	-1636
1038.544	-2024
1038.607	-2168
1038.670	-1688
1038.732	-2196
1038.795	-1747
1038.858	-1917
1038.921	-1751
1038.984	-1314
1039.046	-2464
1039.109	-1600
1039.172	-2354
1039.234	-2673
1039.297	-1739
1039.360	-1658
1039.422	-1771
1039.485	-2278
1039.547	-2085
1039.610	-1897
1039.672	-1281
1039.734	-1507
1039.797	-1708
1039.859	-1970
1039.922	-1789
1039.984	-2690
1040.046	-1852
1040.109	-2338
1040.171	-2389
1040.233	-2169
1040.295	-2187
1040.358	-2237
1040.420	-1863
1040.482	-2427
1040.544	-1400
1040.606	-1399
1040.668	-1173
1040.730	-1742
1040.792	-2166
1040.854	-2081
1040.916	-2119
1040.978	-2346
1041.040	-1201
1041.102	-1974
1041.164	-1803
1041.225	-2579
1041.287	-2550
1041.349	-1620
1041.411	-2216
1041.472	-1793
1041.534	-2035
1041.596	-2761
1041.657	-1413
1041.719	-1708
1041.781	-2268
1041.842	-2172
1041.904	-1771
1041.965	-2632
1042.027	-2194
1042.088	-2556
1042.150	-671
1042.211	-2592
1042.272	-1155
1042.334	-2548
1042.395	-1744
1042.456	-1921
1042.518	-2127
1042.579	-2266
1042.640	-1434
1042.701	-2289
1042.763	-1427
1042.824	-2253
1042.885	-1967
1042.946	-2267
1043.007	-1884
1043.068	-1811
1043.129	-1657
1043.190	-2523
1043.251	-1559
1043.312	-2100
1043.373	-1326
1043.434	-2679
1043.495	-1503
1043.556	-2002
1043.616	-1727
1043.677	-2073
1043.738	-1134
1043.799	-2336
1043.859	-1621
1043.920	-1812
1043.981	-1611
1044.041	-1420
1044.102	-1725
1044.162	-2363
1044.223	-1214
1044.284	-1586
1044.344	-1743
1044.405	-1830
1044.465	-1578
1044.525	-2809
1044.586	-1744
1044.646	-1153
1044.707	-1653
1044.767	-1822
1044.827	-1831
1044.887	-1104
1044.948	-1074
1045.008	-1434
1045.068	-1994
1045.128	-1033
1045.188	-2350
1045.249	-1776
1045.309	-1603
1045.369	-2145
1045.429	-1535
1045.489	-1896
1045.549	-750
1045.609	-1817
1045.669	-1640
1045.729	-1228
1045.789	-1734
1045.848	-1868
1045.908	-1452
1045.968	-1473
1046.028	-2018
1046.088	-1216
1046.147	-1054
1046.207	-1027
1046.267	-1038
1046.326	-1439
1046.386	-1962
1046.446	-1519
1046.505	-1226
1046.565	-400
1046.624	-784
1046.684	-997
1046.743	-381
1046.803	-261
1046.862	-559
1046.922	0
