'Start Wavelength	183.907
'End Wavelength	1046.922
'Gate Delay	5.000
'Gate Width (ms)	1.050
'Laser Output Level	0.000
'X Position	0.000
'Y Position	0.000
'Z Position	0.000
'Grid Point Number	1.000
'Shot Number	100.000
183.907	369.000
183.977	-85.000
184.047	116
184.116	-183
184.186	346
184.256	44
184.325	307
184.395	-1384
184.465	1359
184.534	198
184.604	-68
184.674	35
184.743	59
184.813	199
184.883	272
184.952	146
185.022	546
185.092	-97
185.161	-226
185.231	-532
185.301	-311
185.370	-278
185.440	328
185.509	-238
185.579	636
185.649	284
185.718	471
185.788	946
185.857	-330
185.927	240
185.996	223
186.066	233
186.136	208
186.205	-36
186.275	413
186.344	417
186.414	751
186.483	-759
186.553	1319
186.622	463
186.692	290
186.761	206
186.831	276
186.900	-254
186.970	400
187.039	407
187.109	460
187.178	-216
187.248	705
187.317	318
187.387	-308
187.456	-185
187.526	115
187.595	-367
187.664	-410
187.734	-311
187.803	534
187.873	-23
187.942	583
188.012	-882
188.081	832
188.150	-492
188.220	-197
188.289	121
188.358	151
188.428	-68
188.497	106
188.567	19
188.636	32
188.705	-42
188.775	390
188.844	-522
188.913	362
188.983	-688
189.052	415
189.121	-417
189.191	203
189.260	-280
189.329	-127
189.399	-75
189.468	-26
189.537	-66
189.606	887
189.676	-109
189.745	269
189.814	537
189.883	-413
189.953	-467
190.022	41
190.091	-64
190.161	-242
190.230	1178
190.299	-131
190.368	-692
190.437	474
190.507	-68
190.576	659
190.645	-413
190.714	-125
190.783	-513
190.853	50
190.922	112
190.991	-768
191.060	-67
191.129	-498
191.198	227
191.268	-99
191.337	-628
191.406	1038
191.475	538
191.544	136
191.613	91
191.682	-163
191.752	-547
191.821	-633
191.890	-336
191.959	102
192.028	149
192.097	95
192.166	-297
192.235	-261
192.304	-98
192.373	-303
192.442	-223
192.511	737
192.580	363
192.650	74
192.719	-77
192.788	-60
192.857	404
192.926	-627
192.995	185
193.064	-142
193.133	-753
193.202	-57
193.271	85
193.340	292
193.409	-275
193.478	389
193.547	470
193.615	-151
193.684	-363
193.753	518
193.822	35
193.891	-38
193.960	210
194.029	-391
194.098	-270
194.167	517
194.236	526
194.305	-131
194.374	16
194.443	692
194.512	-159
194.580	444
194.649	474
194.718	-110
194.787	23
194.856	-393
194.925	-142
194.994	52
195.062	342
195.131	-408
195.200	216
195.269	-308
195.338	10
195.407	579
195.475	-538
195.544	66
195.613	-302
195.682	803
195.751	-961
195.819	221
195.888	-313
195.957	1248
196.026	-500
196.094	538
196.163	-192
196.232	317
196.301	-373
196.369	539
196.438	170
196.507	-349
196.576	-215
196.644	-166
196.713	204
196.782	556
196.850	544
196.919	149
196.988	302
197.056	-108
197.125	-175
197.194	567
197.262	-177
197.331	-171
197.400	-870
197.468	375
197.537	-685
197.606	-353
197.674	-904
197.743	61
197.812	-721
197.880	-69
197.949	-369
198.017	56
198.086	-774
198.155	-256
198.223	-229
198.292	-617
198.360	-476
198.429	137
198.497	-666
198.566	-108
198.635	-738
198.703	-177
198.772	-123
198.840	-498
198.909	-327
198.977	454
199.046	16
199.114	131
199.183	-169
199.251	68
199.320	-278
199.388	495
199.457	384
199.525	-353
199.594	-577
199.662	-475
199.731	-311
199.799	85
199.867	-528
199.936	222
200.004	489
200.073	376
200.141	-779
200.210	-27
200.278	-385
200.346	134
200.415	40
200.483	-107
200.552	-618
200.620	76
200.688	-225
200.757	-626
200.825	-283
200.893	492
200.962	-304
201.030	199
201.098	-262
201.167	-171
201.235	38
201.303	-316
201.372	-947
201.440	201
201.508	444
201.577	170
201.645	-559
201.713	-138
201.781	-67
201.850	303
201.918	-139
201.986	-568
202.055	-240
202.123	-4
202.191	-698
202.259	-622
202.327	-441
202.396	751
202.464	378
202.532	92
202.600	192
202.669	-155
202.737	-565
202.805	-440
202.873	-304
202.941	-235
203.009	-672
203.078	45
203.146	-514
203.214	-164
203.282	-1151
203.350	522
203.418	-887
203.487	39
203.555	-813
203.623	-183
203.691	58
203.759	-602
203.827	-161
203.895	245
203.963	-682
204.031	31
204.099	-71
204.168	-47
204.236	21
204.304	-402
204.372	-945
204.440	-578
204.508	-676
204.576	-275
204.644	433
204.712	390
204.780	238
204.848	22
204.916	-115
204.984	210
205.052	-723
205.120	-734
205.188	-735
205.256	223
205.324	-298
205.392	-149
205.460	-44
205.528	28
205.596	-1340
205.664	-729
205.732	-498
205.799	-647
205.867	-544
205.935	-357
206.003	-256
206.071	-280
206.139	-1165
206.207	456
206.275	-977
206.343	249
206.411	-309
206.478	2
206.546	521
206.614	-11
206.682	-1583
206.750	-274
206.818	120
206.885	478
206.953	-1171
207.021	610
207.089	455
207.157	-267
207.225	12
207.292	215
207.360	-575
207.428	-297
207.496	-1251
207.563	898
207.631	-154
207.699	-982
207.767	-165
207.834	-486
207.902	-429
207.970	-517
208.038	-462
208.105	238
208.173	-567
208.241	-35
208.309	65
208.376	-95
208.444	-1061
208.512	-392
208.579	-911
208.647	324
208.715	-178
208.782	130
208.850	-718
208.918	-23
208.985	-646
209.053	-383
209.120	-379
209.188	-97
209.256	-237
209.323	-780
209.391	-373
209.459	696
209.526	54
209.594	-133
209.661	-318
209.729	-279
209.796	273
209.864	-134
209.932	-1274
209.999	539
210.067	24
210.134	-67
210.202	-618
210.269	471
210.337	-58
210.404	-339
210.472	-316
210.539	315
210.607	-1096
210.674	-435
210.742	-962
210.809	-497
210.877	-1742
210.944	379
211.012	-1090
211.079	1482
211.146	-350
211.214	745
211.281	-110
211.349	734
211.416	-129
211.484	224
211.551	-822
211.618	381
211.686	-1
211.753	-837
211.821	-391
211.888	-581
211.955	75
212.023	-547
212.090	141
212.157	-947
212.225	-351
212.292	427
212.359	-1367
212.427	67
212.494	-957
212.561	-290
212.629	-813
212.696	-571
212.763	-716
212.831	-1448
212.898	-310
212.965	-38
213.032	-502
213.100	-266
213.167	-741
213.234	481
213.301	-542
213.369	174
213.436	-1158
213.503	-1414
213.570	-304
213.638	-368
213.705	-324
213.772	-316
213.839	-632
213.906	464
213.973	-564
214.041	-683
214.108	566
214.175	-640
214.242	-1050
214.309	-191
214.376	-321
214.444	-530
214.511	-810
214.578	-254
214.645	-669
214.712	167
214.779	-698
214.846	-523
214.913	-629
214.980	688
215.048	-164
215.115	482
215.182	-428
215.249	-328
215.316	-1336
215.383	312
215.450	-1040
215.517	-179
215.584	-474
215.651	-556
215.718	-265
215.785	421
215.852	-1307
215.919	-860
215.986	-191
216.053	197
216.120	-1701
216.187	117
216.254	-478
216.321	-470
216.388	-950
216.455	176
216.522	-743
216.589	103
216.656	-532
216.722	-110
216.789	-580
216.856	-786
216.923	-474
216.990	-327
217.057	-720
217.124	-194
217.191	-1168
217.258	-253
217.324	-1067
217.391	-683
217.458	-522
217.525	-100
217.592	149
217.659	-1798
217.725	-29
217.792	21
217.859	69
217.926	-530
217.993	-995
218.059	185
218.126	-876
218.193	133
218.260	-253
218.327	-734
218.393	-800
218.460	-143
218.527	-1422
218.594	-636
218.660	-867
218.727	9
218.794	-809
218.860	-489
218.927	-971
218.994	223
219.061	-478
219.127	-450
219.194	-943
219.261	140
219.327	-1097
219.394	695
219.461	-2020
219.527	-48
219.594	-830
219.661	-822
219.727	-1532
219.794	702
219.860	-909
219.927	584
219.994	552
220.060	852
220.127	564
220.193	809
220.260	-487
220.326	64
220.393	-1054
220.460	-588
220.526	-617
220.593	-717
220.659	284
220.726	-252
220.792	-865
220.859	-942
220.925	-878
220.992	-555
221.058	-123
221.125	-1160
221.191	-1082
221.258	-302
221.324	-653
221.391	-384
221.457	-1082
221.524	-965
221.590	-1106
221.657	-377
221.723	-779
221.789	-466
221.856	257
221.922	-1879
221.989	-879
222.055	403
222.121	-862
222.188	1089
222.254	-744
222.321	-586
222.387	-1204
222.453	82
222.520	-997
222.586	-344
222.652	-729
222.719	-1603
222.785	-161
222.851	-458
222.918	-244
222.984	-772
223.050	-342
223.116	-1891
223.183	328
223.249	-754
223.315	-1160
223.382	-116
223.448	-305
223.514	-1074
223.580	-1139
223.647	-1276
223.713	-727
223.779	-612
223.845	-911
223.911	36
223.978	-1239
224.044	-656
224.110	-897
224.176	-104
224.242	-785
224.309	-323
224.375	-91
224.441	369
224.507	-646
224.573	-817
224.639	-654
224.705	-968
224.772	-951
224.838	-252
224.904	-333
224.970	100
225.036	-705
225.102	-1119
225.168	-283
225.234	203
225.300	-947
225.366	205
225.432	-125
225.499	515
225.565	-783
225.631	-601
225.697	-839
225.763	-8
225.829	-401
225.895	-648
225.961	-1083
226.027	-696
226.093	-1633
226.159	228
226.225	-626
226.291	264
226.357	-453
226.423	-673
226.489	-527
226.554	-294
226.620	-521
226.686	-350
226.752	-954
226.818	-600
226.884	-264
226.950	-194
227.016	-960
227.082	-196
227.148	-622
227.214	-775
227.279	-756
227.345	-759
227.411	-47
227.477	-47
227.543	921
227.609	2625
227.674	762
227.740	855
227.806	-639
227.872	-681
227.938	-343
228.003	99
228.069	-514
228.135	-1125
228.201	-1062
228.267	-1003
228.332	-1182
228.398	-854
228.464	152
228.530	-248
228.595	-774
228.661	-315
228.727	-648
228.792	797
228.858	-314
228.924	-2629
228.990	-44
229.055	-1470
229.121	-115
229.187	186
229.252	-856
229.318	-1145
229.384	-484
229.449	-1046
229.515	-2229
229.581	-942
229.646	345
229.712	-209
229.777	-1825
229.843	-774
229.909	-665
229.974	490
230.040	-1272
230.105	283
230.171	-476
230.236	153
230.302	-1491
230.368	-157
230.433	-1455
230.499	122
230.564	-182
230.630	-880
230.695	-1136
230.761	330
230.826	-1290
230.892	474
230.957	-1512
231.023	-600
231.088	-1469
231.154	-1040
231.219	-863
231.284	-1111
231.350	-304
231.415	-1965
231.481	272
231.546	-1160
231.612	-668
231.677	-1145
231.742	-1806
231.808	809
231.873	-1484
231.939	-2229
232.004	-401
232.069	139
232.135	-958
232.200	-676
232.265	-690
232.331	-506
232.396	-1058
232.461	-378
232.527	-663
232.592	-986
232.657	-61
232.723	-882
232.788	-464
232.853	310
232.918	-507
232.984	-992
233.049	-921
233.114	-1025
233.179	-302
233.245	-281
233.310	-177
233.375	-1629
233.440	-962
233.506	-907
233.571	-1449
233.636	-157
233.701	-935
233.766	-866
233.832	-868
233.897	-822
233.962	-1711
234.027	92
234.092	-433
234.157	423
234.222	-1184
234.288	457
234.353	-1455
234.418	310
234.483	-805
234.548	368
234.613	-1272
234.678	-476
234.743	-1190
234.808	79
234.873	-2149
234.938	992
235.004	-472
235.069	-223
235.134	-1210
235.199	-265
235.264	-457
235.329	-1449
235.394	-447
235.459	-386
235.524	-1727
235.589	-430
235.654	-1150
235.719	-2006
235.784	-214
235.849	-800
235.913	-414
235.978	-737
236.043	-902
236.108	-807
236.173	-1418
236.238	-69
236.303	-1395
236.368	-972
236.433	-435
236.498	-942
236.563	-1168
236.627	-335
236.692	-296
236.757	229
236.822	-236
236.887	-1937
236.952	28
237.017	-857
237.081	300
237.146	-2203
237.211	116
237.276	-588
237.341	530
237.405	-779
237.470	-588
237.535	-495
237.600	-79
237.664	-537
237.729	-1974
237.794	-1018
237.859	-440
237.923	-1445
237.988	-1100
238.053	928
238.118	-458
238.182	-809
238.247	631
238.312	-1499
238.376	-1141
238.441	-1389
238.506	295
238.570	-799
238.635	405
238.700	-328
238.764	-1183
238.829	-863
238.893	-1234
238.958	-25
239.023	-1494
239.087	-885
239.152	-293
239.216	-1697
239.281	-575
239.346	-369
239.410	-1074
239.475	-264
239.539	-695
239.604	-1139
239.668	509
239.733	-165
239.797	1716
239.862	3338
239.926	2850
239.991	1036
240.055	542
240.120	-135
240.184	-398
240.249	-544
240.313	-380
240.378	-504
240.442	-199
240.507	-667
240.571	-794
240.635	-693
240.700	-740
240.764	-1256
240.829	-287
240.893	-969
240.957	-1222
241.022	-995
241.086	-611
241.151	-1234
241.215	-1979
241.279	685
241.344	-1269
241.408	-318
241.472	-1442
241.537	255
241.601	452
241.665	-1970
241.730	-1777
241.794	-68
241.858	-1055
241.922	-581
241.987	-650
242.051	-544
242.115	-1847
242.179	-198
242.244	-846
242.308	-395
242.372	-790
242.436	-1086
242.501	-786
242.565	-1870
242.629	-1194
242.693	346
242.757	-1027
242.822	-863
242.886	-157
242.950	110
243.014	-1376
243.078	-548
243.142	-1278
243.206	-1182
243.271	-37
243.335	-1476
243.399	-492
243.463	-929
243.527	-128
243.591	-1226
243.655	-1050
243.719	-590
243.783	-598
243.847	-32
243.911	-1111
243.975	-830
244.040	-2114
244.104	508
244.168	-1139
244.232	-583
244.296	-479
244.360	-1387
244.424	-1555
244.488	233
244.552	-808
244.615	-1294
244.679	-567
244.743	-820
244.807	-1552
244.871	-254
244.935	-602
244.999	-1428
245.063	-341
245.127	1010
245.191	-344
245.255	-886
245.319	-781
245.383	-2018
245.446	-194
245.510	-1523
245.574	-667
245.638	-671
245.702	-1879
245.766	520
245.829	-762
245.893	-978
245.957	-1437
246.021	-157
246.085	-1370
246.149	-256
246.212	-148
246.276	-717
246.340	-1034
246.404	-926
246.467	-295
246.531	-2380
246.595	-290
246.659	-415
246.722	-2243
246.786	-898
246.850	-1274
246.913	-1122
246.977	-1733
247.041	-57
247.104	-1156
247.168	-667
247.232	-819
247.295	-125
247.359	-1081
247.423	-907
247.486	-722
247.550	147
247.614	-1113
247.677	-605
247.741	-654
247.804	-342
247.868	-646
247.932	-864
247.995	724
248.059	-862
248.122	-2017
248.186	558
248.249	-963
248.313	-667
248.376	759
248.440	-83
248.503	-2148
248.567	844
248.630	-1976
248.694	-197
248.757	198
248.821	-122
248.884	647
248.948	-744
249.011	76
249.075	939
249.138	503
249.202	-759
249.265	-905
249.328	314
249.392	-2508
249.455	434
249.519	-765
249.582	-704
249.645	-709
249.709	-676
249.772	-757
249.835	-890
249.899	-1119
249.962	-757
250.025	-1393
250.089	-497
250.152	-522
250.215	-528
250.279	-1706
250.342	-430
250.405	-314
250.468	-884
250.532	-319
250.595	501
250.658	-736
250.721	1723
250.785	-1155
250.848	711
250.911	-1381
250.974	-300
251.038	-1837
251.101	259
251.164	-1419
251.227	279
251.290	-1111
251.354	-282
251.417	115
251.480	490
251.543	-393
251.606	1905
251.669	989
251.732	608
251.795	604
251.859	-170
251.922	99
251.985	355
252.048	-258
252.111	-1002
252.174	-1824
252.237	15
252.300	240
252.363	-381
252.426	1928
252.489	-602
252.552	-313
252.615	-1470
252.678	-236
252.741	291
252.804	-802
252.867	1917
252.930	553
252.993	-708
253.056	-781
253.119	-509
253.182	-1045
253.245	-595
253.308	-569
253.371	-1453
253.434	-808
253.497	-1019
253.559	393
253.622	-169
253.685	-1506
253.748	-693
253.811	-1769
253.874	14
253.937	-1022
254.000	-538
254.062	-996
254.125	-788
254.188	352
254.251	-965
254.314	-1442
254.376	-1204
254.439	-626
254.502	-392
254.565	-1679
254.628	1218
254.690	-1412
254.753	-1006
254.816	-1769
254.878	-1700
254.941	-710
255.004	-345
255.067	-621
255.129	-1186
255.192	-1088
255.255	-1916
255.317	-437
255.380	-587
255.443	-712
255.505	-1212
255.568	-1624
255.631	-1579
255.693	-704
255.756	-1220
255.819	-93
255.881	-590
255.944	-709
256.006	-446
256.069	-1418
256.132	-1379
256.194	-519
256.257	-658
256.319	-780
256.382	-1284
256.444	-11
256.507	142
256.569	-737
256.632	-2017
256.694	-2095
256.757	-123
256.819	386
256.882	-2215
256.944	-711
257.007	247
257.069	-1208
257.132	-110
257.194	422
257.257	-176
257.319	-919
257.381	-1523
257.444	-142
257.506	-796
257.569	-99
257.631	-478
257.693	-835
257.756	-1035
257.818	-1561
257.880	-78
257.943	-719
258.005	-1786
258.067	-735
258.130	-482
258.192	-1349
258.254	-804
258.317	-648
258.379	-367
258.441	-1705
258.503	-217
258.566	-379
258.628	-652
258.690	-1843
258.753	-525
258.815	-504
258.877	-1055
258.939	-1340
259.001	-38
259.064	-1433
259.126	-1364
259.188	-1223
259.250	-669
259.312	-1044
259.375	-1045
259.437	-1331
259.499	-355
259.561	-845
259.623	-585
259.685	-1910
259.747	-134
259.809	-595
259.872	-833
259.934	-948
259.996	-91
260.058	-1124
260.120	-1438
260.182	-1140
260.244	-384
260.306	-1251
260.368	-66
260.430	-1300
260.492	-980
260.554	-151
260.616	-1948
260.678	-890
260.740	-200
260.802	-1210
260.864	-291
260.926	-2298
260.988	190
261.050	-1419
261.112	-1551
261.174	-108
261.236	-377
261.298	-1052
261.359	-748
261.421	-69
261.483	-1102
261.545	-245
261.607	-2296
261.669	-525
261.731	-518
261.793	-764
261.854	-1039
261.916	-759
261.978	-1210
262.040	-1376
262.102	-25
262.164	-670
262.225	-457
262.287	-738
262.349	-740
262.411	-1032
262.472	273
262.534	-2248
262.596	-1182
262.658	-407
262.719	-1576
262.781	-120
262.843	-1046
262.904	-863
262.966	-567
263.028	-1171
263.090	-353
263.151	-1046
263.213	-64
263.275	-1245
263.336	-352
263.398	-305
263.459	-786
263.521	-940
263.583	-509
263.644	-801
263.706	-614
263.767	-1647
263.829	-175
263.891	-1368
263.952	-322
264.014	-1454
264.075	-1260
264.137	-432
264.198	-553
264.260	-959
264.321	-109
264.383	-1445
264.444	84
264.506	-1765
264.567	-1025
264.629	-168
264.690	-2564
264.752	-1381
264.813	-807
264.875	-888
264.936	362
264.998	-819
265.059	-120
265.120	-832
265.182	-1200
265.243	-1550
265.305	167
265.366	-1035
265.427	-562
265.489	-290
265.550	-1717
265.611	-1349
265.673	-1511
265.734	-992
265.795	-555
265.857	-1614
265.918	-1060
265.979	-328
266.040	-791
266.102	-678
266.163	-111
266.224	-260
266.286	-427
266.347	-2046
266.408	-352
266.469	-188
266.530	-117
266.592	-892
266.653	-645
266.714	-1069
266.775	-668
266.836	-1515
266.898	-922
266.959	-799
267.020	-909
267.081	-691
267.142	-18
267.203	-1471
267.264	-1746
267.326	-85
267.387	-1065
267.448	-1200
267.509	-1325
267.570	-845
267.631	-1243
267.692	-1291
267.753	-1054
267.814	-1167
267.875	-177
267.936	-794
267.997	-389
268.058	-1624
268.119	-796
268.180	-890
268.241	-235
268.302	-1073
268.363	-458
268.424	-1913
268.485	-565
268.546	-1808
268.607	-1407
268.668	-1245
268.729	-1730
268.790	-1176
268.851	-944
268.912	-1638
268.972	-693
269.033	-706
269.094	-1623
269.155	-1196
269.216	-18
269.277	-1042
269.338	-1066
269.398	-667
269.459	-1360
269.520	-551
269.581	-971
269.642	-821
269.702	-1328
269.763	-1308
269.824	-1230
269.885	-1148
269.945	-278
270.006	-1122
270.067	-514
270.128	-857
270.188	-1229
270.249	-1050
270.310	-1149
270.370	-746
270.431	-915
270.492	-1703
270.553	-62
270.613	-1609
270.674	-370
270.734	-1511
270.795	-1166
270.856	-1261
270.916	-1638
270.977	-1079
271.038	-135
271.098	-1319
271.159	-635
271.219	-968
271.280	-1086
271.340	-876
271.401	-776
271.462	-689
271.522	-645
271.583	-264
271.643	-830
271.704	-999
271.764	-951
271.825	-878
271.885	678
271.946	1182
272.006	257
272.066	-1105
272.127	1045
272.187	1561
272.248	1005
272.308	-591
272.369	966
272.429	-511
272.489	-842
272.550	-1209
272.610	-431
272.671	-1289
272.731	-490
272.791	-1547
272.852	-1719
272.912	-198
272.972	-825
273.033	-1176
273.093	-853
273.153	-390
273.214	-515
273.274	-1389
273.334	-653
273.394	-117
273.455	-575
273.515	-504
273.575	-360
273.635	-648
273.696	-227
273.756	-426
273.816	-543
273.876	-573
273.936	-1150
273.997	-753
274.057	-623
274.117	-1970
274.177	-322
274.237	-64
274.297	490
274.358	-1159
274.418	-167
274.478	-711
274.538	-1155
274.598	-1448
274.658	-615
274.718	-870
274.778	-1232
274.838	-1195
274.898	-639
274.958	-789
275.018	-25
275.078	230
275.138	-1245
275.198	-984
275.258	-364
275.318	14
275.378	-788
275.438	332
275.498	-1435
275.558	-1185
275.618	412
275.678	-39
275.738	-461
275.798	-519
275.858	-400
275.918	-1341
275.978	-1000
276.038	-763
276.098	-158
276.157	-676
276.217	-795
276.277	-965
276.337	-154
276.397	-861
276.457	-642
276.517	-673
276.576	-312
276.636	-1279
276.696	-946
276.756	-1406
276.815	11
276.875	-987
276.935	-1002
276.995	-886
277.055	-682
277.114	-305
277.174	-343
277.234	-732
277.293	-581
277.353	-853
277.413	-77
277.472	-970
277.532	-508
277.592	-743
277.651	460
277.711	2454
277.771	-5
277.830	2685
277.890	2521
277.950	471
278.009	6317
278.069	2674
278.128	2142
278.188	3111
278.248	764
278.307	2863
278.367	1989
278.426	-69
278.486	-243
278.545	-964
278.605	-718
278.664	-904
278.724	-441
278.783	-929
278.843	651
278.902	10
278.962	-782
279.021	-426
279.081	460
279.140	-459
279.199	277
279.259	-134
279.318	-396
279.378	107
279.437	425
279.496	2928
279.556	15054
279.615	12523
279.675	2682
279.734	1103
279.793	600
279.853	1235
279.912	1135
279.971	-85
280.031	289
280.090	357
280.149	1153
280.208	573
280.268	8803
280.327	10803
280.386	1302
280.445	-389
280.505	-31
280.564	-502
280.623	-881
280.682	4
280.742	127
280.801	-580
280.860	-987
280.919	-1168
280.978	144
281.037	-1315
281.097	-951
281.156	-33
281.215	-550
281.274	-869
281.333	136
281.392	-390
281.451	-1124
281.510	-1374
281.569	-766
281.628	-1674
281.688	-445
281.747	-1650
281.806	-864
281.865	-588
281.924	-104
281.983	-821
282.042	-1133
282.101	-1019
282.160	469
282.219	-575
282.278	208
282.337	-1396
282.396	-1035
282.454	-647
282.513	-463
282.572	322
282.631	-233
282.690	-812
282.749	-1171
282.808	-760
282.867	-664
282.926	-860
282.985	-145
283.043	-744
283.102	-248
283.161	-1463
283.220	166
283.279	-465
283.338	-1041
283.396	-985
283.455	-394
283.514	-876
283.573	-817
283.631	135
283.690	-276
283.749	-1231
283.808	-1365
283.866	-163
283.925	-882
283.984	-133
284.043	-773
284.101	-701
284.160	-446
284.219	-183
284.277	-23
284.336	-952
284.395	-88
284.453	-52
284.512	160
284.570	309
284.629	4
284.688	-83
284.746	321
284.805	615
284.863	1270
284.922	1203
284.981	2156
285.039	3298
285.098	8602
285.156	15807
285.215	24411
285.273	24040
285.332	19138
285.390	11293
285.449	5797
285.507	3472
285.566	2682
285.624	1662
285.683	2067
285.741	793
285.799	1424
285.858	185
285.916	256
285.975	-155
286.033	-234
286.091	-513
286.150	-173
286.208	224
286.267	689
286.325	-786
286.383	-357
286.442	187
286.500	-613
286.558	94
286.616	-337
286.675	-684
286.733	-87
286.791	-838
286.850	-593
286.908	-591
286.966	-533
287.024	-663
287.083	-810
287.141	-46
287.199	-213
287.257	27
287.315	-393
287.374	-861
287.432	-396
287.490	-978
287.548	-78
287.606	-579
287.664	55
287.723	-520
287.781	-433
287.839	-947
287.897	-408
287.955	-967
288.013	-755
288.071	-395
288.129	1181
288.187	6378
288.245	2257
288.303	-816
288.361	-301
288.419	-983
288.477	-284
288.535	-509
288.593	-205
288.651	-602
288.709	-1359
288.767	-671
288.825	-633
288.883	-621
288.941	-495
288.999	-442
289.057	-394
289.115	-868
289.173	318
289.231	-422
289.289	-346
289.346	-449
289.404	-172
289.462	-515
289.520	132
289.578	-601
289.636	-279
289.694	-562
289.751	-898
289.809	-514
289.867	-748
289.925	-162
289.983	-424
290.040	-1448
290.098	-465
290.156	-716
290.214	-692
290.271	-1123
290.329	-189
290.387	-37
290.444	-636
290.502	-1120
290.560	-244
290.617	-1127
290.675	-624
290.733	-941
290.790	-509
290.848	-231
290.906	-622
290.963	-750
291.021	117
291.078	-361
291.136	62
291.194	-1050
291.251	394
291.309	-968
291.366	-163
291.424	-1098
291.481	-740
291.539	-616
291.596	-851
291.654	-1239
291.711	297
291.769	-593
291.826	-921
291.884	-761
291.941	-426
291.999	-919
292.056	-1018
292.114	-835
292.171	-733
292.228	-289
292.286	310
292.343	-629
292.401	-926
292.458	-747
292.515	-499
292.573	-594
292.630	287
292.687	-202
292.745	432
292.802	-455
292.859	-269
292.917	211
292.974	-755
293.031	-602
293.089	-250
293.146	-824
293.203	-757
293.260	-304
293.318	-377
293.375	-397
293.432	-702
293.489	-267
293.546	-945
293.604	-1124
293.661	-553
293.718	1763
293.775	640
293.832	-408
293.889	-38
293.947	109
294.004	-298
294.061	-386
294.118	113
294.175	-953
294.232	96
294.289	-803
294.346	147
294.403	-305
294.460	-795
294.517	-644
294.574	-367
294.631	-1254
294.688	-162
294.745	-640
294.802	1232
294.859	82
294.916	-290
294.973	-470
295.030	-548
295.087	-549
295.144	-495
295.201	-529
295.258	-662
295.315	-728
295.372	2
295.429	425
295.486	-200
295.542	-788
295.599	-224
295.656	833
295.713	-44
295.770	125
295.827	-694
295.883	-243
295.940	-264
295.997	-1157
296.054	-136
296.111	-886
296.167	-748
296.224	-934
296.281	-760
296.338	-1453
296.394	-565
296.451	-1115
296.508	-257
296.564	-865
296.621	-97
296.678	341
296.734	1754
296.791	-142
296.848	-237
296.904	-977
296.961	-390
297.018	103
297.074	721
297.131	-151
297.187	209
297.244	-981
297.301	159
297.357	1582
297.414	-127
297.470	12
297.527	-364
297.583	-663
297.640	-855
297.696	-1037
297.753	-1152
297.809	-1328
297.866	-596
297.922	-1072
297.979	-57
298.035	-621
298.092	-738
298.148	-565
298.204	88
298.261	-1140
298.317	372
298.374	1141
298.430	38
298.486	-940
298.543	-1280
298.599	-925
298.656	-1190
298.712	-785
298.768	-142
298.824	-258
298.881	-751
298.937	-1021
298.993	-547
299.050	-363
299.106	-189
299.162	-1194
299.218	-155
299.275	-557
299.331	-348
299.387	80
299.443	1973
299.500	5576
299.556	5867
299.612	1515
299.668	786
299.724	4202
299.780	8023
299.837	2393
299.893	1400
299.949	3357
300.005	7859
300.061	3948
300.117	9102
300.173	3773
300.229	1799
300.285	-26
300.341	616
300.397	-201
300.453	-140
300.510	168
300.566	914
300.622	1653
300.678	8354
300.734	12466
300.790	4851
300.845	2224
300.901	3964
300.957	7639
301.013	3498
301.069	179
301.125	364
301.181	-652
301.237	228
301.293	-1334
301.349	-471
301.405	-1100
301.461	-539
301.516	-284
301.572	-407
301.628	-318
301.684	-314
301.740	-602
301.796	249
301.851	-469
301.907	-442
301.963	-506
302.019	696
302.074	3104
302.130	4602
302.186	1180
302.242	304
302.297	-467
302.353	-447
302.409	-224
302.464	-273
302.520	-278
302.576	-299
302.631	1228
302.687	321
302.743	-21
302.798	-889
302.854	-705
302.910	-522
302.965	-695
303.021	67
303.076	-459
303.132	-870
303.187	-1141
303.243	-83
303.299	-176
303.354	-878
303.410	-920
303.465	-668
303.521	-961
303.576	-213
303.632	-952
303.687	-230
303.743	413
303.798	1615
303.853	-571
303.909	101
303.964	-1254
304.020	-711
304.075	-958
304.130	-887
304.186	-452
304.241	530
304.297	-115
304.352	-1095
304.358	-1016
304.407	-381
304.449	91
304.463	250
304.518	-387
304.539	-192
304.573	117
304.629	-494
304.630	-498
304.684	-684
304.720	369
304.739	902
304.794	1191
304.811	898
304.850	165
304.902	42
304.905	37
304.960	-936
304.992	-804
305.015	-730
305.071	-35
305.083	62
305.126	463
305.173	-922
305.181	-1159
305.236	-1050
305.264	-795
305.292	-560
305.347	-428
305.354	-264
305.402	813
305.445	-6
305.457	-231
305.512	-456
305.535	-44
305.567	509
305.622	-447
305.626	-417
305.678	99
305.716	207
305.733	233
305.788	960
305.807	631
305.843	16
305.897	1099
305.898	1116
305.953	1014
305.988	563
306.008	303
306.063	-180
306.078	-100
306.118	188
306.168	-303
306.173	-343
306.228	95
306.259	-115
306.283	-325
306.338	-138
306.349	-118
306.393	-113
306.440	-392
306.448	-412
306.503	283
306.530	321
306.558	322
306.613	98
306.620	133
306.668	430
306.711	526
306.723	517
306.778	69
306.801	-11
306.833	-51
306.888	352
306.892	343
306.943	217
306.982	62
306.997	28
307.052	-88
307.072	62
307.107	350
307.162	-523
307.163	-520
307.217	100
307.253	330
307.272	421
307.327	46
307.343	30
307.381	50
307.434	-130
307.436	-127
307.491	81
307.524	367
307.546	514
307.600	741
307.614	642
307.655	183
307.704	-26
307.710	-7
307.765	538
307.795	458
307.819	199
307.874	121
307.885	24
307.929	179
307.975	724
307.984	761
308.038	1061
308.065	891
308.093	1210
308.148	2614
308.156	3085
308.202	5915
308.246	7787
308.257	7660
308.312	3430
308.336	2078
308.366	1372
308.421	1027
308.426	942
308.475	683
308.517	1027
308.530	1065
308.585	567
308.607	616
308.639	533
308.694	-8
308.697	-22
308.748	496
308.787	485
308.803	409
308.857	997
308.877	948
308.912	866
308.967	1268
308.967	1261
309.021	1561
309.058	2115
309.076	2259
309.130	2401
309.148	2571
309.185	5647
309.238	11080
309.239	11117
309.293	13749
309.328	12043
309.348	10287
309.402	5401
309.418	4281
309.457	3246
309.508	2007
309.511	2000
309.566	2422
309.598	2888
309.620	3477
309.674	4803
309.688	5281
309.729	5372
309.778	4486
309.783	4390
309.837	3242
309.868	2443
309.892	2117
309.946	2010
309.959	1931
310.001	2045
310.049	2420
310.055	2383
310.109	1763
310.139	1364
310.163	1227
310.218	815
310.229	813
310.272	1272
310.319	1577
310.326	1562
310.381	1309
310.409	1183
310.435	1071
310.489	866
310.499	828
310.543	920
310.589	1057
310.598	1084
310.652	1053
310.679	1083
310.706	1146
310.760	1192
310.769	1192
310.814	1385
310.859	1654
310.868	1730
310.923	1888
310.948	2027
310.977	1943
311.031	1667
311.038	1627
311.085	1368
311.128	1088
311.139	1112
311.193	1213
311.218	1276
311.247	1444
311.301	1534
311.308	1566
311.356	1468
311.398	1219
311.410	1360
311.464	2121
311.488	2377
311.518	2078
311.572	1631
311.578	1566
311.626	1551
311.668	1523
311.680	1651
311.734	2192
311.758	2387
311.788	2084
311.842	1589
311.847	1530
311.896	1660
311.937	1725
311.950	1638
312.004	1243
312.027	1081
312.058	1405
312.112	1956
312.117	2006
312.165	1537
312.207	1130
312.297	1443
312.386	1844
312.476	1678
312.566	1317
312.656	1998
312.745	1630
312.835	2195
312.925	2306
313.015	1813
313.104	2245
313.194	1708
313.284	2322
313.374	2768
313.463	2750
313.553	2543
313.643	2584
313.732	2462
313.822	2230
313.912	3290
314.001	3053
314.091	2950
314.180	3326
314.270	4276
314.360	3474
314.449	3321
314.539	2684
314.628	2737
314.718	2940
314.808	2851
314.897	4338
314.987	4106
315.076	4360
315.166	3507
315.255	3509
315.345	3658
315.434	3166
315.524	3986
315.613	3054
315.703	4191
315.792	7575
315.881	16975
315.971	7105
316.060	4563
316.150	3866
316.239	3832
316.328	3270
316.418	4056
316.507	3662
316.597	4278
316.686	3949
316.775	4270
316.865	3377
316.954	3509
317.043	3387
317.133	2220
317.222	2421
317.311	2305
317.400	1961
317.490	3546
317.579	3100
317.668	2848
317.757	4757
317.847	10276
317.936	25620
318.025	9255
318.114	7887
318.203	4662
318.293	3375
318.382	5755
318.471	5958
318.560	5329
318.649	4853
318.738	3133
318.828	3291
318.917	2433
319.006	2213
319.095	2384
319.184	3838
319.273	3197
319.362	3147
319.451	2112
319.540	2783
319.629	2532
319.718	2535
319.807	2175
319.896	2704
319.985	3495
320.074	3293
320.163	3347
320.252	3448
320.341	2781
320.430	3448
320.519	3159
320.608	2958
320.697	4670
320.786	4334
320.875	4937
320.964	5916
321.053	5412
321.142	5399
321.230	6533
321.319	7339
321.408	8325
321.497	8288
321.586	6904
321.675	5259
321.764	5761
321.852	6120
321.941	6419
322.030	5900
322.119	6244
322.207	7041
322.296	8047
322.385	9235
322.474	11416
322.562	11021
322.651	8201
322.740	6397
322.829	6528
322.917	4990
323.006	4955
323.095	5410
323.183	4328
323.272	4271
323.361	4695
323.449	4605
323.538	3742
323.626	3584
323.715	3428
323.804	2954
323.892	3583
323.981	2865
324.069	3041
324.158	3410
324.246	3698
324.335	3197
324.424	2924
324.512	3940
324.601	3179
324.689	3677
324.778	3654
324.866	3419
324.954	4055
325.043	2676
325.131	2123
325.220	3166
325.308	3364
325.397	2847
325.485	2976
325.574	2201
325.662	2294
325.750	2770
325.839	2366
325.927	2833
326.015	2598
326.104	2857
326.192	3400
326.280	2880
326.369	3409
326.457	1592
326.545	3139
326.634	2969
326.722	2621
326.810	2050
326.898	3283
326.987	3714
327.075	3047
327.163	3249
327.251	2335
327.340	3030
327.428	4505
327.516	4489
327.604	4218
327.692	2698
327.781	3404
327.869	2385
327.957	2603
328.045	2443
328.133	2738
328.221	2838
328.309	2973
328.397	2864
328.485	3306
328.574	4912
328.662	5896
328.750	4149
328.838	3915
328.926	3169
329.014	2476
329.102	2282
329.190	3456
329.278	3457
329.366	3201
329.454	2848
329.542	3299
329.630	2109
329.718	3382
329.806	2411
329.893	3186
329.981	2201
330.069	3408
330.157	3051
330.245	3931
330.333	2946
330.421	2769
330.509	2901
330.597	2805
330.684	3083
330.772	2656
330.860	2515
330.948	2956
331.036	3117
331.123	2496
331.211	2971
331.299	2408
331.387	2766
331.475	2795
331.562	2040
331.650	2427
331.738	2140
331.825	2740
331.913	3099
332.001	2912
332.089	2333
332.176	2255
332.264	2480
332.352	2435
332.439	3086
332.527	2992
332.614	1974
332.702	2808
332.790	3362
332.877	3080
332.965	3341
333.052	3390
333.140	3199
333.228	4160
333.315	3532
333.403	3491
333.490	3390
333.578	3150
333.665	5855
333.753	3861
333.840	3822
333.928	4401
334.015	4983
334.103	5861
334.190	6812
334.278	9813
334.365	12267
334.452	13027
334.540	8661
334.627	8105
334.715	11192
334.802	14975
334.889	21453
334.977	27189
335.064	19011
335.151	10912
335.239	8616
335.326	6949
335.413	7716
335.501	6589
335.588	6936
335.675	8632
335.762	10040
335.850	11439
335.937	17042
336.024	25380
336.111	36733
336.199	34357
336.286	17190
336.373	11496
336.460	7662
336.547	6103
336.635	5569
336.722	5131
336.809	4804
336.896	4952
336.983	4324
337.070	4506
337.157	4003
337.245	4233
337.332	4106
337.419	3700
337.506	4153
337.593	3093
337.680	4125
337.767	4494
337.854	3508
337.941	3737
338.028	3900
338.115	2902
338.202	4406
338.289	3482
338.376	3511
338.463	3402
338.550	3099
338.637	3396
338.724	3115
338.811	3838
338.898	3611
338.984	3743
339.071	2965
339.158	3180
339.245	3274
339.332	3028
339.419	3092
339.506	2938
339.593	2719
339.679	3326
339.766	3007
339.853	2919
339.940	3042
340.027	2529
340.113	3907
340.200	3409
340.287	2085
340.374	1895
340.460	1815
340.547	1830
340.634	3171
340.720	2610
340.807	2671
340.894	3003
340.980	3425
341.067	2450
341.154	3431
341.240	2536
341.327	2882
341.414	3709
341.500	2829
341.587	3297
341.674	3765
341.760	3259
341.847	2608
341.933	3315
342.020	2346
342.106	3128
342.193	2874
342.279	3001
342.366	2828
342.452	3894
342.539	2956
342.625	2838
342.712	3427
342.798	4055
342.885	2993
342.971	2884
343.058	2274
343.144	2532
343.230	3604
343.317	2933
343.403	2637
343.490	3444
343.576	2012
343.662	2539
343.749	2705
343.835	2725
343.921	3277
344.008	5009
344.094	9353
344.180	3910
344.267	2974
344.353	3475
344.439	3433
344.525	2869
344.612	3419
344.698	3172
344.784	2181
344.870	2824
344.957	2405
345.043	2596
345.129	1844
345.215	3382
345.301	2909
345.387	2851
345.474	3137
345.560	2653
345.646	2437
345.732	3004
345.818	1998
345.904	2747
345.990	2556
346.076	2880
346.162	2677
346.249	3259
346.335	1969
346.421	2256
346.507	2434
346.593	3918
346.679	1778
346.765	3470
346.851	5249
346.937	4228
347.023	3694
347.108	3706
347.194	2441
347.280	3112
347.366	4275
347.452	9053
347.538	11088
347.624	6552
347.710	4461
347.796	3433
347.882	2998
347.967	2647
348.053	1758
348.139	2668
348.225	2967
348.311	3156
348.397	3021
348.482	3938
348.568	3448
348.654	4019
348.740	11567
348.825	12199
348.911	6526
348.997	3912
349.083	5651
349.168	3275
349.254	3563
349.340	3977
349.425	2464
349.511	3792
349.597	3324
349.682	2998
349.768	4680
349.854	3033
349.939	3663
350.025	3467
350.110	2688
350.196	2923
350.282	2193
350.367	4074
350.453	2760
350.538	3043
350.624	2993
350.709	3816
350.795	3055
350.880	1714
350.966	4608
351.051	2952
351.137	2769
351.222	3447
351.308	3061
351.393	3226
351.479	2685
351.564	2825
351.649	3070
351.735	2248
351.820	2913
351.906	2770
351.991	2525
352.076	3095
352.162	3678
352.247	2607
352.332	2193
352.418	2163
352.503	2335
352.588	3539
352.673	2924
352.759	3462
352.844	2546
352.929	2086
353.014	1949
353.100	3232
353.185	2907
353.270	1768
353.355	2684
353.441	2959
353.526	2670
353.611	2554
353.696	2090
353.781	3547
353.866	1865
353.952	3617
354.037	2958
354.122	3835
354.207	2648
354.292	2648
354.377	2532
354.462	2883
354.547	1877
354.632	3160
354.717	3155
354.802	2037
354.887	2531
354.972	3239
355.057	3045
355.142	2392
355.227	3200
355.312	2645
355.397	1880
355.482	2653
355.567	2679
355.652	3848
355.737	2363
355.822	3792
355.907	2911
355.991	4805
356.076	2963
356.161	2961
356.246	2241
356.331	3328
356.416	2635
356.501	6877
356.585	4270
356.670	2367
356.755	5381
356.840	4347
356.924	4436
357.009	8596
357.094	5935
357.179	3067
357.263	3704
357.348	3382
357.433	3002
357.517	3657
357.602	3472
357.687	3102
357.771	3437
357.856	3411
357.941	3433
358.025	4427
358.110	10668
358.195	6944
358.279	3006
358.364	3455
358.448	4170
358.533	5277
358.617	4702
358.702	4052
358.787	4271
358.871	3426
358.956	3468
359.040	3106
359.125	3138
359.209	3174
359.294	3751
359.378	4522
359.462	5002
359.547	3903
359.631	3904
359.716	2310
359.800	2925
359.885	4223
359.969	2967
360.053	3882
360.138	3325
360.222	4048
360.306	3066
360.391	4058
360.475	3615
360.559	3193
360.644	3688
360.728	3409
360.812	5524
360.896	7842
360.981	4420
361.065	3793
361.149	4071
361.233	4109
361.318	3870
361.402	3351
361.486	5016
361.570	3761
361.654	4388
361.739	4524
361.823	4929
361.907	9624
361.991	5928
362.075	6472
362.159	6670
362.243	14886
362.327	29697
362.411	43974
362.495	19324
362.580	10447
362.664	9687
362.748	11135
362.832	15911
362.916	28636
363.000	67991
363.084	86674
363.168	39175
363.252	16191
363.336	10225
363.420	7774
363.503	7429
363.587	7145
363.671	6722
363.755	6201
363.839	8310
363.923	7612
364.007	10346
364.091	12649
364.175	17983
364.258	38901
364.342	74600
364.426	115145
364.510	67441
364.594	27396
364.677	14636
364.761	11284
364.845	9846
364.929	6840
365.013	5181
365.096	5279
365.180	4329
365.264	5230
365.347	6524
365.431	4135
365.515	3344
365.598	3681
365.682	5151
365.766	3821
365.849	4115
365.933	5008
366.017	5649
366.100	4642
366.184	4181
366.267	5423
366.351	4270
366.435	4189
366.518	3321
366.602	4958
366.685	4198
366.769	4933
366.852	5063
366.936	4932
367.019	4645
367.103	3174
367.186	4847
367.270	4157
367.353	4144
367.436	4620
367.520	4458
367.603	5062
367.687	3992
367.770	4306
367.853	5470
367.937	5974
368.020	5541
368.104	3429
368.187	4474
368.270	3631
368.353	3970
368.437	3815
368.520	3857
368.603	3975
368.687	2697
368.770	4601
368.853	2532
368.936	4746
369.020	4733
369.103	4541
369.186	3328
369.269	2986
369.352	5029
369.436	3525
369.519	3970
369.602	2079
369.685	5806
369.768	2625
369.851	4387
369.934	3252
370.018	2856
370.101	2477
370.184	5803
370.267	4382
370.350	4514
370.433	4214
370.516	6090
370.599	12637
370.682	5503
370.765	6492
370.848	5444
370.931	4612
371.014	5446
371.097	2794
371.180	5434
371.263	4702
371.346	2438
371.429	4677
371.511	3719
371.594	3868
371.677	4270
371.760	5655
371.843	3943
371.926	6413
372.009	10365
372.091	8301
372.174	5075
372.257	6644
372.340	4860
372.423	5094
372.505	5269
372.588	4191
372.671	5441
372.754	4224
372.836	4048
372.919	4659
373.002	4714
373.085	3419
373.167	5202
373.250	4498
373.332	6223
373.415	7737
373.498	11831
373.580	8843
373.663	16267
373.746	18502
373.828	5672
373.911	6147
373.993	3976
374.076	5356
374.159	4855
374.241	4872
374.324	5965
374.406	6588
374.489	5887
374.571	10258
374.654	5875
374.736	4943
374.819	7678
374.901	10696
374.983	9979
375.066	5747
375.148	5540
375.231	4684
375.313	6269
375.395	6033
375.478	5420
375.560	6544
375.643	5137
375.725	6019
375.807	8216
375.890	8567
375.972	3782
376.054	5853
376.136	5469
376.219	4898
376.301	5817
376.383	6744
376.465	5141
376.548	4469
376.630	4934
376.712	6486
376.794	4782
376.877	4410
376.959	3688
377.041	4570
377.123	3966
377.205	3884
377.287	3210
377.369	4816
377.452	4200
377.534	3752
377.616	4426
377.698	4911
377.780	3375
377.862	4518
377.944	5604
378.026	3525
378.108	5076
378.190	4252
378.272	5469
378.354	4329
378.436	4146
378.518	3256
378.600	4405
378.682	5377
378.764	4376
378.846	4337
378.928	3974
379.010	3479
379.091	4752
379.173	4935
379.255	3360
379.337	3885
379.419	4404
379.501	6040
379.583	3751
379.664	3675
379.746	2587
379.828	5705
379.910	4468
379.991	5233
380.073	4064
380.155	4244
380.237	3270
380.318	3024
380.400	3878
380.482	4234
380.564	2998
380.645	3811
380.727	3253
380.809	4504
380.890	3467
380.972	3260
381.053	3401
381.135	4210
381.217	3057
381.298	5531
381.380	3444
381.461	4218
381.543	5435
381.624	5853
381.706	4929
381.787	3817
381.869	5155
381.951	5087
382.032	8083
382.113	9211
382.195	2458
382.276	5651
382.358	3570
382.439	6250
382.521	7735
382.602	10145
382.684	7104
382.765	8042
382.846	13791
382.928	28014
383.009	16351
383.090	14085
383.172	38926
383.253	53334
383.334	18664
383.416	10374
383.497	9015
383.578	8417
383.659	12466
383.741	34197
383.822	75258
383.903	38131
383.984	11671
384.066	10771
384.147	7453
384.228	6525
384.309	6178
384.390	6420
384.471	5450
384.553	6258
384.634	5604
384.715	5777
384.796	4233
384.877	5119
384.958	6488
385.039	4358
385.120	4441
385.201	5407
385.282	4041
385.363	6404
385.444	5026
385.525	6769
385.606	7353
385.687	7024
385.768	5152
385.849	4542
385.930	9124
386.011	11853
386.092	7021
386.173	6630
386.254	6467
386.335	6647
386.416	5464
386.496	6470
386.577	6425
386.658	6072
386.739	5471
386.820	6418
386.901	5600
386.981	6296
387.062	7057
387.143	7858
387.224	9089
387.304	10499
387.385	10551
387.466	8165
387.547	10271
387.627	10482
387.708	10526
387.789	11372
387.869	10149
387.950	9335
388.031	7244
388.111	5173
388.192	7956
388.273	7312
388.353	6580
388.434	6131
388.514	6295
388.595	7390
388.676	7910
388.756	7090
388.837	6547
388.917	5275
388.998	4025
389.078	5993
389.159	5159
389.239	3863
389.320	6918
389.400	3304
389.480	5027
389.561	5386
389.641	5909
389.722	5090
389.802	3290
389.883	5277
389.963	7169
390.043	6419
390.124	4269
390.204	5516
390.284	5283
390.365	4027
390.445	5367
390.525	3924
390.605	4967
390.686	4368
390.766	6083
390.846	6601
390.927	4974
391.007	4453
391.087	6551
391.167	5264
391.247	3348
391.328	5167
391.408	5321
391.488	5166
391.568	4076
391.648	5253
391.728	5679
391.808	7082
391.888	6244
391.969	6666
392.049	6156
392.129	7485
392.209	6967
392.289	8998
392.369	8652
392.449	8784
392.529	7747
392.609	10453
392.689	11750
392.769	11965
392.849	14940
392.929	18459
393.009	23669
393.089	33209
393.169	56363
393.248	108527
393.328	180973
393.408	181829
393.488	110897
393.568	55585
393.648	32051
393.728	21452
393.807	15002
393.887	13698
393.967	11135
394.047	9005
394.127	8717
394.206	7908
394.286	9305
394.366	18632
394.446	20132
394.525	8033
394.605	5545
394.685	7070
394.764	8204
394.844	11956
394.924	16816
395.003	8597
395.083	6290
395.163	5715
395.242	5008
395.322	6011
395.402	3742
395.481	6446
395.561	5519
395.640	18580
395.720	36379
395.799	19148
395.879	8521
395.958	7130
396.038	9056
396.117	24780
396.197	27312
396.276	12325
396.356	9589
396.435	12211
396.515	15705
396.594	22130
396.673	42914
396.753	98120
396.832	167008
396.912	137552
396.991	59169
397.070	30412
397.150	17765
397.229	16993
397.308	28872
397.388	52167
397.467	28847
397.546	11298
397.625	6127
397.705	8812
397.784	6918
397.863	6434
397.942	5888
398.022	6644
398.101	5009
398.180	6274
398.259	5440
398.338	5474
398.417	4549
398.497	4588
398.576	5892
398.655	3777
398.734	5971
398.813	4407
398.892	4585
398.971	5025
399.050	4120
399.129	3695
399.208	3992
399.287	4519
399.366	4220
399.445	4556
399.524	4672
399.603	2738
399.682	4222
399.761	4319
399.840	5375
399.919	5291
399.998	4032
400.077	2728
400.156	3717
400.235	6397
400.313	4136
400.392	2579
400.471	4379
400.550	5000
400.629	2308
400.708	4661
400.786	2417
400.865	3883
400.944	2187
401.023	5466
401.102	3289
401.180	3361
401.259	3381
401.338	2893
401.416	2938
401.495	2872
401.574	3911
401.652	2880
401.731	4265
401.810	2150
401.888	2512
401.967	2534
402.046	2488
402.124	3111
402.203	3124
402.281	3299
402.360	2817
402.438	2897
402.517	1645
402.596	2874
402.674	3842
402.753	2976
402.831	3156
402.910	3575
402.988	2839
403.066	4235
403.145	4405
403.223	4664
403.302	2738
403.380	5045
403.459	4067
403.537	3748
403.615	4314
403.694	2870
403.772	4226
403.850	3918
403.929	3100
404.007	2896
404.085	3646
404.164	2186
404.242	3678
404.320	4038
404.398	5431
404.477	4280
404.555	7086
404.633	6076
404.711	4983
404.789	4740
404.868	2312
404.946	2348
405.024	2869
405.102	2849
405.180	2007
405.258	1509
405.336	3271
405.415	2032
405.493	3072
405.571	2893
405.649	2716
405.727	1869
405.805	3704
405.883	3175
405.961	3516
406.039	2641
406.117	1807
406.195	3125
406.273	2114
406.351	4804
406.429	4263
406.507	2589
406.585	1332
406.663	2890
406.740	2727
406.818	1736
406.896	2407
406.974	3345
407.052	1646
407.130	3412
407.208	3747
407.285	3525
407.363	2622
407.441	2200
407.519	2587
407.596	3002
407.674	4521
407.752	11394
407.830	9170
407.907	3590
407.985	2211
408.063	2796
408.141	1970
408.218	3216
408.296	2436
408.373	2916
408.451	3948
408.529	4129
408.606	3561
408.684	4763
408.762	4160
408.839	4898
408.917	4344
408.994	4758
409.072	4142
409.149	6560
409.227	9144
409.304	12211
409.382	13561
409.459	13676
409.537	18708
409.614	16480
409.692	13547
409.769	13331
409.846	17836
409.924	22222
410.001	15224
410.079	12441
410.156	11032
410.233	8594
410.311	6243
410.388	6038
410.465	5535
410.543	5334
410.620	6735
410.697	5655
410.775	5626
410.852	4787
410.929	6642
411.006	7000
411.083	5881
411.161	5069
411.238	5969
411.315	4790
411.392	3801
411.469	4234
411.547	4634
411.624	3438
411.701	3451
411.778	4274
411.855	3818
411.932	3617
412.009	3832
412.086	4573
412.163	4125
412.240	3590
412.317	4125
412.394	3323
412.471	4450
412.548	3873
412.625	3559
412.702	3409
412.779	3624
412.856	4292
412.933	3167
413.010	4004
413.087	3086
413.164	2780
413.241	3718
413.318	2380
413.395	4563
413.471	2707
413.548	3810
413.625	4263
413.702	2144
413.779	3064
413.855	3640
413.932	2885
414.009	1778
414.086	3005
414.162	3400
414.239	3243
414.316	3428
414.393	4528
414.469	1941
414.546	3318
414.623	2912
414.699	3161
414.776	2390
414.853	2462
414.929	3398
415.006	2141
415.082	2359
415.159	3330
415.236	2828
415.312	3323
415.389	3289
415.465	2055
415.542	2669
415.618	2114
415.695	3798
415.771	2174
415.848	2175
415.924	2908
416.000	2683
416.077	3989
416.153	1570
416.230	2233
416.306	3266
416.383	2085
416.459	3394
416.535	1967
416.612	3603
416.688	2092
416.764	2693
416.841	2523
416.917	1781
416.993	2595
417.069	2871
417.146	1756
417.222	1912
417.298	3334
417.374	1463
417.451	2812
417.527	2221
417.603	2059
417.679	2595
417.755	2237
417.831	2068
417.908	2963
417.984	2873
418.060	1148
418.136	2239
418.212	2632
418.288	2394
418.364	2823
418.440	1642
418.516	2375
418.592	2845
418.668	3093
418.744	3370
418.820	2326
418.896	2157
418.972	2496
419.048	2861
419.124	4511
419.200	1901
419.276	3367
419.352	1911
419.428	3823
419.504	2129
419.579	2707
419.655	3438
419.731	3231
419.807	4306
419.883	3864
419.959	3628
420.034	3903
420.110	4146
420.186	4112
420.262	4774
420.337	3878
420.413	5141
420.489	5854
420.565	6400
420.640	5669
420.716	6681
420.792	5799
420.867	7387
420.943	6259
421.019	7884
421.094	7281
421.170	8460
421.245	9067
421.321	9873
421.397	10703
421.472	13369
421.548	16573
421.623	16319
421.699	15744
421.774	17492
421.850	18317
421.925	22789
422.001	27071
422.076	31483
422.152	38373
422.227	48034
422.302	62095
422.378	77795
422.453	96766
422.529	106940
422.604	85041
422.679	59873
422.755	78471
422.830	109237
422.905	102228
422.981	84224
423.056	67770
423.131	55106
423.207	42885
423.282	34586
423.357	29750
423.432	25731
423.508	22903
423.583	18133
423.658	16780
423.733	15418
423.808	13539
423.883	14093
423.959	13481
424.034	13646
424.109	13885
424.184	10861
424.259	9537
424.334	8731
424.409	7220
424.484	7076
424.559	7210
424.634	6191
424.709	6404
424.784	6176
424.859	6096
424.934	5164
425.009	5479
425.084	4934
425.159	4954
425.234	5593
425.309	4362
425.384	4783
425.459	3909
425.534	3913
425.609	2878
425.683	3991
425.758	3587
425.833	4496
425.908	4334
425.983	2904
426.058	4660
426.132	4153
426.207	3326
426.282	5025
426.357	2985
426.431	3484
426.506	3914
426.581	3798
426.655	3076
426.730	3344
426.805	1833
426.879	3860
426.954	3071
427.029	2839
427.103	4079
427.178	4195
427.253	3524
427.327	2454
427.402	2633
427.476	2822
427.551	2428
427.625	2317
427.700	2627
427.774	2307
427.849	3249
427.923	1719
427.998	3007
428.072	2580
428.147	5466
428.221	20041
428.296	52673
428.370	31618
428.444	7354
428.519	4444
428.593	3060
428.667	4166
428.742	3574
428.816	9604
428.890	32728
428.965	48213
429.039	15195
429.113	3894
429.188	2677
429.262	2434
429.336	2870
429.410	2945
429.485	3151
429.559	2748
429.633	3019
429.707	3821
429.781	7628
429.855	30874
429.930	42896
430.004	14682
430.078	10254
430.152	23581
430.226	68535
430.300	67274
430.374	20775
430.448	8288
430.522	5227
430.596	4525
430.670	12344
430.744	40370
430.818	44219
430.892	11283
430.966	4191
431.040	3144
431.114	1614
431.188	1630
431.262	2383
431.336	1184
431.410	2475
431.484	1043
431.557	2384
431.631	2162
431.705	4675
431.779	15563
431.853	51458
431.927	34914
432.000	8321
432.074	2581
432.148	2706
432.222	-270
432.295	1687
432.369	689
432.443	869
432.516	1701
432.590	2856
432.664	2203
432.737	1406
432.811	599
432.885	644
432.958	1342
433.032	704
433.106	656
433.179	639
433.253	771
433.326	793
433.400	1109
433.473	1021
433.547	781
433.620	917
433.694	1095
433.767	755
433.841	669
433.914	759
433.988	453
434.061	1944
434.134	870
434.208	500
434.281	306
434.355	276
434.428	1417
434.501	442
434.575	1356
434.648	1272
434.721	970
434.795	874
434.868	577
434.941	434
435.014	344
435.088	1125
435.161	1408
435.234	2277
435.307	2678
435.381	2861
435.454	4662
435.527	8787
435.600	10000
435.673	8300
435.746	6111
435.819	4432
435.892	2886
435.966	2415
436.039	2139
436.112	3341
436.185	1494
436.258	1656
436.331	1292
436.404	1139
436.477	1691
436.550	1497
436.623	1390
436.696	1131
436.769	996
436.842	936
436.915	1049
436.987	944
437.060	1361
437.133	590
437.206	719
437.279	1457
437.352	358
437.425	585
437.498	1274
437.570	1491
437.643	913
437.716	1162
437.789	585
437.861	904
437.934	647
438.007	946
438.080	341
438.152	1406
438.225	1581
438.298	2073
438.370	3695
438.443	2325
438.516	1016
438.588	1089
438.661	431
438.734	1252
438.806	907
438.879	1409
438.951	46
439.024	957
439.096	389
439.169	916
439.241	634
439.314	479
439.386	1486
439.459	1200
439.531	899
439.604	1474
439.676	1615
439.749	1038
439.821	945
439.893	899
439.966	785
440.038	865
440.110	825
440.183	767
440.255	700
440.327	1523
440.400	1640
440.472	2231
440.544	1756
440.617	1263
440.689	2194
440.761	757
440.833	1469
440.905	1695
440.978	754
441.050	1499
441.122	1684
441.194	1733
441.266	897
441.338	1240
441.411	1607
441.483	1915
441.555	1625
441.627	2043
441.699	1596
441.771	1445
441.843	1735
441.915	1423
441.987	2055
442.059	2076
442.131	2555
442.203	3722
442.275	3645
442.347	5664
442.419	12624
442.491	43218
442.563	80565
442.635	39381
442.706	10673
442.778	6028
442.850	3748
442.922	3481
442.994	3516
443.066	3993
443.137	4961
443.209	5651
443.281	9713
443.353	18475
443.425	50884
443.496	111164
443.568	117150
443.640	60470
443.711	18050
443.783	8684
443.855	5171
443.926	4692
443.998	3480
444.070	3536
444.141	2919
444.213	2988
444.285	2947
444.356	2222
444.428	2145
444.499	2825
444.571	2488
444.642	3288
444.714	2272
444.785	3992
444.857	2836
444.928	3671
445.000	3501
445.071	5470
445.143	6335
445.214	9927
445.285	14838
445.357	35203
445.428	84653
445.500	125665
445.571	115596
445.642	84022
445.714	37137
445.785	13721
445.856	6605
445.928	4822
445.999	4069
446.070	3151
446.141	2924
446.213	2364
446.284	2365
446.355	1927
446.426	2044
446.497	944
446.569	1221
446.640	1177
446.711	1302
446.782	725
446.853	1244
446.924	2003
446.995	1010
447.066	1404
447.138	759
447.209	1022
447.280	284
447.351	654
447.422	799
447.493	1166
447.564	704
447.635	239
447.706	372
447.777	544
447.847	1330
447.918	-126
447.989	1290
448.060	884
448.131	488
448.202	528
448.273	806
448.344	1573
448.414	1347
448.485	588
448.556	1251
448.627	437
448.698	1840
448.768	757
448.839	350
448.910	186
448.981	645
449.051	1419
449.122	1040
449.193	1027
449.263	1234
449.334	941
449.405	659
449.475	1325
449.546	796
449.616	1521
449.687	2000
449.758	789
449.828	1178
449.899	720
449.969	1001
450.040	1049
450.110	894
450.181	1257
450.251	680
450.322	1209
450.392	917
450.463	813
450.533	1270
450.604	522
450.674	574
450.744	553
450.815	1059
450.885	1642
450.955	1650
451.026	1286
451.096	623
451.166	1357
451.237	1817
451.307	2236
451.377	1799
451.447	1263
451.518	1022
451.588	898
451.658	1660
451.728	465
451.799	299
451.869	624
451.939	1278
452.009	828
452.079	635
452.149	1370
452.219	775
452.289	1354
452.360	1473
452.430	1693
452.500	2243
452.570	4038
452.640	7501
452.710	17222
452.780	20351
452.850	10460
452.920	4542
452.990	3021
453.060	2002
453.129	1104
453.199	947
453.269	1202
453.339	1724
453.409	2261
453.479	2147
453.549	1680
453.619	2409
453.688	355
453.758	1047
453.828	630
453.898	881
453.968	711
454.037	1155
454.087	934
454.107	840
454.168	1055
454.177	1085
454.247	420
454.249	424
454.316	329
454.330	370
454.386	531
454.411	464
454.456	298
454.492	599
454.525	875
454.574	871
454.595	851
454.655	1336
454.665	1421
454.734	1279
454.736	1289
454.804	1320
454.817	1239
454.873	918
454.898	1093
454.943	1379
454.979	963
455.013	606
455.060	1095
455.082	1277
455.141	344
455.152	186
455.221	1269
455.222	1274
455.291	680
455.303	749
455.360	1222
455.384	1310
455.430	1320
455.465	1020
455.499	768
455.546	1409
455.569	1700
455.627	1538
455.638	1493
455.707	883
455.708	890
455.777	835
455.789	893
455.846	1324
455.869	1238
455.916	974
455.950	1401
455.985	1882
456.031	1250
456.054	895
456.112	1091
456.124	1127
456.193	1203
456.193	1197
456.262	1445
456.274	1590
456.332	2201
456.355	1887
456.401	1295
456.436	1339
456.470	1372
456.516	1416
456.540	1398
456.597	653
456.609	525
456.678	1744
456.678	1739
456.747	1780
456.759	1568
456.817	841
456.840	1081
456.886	1415
456.920	1717
456.955	1931
457.001	1642
457.024	1520
457.082	2039
457.093	2191
457.162	2350
457.163	2356
457.232	1646
457.243	1675
457.301	2074
457.324	1991
457.370	1704
457.405	2048
457.439	2506
457.485	2505
457.508	2414
457.566	3071
457.577	3367
457.646	4653
457.647	4686
457.715	9810
457.727	11117
457.784	19798
457.808	26352
457.853	33885
457.889	40105
457.922	40967
457.969	27832
457.991	27378
458.050	31766
458.060	32718
458.129	55137
458.130	55835
458.198	56336
458.211	50698
458.267	29669
458.292	20995
458.336	13214
458.372	12296
458.405	16499
458.453	25123
458.474	31340
458.533	54487
458.543	55987
458.611	84662
458.614	85087
458.680	55236
458.694	44089
458.749	20884
458.775	15096
458.818	8768
458.855	6829
458.887	5850
458.936	4853
458.955	4418
459.016	3691
459.024	3673
459.093	3991
459.097	3991
459.162	3089
459.177	2970
459.230	3155
459.257	3146
459.299	2773
459.338	2702
459.368	2815
459.418	2694
459.437	2508
459.499	2070
459.505	2094
459.574	2482
459.579	2525
459.643	2472
459.659	2365
459.711	2507
459.740	2744
459.780	2657
459.820	2399
459.849	2364
459.900	2212
459.917	2155
459.981	2373
459.986	2384
460.054	2630
460.061	2582
460.123	1775
460.141	1702
460.191	2105
460.222	2301
460.260	2281
460.302	2118
460.328	2205
460.382	2899
460.397	2921
460.462	2845
460.465	2951
460.534	5117
460.543	5373
460.602	11219
460.623	13855
460.671	21010
460.703	27547
460.739	24948
460.783	18861
460.808	16308
460.864	5366
460.876	4325
460.944	3155
460.945	3144
461.013	2921
461.024	2910
461.081	2173
461.104	2088
461.150	2406
461.184	2347
461.218	2368
461.264	2662
461.286	2780
461.345	2959
461.355	2903
461.423	1907
461.425	1897
461.491	1640
461.505	1661
461.559	2262
461.585	2391
461.628	2706
461.665	2942
461.696	2837
461.745	3090
461.764	3059
461.825	2522
461.832	2562
461.901	2349
461.905	2419
461.969	2520
461.985	2382
462.037	2920
462.065	3091
462.105	2283
462.145	2053
462.173	2541
462.225	2634
462.241	2508
462.305	2456
462.310	2454
462.378	2220
462.385	2225
462.446	2541
462.465	2615
462.514	2384
462.545	2224
462.582	2372
462.625	2583
462.650	2425
462.705	2110
462.718	2153
462.785	2230
462.786	2227
462.854	1722
462.865	1710
462.922	2513
462.945	2825
462.990	2564
463.025	2224
463.058	2398
463.104	2909
463.126	2926
463.184	2592
463.194	2656
463.262	2923
463.264	2956
463.330	2509
463.344	2300
463.398	2853
463.424	3117
463.466	2579
463.504	2253
463.533	2484
463.583	2760
463.601	2663
463.663	2231
463.669	2234
463.737	2132
463.743	2134
463.805	2700
463.823	2947
463.873	3294
463.903	3408
463.940	3116
463.982	2647
464.008	2620
464.062	2594
464.076	2422
464.142	1914
464.144	1948
464.211	2568
464.221	2757
464.279	2789
464.301	2667
464.347	2290
464.381	2054
464.414	2167
464.461	2389
464.482	2356
464.540	2046
464.550	2014
464.617	1849
464.620	1841
464.685	2669
464.699	2900
464.753	2911
464.779	2814
464.820	2933
464.859	3100
464.888	2453
464.938	1389
464.956	2011
465.018	3949
465.023	3849
465.091	2720
465.098	2613
465.158	2274
465.177	2118
465.226	2642
465.257	2968
465.293	3066
465.336	3221
465.361	2954
465.416	2327
465.428	2547
465.495	3617
465.496	3616
465.563	2633
465.575	2497
465.631	3082
465.654	3336
465.698	3107
465.734	2803
465.765	2599
465.813	2293
465.833	2398
465.893	2810
465.900	2863
465.968	3285
465.972	3308
466.035	2012
466.052	1650
466.102	2512
466.131	3035
466.170	2403
466.210	1706
466.237	2106
466.290	2863
466.304	2932
466.369	3258
466.372	3262
466.439	3330
466.449	3315
466.506	2947
466.528	2814
466.573	3222
466.607	3516
466.641	3409
466.687	3309
466.708	3393
466.766	3540
466.775	3524
466.842	3391
466.845	3381
466.909	3315
466.925	3293
466.977	3550
467.004	3680
467.044	3650
467.083	3617
467.111	3363
467.163	2875
467.178	2948
467.242	3232
467.245	3231
467.312	3150
467.321	3136
467.379	3542
467.400	3682
467.446	3606
467.480	3541
467.559	3968
467.638	3452
467.717	3471
467.796	3850
467.875	4693
467.955	3435
468.034	4845
468.113	5266
468.192	8253
468.271	6933
468.350	10663
468.429	15499
468.508	16873
468.588	9703
468.667	6859
468.746	4304
468.825	5015
468.904	3721
468.983	4321
469.062	3557
469.141	4706
469.220	2615
469.299	4153
469.378	2390
469.456	4882
469.535	3489
469.614	2237
469.693	2867
469.772	3825
469.851	3832
469.930	3862
470.009	3111
470.088	4153
470.166	2563
470.245	4358
470.324	3831
470.403	3592
470.482	3734
470.560	3522
470.639	2711
470.718	3871
470.797	2563
470.875	3167
470.954	2801
471.033	4216
471.111	3523
471.190	3405
471.269	3185
471.347	3451
471.426	2520
471.505	4124
471.583	2276
471.662	4353
471.740	2267
471.819	3969
471.898	2874
471.976	3457
472.055	2923
472.133	3925
472.212	3935
472.290	3083
472.369	2836
472.447	3157
472.526	2270
472.604	4100
472.683	2297
472.761	3733
472.839	2909
472.918	4324
472.996	3236
473.075	4360
473.153	2892
473.231	3025
473.310	3302
473.388	3559
473.466	2904
473.545	4077
473.623	3278
473.701	2570
473.780	3293
473.858	2775
473.936	4535
474.014	3652
474.093	3904
474.171	3880
474.249	3284
474.327	3686
474.405	3425
474.484	3871
474.562	2866
474.640	3579
474.718	2864
474.796	3093
474.874	3853
474.952	3305
475.030	1797
475.108	3633
475.187	2980
475.265	4355
475.343	3470
475.421	3594
475.499	2453
475.577	3963
475.655	3190
475.733	4365
475.811	3260
475.889	3757
475.966	3355
476.044	3252
476.122	2018
476.200	3999
476.278	2991
476.356	3290
476.434	2808
476.512	3165
476.590	2919
476.667	4275
476.745	2711
476.823	3380
476.901	3462
476.979	3740
477.056	3838
477.134	3506
477.212	3041
477.290	3129
477.367	3373
477.445	3594
477.523	2544
477.601	3673
477.678	3225
477.756	3708
477.834	3092
477.911	2966
477.989	3354
478.066	3688
478.144	3070
478.222	2752
478.299	2876
478.377	3237
478.454	3143
478.532	3579
478.609	2082
478.687	2891
478.764	2169
478.842	3002
478.919	3148
478.997	3717
479.074	2748
479.152	3127
479.229	3496
479.307	3300
479.384	2958
479.461	3560
479.539	2580
479.616	3363
479.694	2697
479.771	3978
479.848	2865
479.926	2308
480.003	3799
480.080	3941
480.157	2714
480.235	2961
480.312	2312
480.389	3468
480.467	2949
480.544	4552
480.621	2994
480.698	4426
480.775	3585
480.853	4625
480.930	3432
481.007	3946
481.084	3180
481.161	4932
481.238	4425
481.315	3587
481.392	2406
481.470	2978
481.547	3023
481.624	2893
481.701	3396
481.778	3812
481.855	3745
481.932	4766
482.009	4518
482.086	4126
482.163	4385
482.240	5816
482.317	5115
482.393	6161
482.470	4610
482.547	5633
482.624	3283
482.701	5759
482.778	3544
482.855	4160
482.932	3184
483.009	4197
483.085	5511
483.162	6015
483.239	6465
483.316	5269
483.393	5895
483.469	5257
483.546	3949
483.623	3998
483.699	3787
483.776	3819
483.853	2364
483.930	3828
484.006	3676
484.083	5458
484.160	3765
484.236	4556
484.313	3883
484.389	4503
484.466	5464
484.543	6389
484.619	7978
484.696	10259
484.772	5228
484.849	4295
484.925	3807
485.002	3790
485.078	3669
485.155	3790
485.231	3033
485.308	3807
485.384	3367
485.461	3882
485.537	2721
485.614	4131
485.690	2138
485.766	4134
485.843	3144
485.919	3680
485.995	2982
486.072	3632
486.148	2247
486.224	3242
486.301	2790
486.377	2859
486.453	2382
486.530	4531
486.606	3757
486.682	3766
486.758	4579
486.835	4507
486.911	2900
486.987	5268
487.063	5556
487.139	6063
487.215	6189
487.292	7684
487.368	7587
487.444	10283
487.520	13102
487.596	23050
487.672	58305
487.748	179946
487.824	260282
487.900	80356
487.976	21995
488.052	12516
488.128	8625
488.204	6721
488.280	5613
488.356	5554
488.432	4785
488.508	5002
488.584	3673
488.660	5197
488.736	2830
488.812	3101
488.888	3246
488.964	3932
489.039	3669
489.115	4294
489.191	3551
489.267	3717
489.343	2855
489.418	3400
489.494	2583
489.570	2487
489.646	4404
489.722	2874
489.797	2998
489.873	3908
489.949	3032
490.024	3483
490.100	3223
490.176	4355
490.251	2998
490.327	3522
490.403	2807
490.478	4192
490.554	3690
490.629	3216
490.705	3251
490.781	3976
490.856	2456
490.932	3674
491.007	3598
491.083	2339
491.158	2523
491.234	2926
491.309	2929
491.385	3199
491.460	2366
491.536	4676
491.611	2513
491.686	4193
491.762	2636
491.837	2615
491.913	3096
491.988	4219
492.063	2699
492.139	3148
492.214	3369
492.289	3127
492.365	1882
492.440	2842
492.515	2647
492.590	3197
492.666	2311
492.741	2851
492.816	2050
492.891	2558
492.967	3183
493.042	4044
493.117	1943
493.192	2631
493.267	3123
493.342	2977
493.418	3421
493.493	2588
493.568	2552
493.643	2915
493.718	2257
493.793	2578
493.868	2323
493.943	3706
494.018	2057
494.093	2555
494.168	2783
494.243	2481
494.318	2534
494.393	2586
494.468	2586
494.543	2755
494.618	2417
494.693	2976
494.768	2156
494.842	1938
494.917	2036
494.992	3234
495.067	1615
495.142	2149
495.217	1900
495.292	1932
495.366	1946
495.441	1312
495.516	2873
495.591	2313
495.665	2646
495.740	4708
495.815	3256
495.890	3070
495.964	796
496.039	4815
496.114	2312
496.188	3811
496.263	3060
496.338	2496
496.412	1118
496.487	3341
496.561	2027
496.636	2574
496.710	2450
496.785	3465
496.860	2161
496.934	2393
497.009	1892
497.083	2370
497.158	2166
497.232	2885
497.307	3053
497.381	2441
497.455	2666
497.530	2882
497.604	2465
497.679	3133
497.753	2953
497.827	1985
497.902	2516
497.976	3374
498.050	5058
498.125	13105
498.199	10356
498.273	3622
498.348	2868
498.422	3304
498.496	1768
498.570	3669
498.645	2752
498.719	2647
498.793	3282
498.867	3457
498.941	3204
499.016	6159
499.090	11232
499.164	4593
499.238	2835
499.312	3199
499.386	3000
499.460	4052
499.534	2650
499.609	3069
499.683	2106
499.757	4411
499.831	3455
499.905	8478
499.979	6940
500.053	2600
500.127	2571
500.201	2657
500.275	2265
500.349	2529
500.422	2312
500.496	3663
500.570	3572
500.644	7133
500.718	7548
500.792	4133
500.866	2497
500.940	3383
501.013	2952
501.087	2675
501.161	2406
501.235	1893
501.309	4679
501.382	7613
501.456	6531
501.530	3864
501.603	3192
501.677	2947
501.751	1746
501.825	4257
501.898	2516
501.972	4466
502.046	2306
502.119	2524
502.193	3648
502.266	4537
502.340	3342
502.413	2629
502.487	4247
502.561	2903
502.634	3336
502.708	3756
502.781	1724
502.855	3943
502.928	1157
503.002	3377
503.075	2021
503.149	3635
503.222	3450
503.295	2530
503.369	3763
503.442	2995
503.516	5354
503.589	7282
503.662	5968
503.736	6368
503.809	8853
503.882	9815
503.956	17661
504.029	36567
504.102	100535
504.175	140737
504.249	48738
504.322	19715
504.395	10194
504.468	7095
504.542	4248
504.615	3747
504.688	4207
504.761	2150
504.834	4230
504.907	3559
504.980	3251
505.053	2655
505.127	-335
505.200	4845
505.273	1582
505.346	2808
505.419	2122
505.492	2965
505.565	1738
505.638	3044
505.711	1587
505.784	2002
505.857	1544
505.930	3074
506.003	256
506.076	4389
506.149	1270
506.221	859
506.294	3407
506.367	2010
506.440	3176
506.513	3346
506.586	2664
506.659	2471
506.731	1549
506.804	1900
506.877	1138
506.950	2969
507.022	2114
507.095	1505
507.168	1895
507.241	3002
507.313	1169
507.386	1184
507.459	2789
507.531	1891
507.604	669
507.677	3013
507.749	609
507.822	2757
507.894	1769
507.967	2742
508.040	1046
508.112	2363
508.185	1715
508.257	629
508.330	2902
508.402	1464
508.475	1232
508.547	2450
508.620	2079
508.692	2393
508.765	1723
508.837	1510
508.909	2043
508.982	1761
509.054	2894
509.127	1446
509.199	970
509.271	1294
509.344	1593
509.416	2158
509.488	1077
509.560	3045
509.633	1538
509.705	2090
509.777	1784
509.849	2407
509.922	964
509.994	1979
510.066	2748
510.138	162
510.210	3472
510.283	1255
510.355	2682
510.427	2569
510.499	2293
510.571	1118
510.643	1353
510.715	3157
510.787	368
510.859	3290
510.931	2250
511.003	2318
511.076	3452
511.148	2170
511.219	309
511.291	2073
511.363	2108
511.435	2257
511.507	91
511.579	2751
511.651	2510
511.723	1782
511.795	1580
511.867	1857
511.939	1237
512.010	2055
512.082	1505
512.154	1038
512.226	1607
512.298	3368
512.369	2131
512.441	2517
512.513	2178
512.585	1938
512.656	2155
512.728	1566
512.800	798
512.871	1905
512.943	2087
513.015	1638
513.086	2159
513.158	2675
513.230	220
513.301	1937
513.373	2036
513.444	1979
513.516	1666
513.588	1855
513.659	2791
513.731	2507
513.802	803
513.874	3909
513.945	1826
514.016	968
514.088	2725
514.159	993
514.231	2287
514.302	1572
514.374	2049
514.445	702
514.516	3460
514.588	1446
514.659	681
514.730	1488
514.802	2703
514.873	234
514.944	3864
515.016	2899
515.087	1462
515.158	2693
515.229	2775
515.301	401
515.372	2015
515.443	1000
515.514	1462
515.585	1197
515.656	2205
515.728	2667
515.799	1260
515.870	2473
515.941	2407
516.012	1523
516.083	3133
516.154	2399
516.225	1964
516.296	3666
516.367	2240
516.438	2983
516.509	3189
516.580	3934
516.651	10563
516.722	27911
516.793	11991
516.864	3233
516.935	3339
517.006	5087
517.077	5330
517.148	10952
517.219	44318
517.289	61807
517.360	9176
517.431	4810
517.502	1389
517.573	4073
517.643	2119
517.714	2442
517.785	2998
517.856	2509
517.926	5078
517.997	6533
518.068	4640
518.138	8822
518.209	9911
518.280	34032
518.350	109068
518.421	40496
518.492	12877
518.562	13458
518.633	17552
518.703	28959
518.774	71664
518.845	177985
518.915	149781
518.986	40550
519.056	16741
519.127	11737
519.197	8056
519.268	7237
519.338	6298
519.408	3758
519.479	3737
519.549	3087
519.620	4298
519.690	2432
519.760	3023
519.831	2898
519.901	2909
519.971	3325
520.042	1632
520.112	2314
520.182	2651
520.253	3448
520.323	2127
520.393	1717
520.463	3301
520.534	-210
520.604	4597
520.674	3856
520.744	2029
520.814	1992
520.885	2610
520.955	2290
521.025	4283
521.095	2495
521.165	3617
521.235	2013
521.305	719
521.375	2972
521.445	2396
521.515	1978
521.585	3183
521.655	891
521.725	2913
521.795	3150
521.865	-410
521.935	4560
522.005	948
522.075	2155
522.145	3223
522.215	1887
522.285	2062
522.355	1323
522.424	2553
522.494	2649
522.564	2668
522.634	2241
522.704	3454
522.774	2282
522.843	1975
522.913	2291
522.983	2104
523.053	1643
523.122	2400
523.192	2101
523.262	1716
523.331	1547
523.401	3590
523.471	2463
523.540	2699
523.610	2495
523.680	2644
523.749	3803
523.819	2912
523.888	2632
523.958	2319
524.027	3831
524.097	3044
524.166	3282
524.236	1184
524.305	4642
524.375	1743
524.444	1633
524.514	3949
524.583	2332
524.653	1240
524.722	3375
524.791	1830
524.861	3873
524.930	2050
524.999	3077
525.069	2747
525.138	2863
525.207	3352
525.277	4580
525.346	3918
525.415	5182
525.484	4733
525.554	6009
525.623	6957
525.692	8265
525.761	9340
525.830	14056
525.900	17060
525.969	28797
526.038	54326
526.107	120575
526.176	313824
526.245	217692
526.314	69653
526.383	163869
526.452	201746
526.522	300425
526.591	230051
526.660	39869
526.729	24674
526.797	27611
526.867	41338
526.935	127804
527.004	426922
527.073	224429
527.142	33076
527.211	15642
527.280	10612
527.349	8095
527.418	5580
527.487	6653
527.555	2999
527.624	3705
527.693	2940
527.762	4968
527.831	2993
527.899	4453
527.968	4057
528.037	2004
528.106	4583
528.174	3787
528.243	3400
528.312	3546
528.380	2304
528.449	2278
528.518	4158
528.586	1927
528.655	3755
528.723	3546
528.792	2558
528.861	3103
528.929	1301
528.998	3851
529.066	2255
529.135	3503
529.203	1814
529.272	1871
529.340	4139
529.409	5015
529.477	2140
529.545	3009
529.614	4817
529.682	1638
529.751	3187
529.819	6989
529.887	3756
529.956	3422
530.024	3561
530.092	3401
530.161	3538
530.229	3806
530.297	2926
530.365	4696
530.434	4402
530.502	2785
530.570	4023
530.638	3140
530.707	3514
530.775	4756
530.843	3681
530.911	4211
530.979	4182
531.047	4238
531.115	3815
531.183	4198
531.252	4161
531.320	4270
531.388	2761
531.456	4983
531.524	1789
531.592	5661
531.660	5921
531.728	4609
531.796	3876
531.864	4534
531.932	3779
532.000	3637
532.067	3498
532.135	4570
532.203	5582
532.271	4461
532.339	6180
532.407	5809
532.475	4949
532.542	5771
532.610	4227
532.678	4148
532.746	7122
532.814	8061
532.881	5496
532.949	5518
533.017	5694
533.084	4554
533.152	5099
533.220	5582
533.287	3898
533.355	4625
533.423	5185
533.490	4957
533.558	5043
533.625	5585
533.693	4502
533.761	5323
533.828	4753
533.896	4781
533.963	5561
534.031	7037
534.098	7555
534.166	8375
534.233	7102
534.300	10968
534.368	8721
534.435	9090
534.503	9914
534.570	10942
534.637	10400
534.705	12902
534.772	16375
534.840	34148
534.907	143300
534.974	145195
535.041	19095
535.109	10806
535.176	7700
535.243	8820
535.310	7933
535.378	7839
535.445	8117
535.512	8166
535.579	8071
535.646	7450
535.714	8162
535.781	9077
535.848	8137
535.915	9178
535.982	6773
536.049	8569
536.116	9139
536.183	8462
536.250	7588
536.317	8318
536.384	7249
536.451	8532
536.518	8760
536.585	7004
536.652	9964
536.719	9359
536.786	5706
536.853	7755
536.920	8460
536.987	8359
537.053	6573
537.120	10521
537.187	10143
537.254	10386
537.321	8382
537.388	11068
537.454	7731
537.521	9212
537.588	8858
537.654	10197
537.721	9534
537.788	10953
537.855	9530
537.921	10952
537.988	7923
538.055	10005
538.121	7599
538.188	8969
538.254	7305
538.321	8353
538.388	9128
538.454	10645
538.521	10277
538.587	10295
538.654	9181
538.720	9645
538.787	9892
538.853	10401
538.920	9122
538.986	8832
539.053	7441
539.119	8482
539.185	9037
539.252	10911
539.318	9164
539.385	11922
539.451	8645
539.517	10635
539.583	9738
539.650	9812
539.716	9913
539.782	9360
539.849	8660
539.915	9882
539.981	9057
540.047	8787
540.114	8819
540.180	10338
540.246	9158
540.312	9856
540.378	9334
540.444	11914
540.510	10199
540.576	11626
540.643	8702
540.709	8306
540.775	8721
540.841	10137
540.907	9367
540.973	10957
541.039	9627
541.105	9883
541.171	9581
541.237	10330
541.303	11423
541.369	12435
541.435	10158
541.500	10435
541.566	8498
541.632	9361
541.698	8362
541.764	11669
541.830	9271
541.896	9026
541.961	10578
542.027	10296
542.093	9645
542.159	11325
542.224	8564
542.290	10929
542.356	9402
542.421	9372
542.487	9667
542.553	8734
542.618	9383
542.684	9801
542.750	9443
542.815	11090
542.881	8375
542.947	11580
543.012	11700
543.078	10041
543.143	8284
543.209	10193
543.274	9109
543.340	10024
543.405	10200
543.471	9295
543.536	10574
543.602	10801
543.667	8441
543.732	11992
543.798	9404
543.863	10998
543.928	9569
543.994	10914
544.059	10214
544.124	12178
544.190	10044
544.255	11709
544.320	11491
544.386	10217
544.451	10977
544.516	10958
544.581	10113
544.646	11547
544.712	12463
544.777	12502
544.842	11364
544.907	11480
544.972	10757
545.037	12609
545.102	12263
545.168	12346
545.233	13144
545.298	13699
545.363	12134
545.428	14310
545.493	14151
545.558	13587
545.623	13679
545.688	13243
545.753	14962
545.818	15083
545.883	16433
545.947	15547
546.012	17441
546.077	17518
546.142	19482
546.207	18627
546.272	20040
546.337	19823
546.401	21400
546.466	22573
546.531	22338
546.596	24711
546.661	25694
546.725	28114
546.790	29083
546.855	33410
546.919	33053
546.984	38389
547.049	40940
547.113	47172
547.178	51072
547.243	59288
547.307	67243
547.372	74559
547.436	75361
547.501	78615
547.565	84008
547.630	76356
547.695	74451
547.759	74615
547.823	75782
547.888	77767
547.952	79470
548.017	82901
548.081	84912
548.146	83846
548.210	86999
548.274	92204
548.339	91326
548.403	83676
548.468	78437
548.532	77235
548.596	78652
548.660	79908
548.725	87332
548.789	93575
548.853	90956
548.917	88430
548.982	85376
549.046	76357
549.110	69641
549.174	74001
549.238	84183
549.303	92388
549.367	94324
549.431	89435
549.495	84506
549.559	85496
549.623	99129
549.687	106786
549.751	103833
549.815	123899
549.879	126052
549.943	120953
550.007	125569
550.071	125499
550.135	112130
550.199	107371
550.263	104991
550.327	101060
550.391	101878
550.455	114435
550.519	118090
550.582	126393
550.646	140925
550.710	142335
550.774	139982
550.838	142770
550.901	144167
550.965	155184
551.029	157845
551.093	170592
551.156	179146
551.220	190860
551.284	200215
551.347	167298
551.411	150143
551.475	148095
551.538	153282
551.602	145426
551.666	137277
551.729	131398
551.793	129202
551.856	126166
551.920	124233
551.983	125843
552.047	123411
552.110	124765
552.174	126126
552.237	128623
552.301	118959
552.364	116476
552.428	113510
552.491	116989
552.554	117489
552.618	116651
552.681	117610
552.745	115744
552.808	118990
552.871	124266
552.934	120827
552.998	117821
553.061	114511
553.124	113266
553.187	111809
553.251	115531
553.314	114184
553.377	114895
553.440	123952
553.503	125944
553.567	126016
553.630	124536
553.693	126627
553.756	127698
553.819	124416
553.882	122040
553.945	122912
554.008	121991
554.071	124174
554.134	126335
554.197	118470
554.260	116998
554.323	120716
554.386	119491
554.449	123678
554.512	124381
554.575	118939
554.638	118148
554.701	116947
554.764	116352
554.827	112434
554.889	109976
554.952	102582
555.015	101374
555.078	103126
555.141	104770
555.203	101549
555.266	102481
555.329	101355
555.391	96425
555.454	95579
555.517	92325
555.580	87854
555.642	86654
555.705	83690
555.768	84345
555.830	81629
555.893	78651
555.955	75197
556.018	74080
556.080	74001
556.143	77443
556.206	73975
556.268	73251
556.330	70991
556.393	69100
556.455	69449
556.518	65554
556.580	63844
556.643	62579
556.705	59308
556.767	58524
556.830	58979
556.892	57254
556.955	55446
557.017	55281
557.079	54764
557.142	53701
557.204	51670
557.266	52041
557.328	48799
557.391	45891
557.453	42511
557.515	44058
557.577	44418
557.639	44474
557.701	43615
557.764	42533
557.826	43797
557.888	45515
557.950	45001
558.012	48090
558.074	58847
558.136	110964
558.198	206649
558.260	78284
558.322	45037
558.384	44302
558.446	45707
558.508	48113
558.570	51532
558.632	57735
558.694	70043
558.756	114083
558.818	282019
558.880	482975
558.942	208852
559.003	220765
559.065	101414
559.127	52407
559.189	49440
559.251	54518
559.312	75597
559.374	159953
559.436	382293
559.498	177323
559.559	55264
559.621	48933
559.683	56336
559.744	86045
559.806	230890
559.868	275306
559.929	72535
559.991	54908
560.052	83623
560.114	202229
560.176	120207
560.237	128300
560.299	169600
560.360	43158
560.422	24668
560.483	23045
560.545	20580
560.606	20776
560.667	19131
560.729	18095
560.790	17992
560.852	17946
560.913	16288
560.974	16832
561.036	17276
561.097	17349
561.158	16622
561.220	16732
561.281	15097
561.342	16300
561.403	15648
561.465	15252
561.526	15446
561.587	16125
561.648	14568
561.709	14583
561.771	14263
561.832	14501
561.893	13059
561.954	13676
562.015	13961
562.076	14155
562.137	11799
562.198	13177
562.259	13100
562.320	13042
562.381	12983
562.442	13007
562.503	11937
562.564	12890
562.625	13065
562.686	12736
562.747	11659
562.808	13563
562.869	11407
562.930	12541
562.991	11253
563.051	11365
563.112	11737
563.173	11871
563.234	9753
563.294	12309
563.355	11189
563.416	11594
563.477	11540
563.537	11312
563.598	9436
563.659	11839
563.720	9695
563.780	11171
563.841	10870
563.901	11109
563.962	11105
564.023	10417
564.083	9732
564.144	10932
564.204	9062
564.265	10274
564.325	10977
564.386	9790
564.446	10131
564.507	9842
564.567	9429
564.628	11000
564.688	9035
564.749	10599
564.809	9906
564.869	10297
564.930	9711
564.990	11301
565.050	8844
565.111	9593
565.171	9860
565.231	9678
565.292	10865
565.352	9205
565.412	10502
565.472	9793
565.532	9214
565.593	9586
565.653	9280
565.713	9718
565.773	10256
565.833	10297
565.893	11246
565.953	9893
566.013	8368
566.074	9316
566.134	8979
566.194	9516
566.254	9981
566.314	9087
566.374	8246
566.434	9722
566.494	8546
566.554	9172
566.614	8983
566.673	9243
566.733	11011
566.793	10120
566.853	9168
566.913	10212
566.973	9030
567.033	10352
567.092	9573
567.152	9775
567.212	9631
567.272	10597
567.331	9804
567.391	10318
567.451	10389
567.511	10750
567.570	10770
567.630	10600
567.690	10081
567.749	10079
567.809	8754
567.868	10462
567.928	10062
567.988	9529
568.047	9420
568.107	10347
568.166	9990
568.226	10895
568.285	9317
568.345	9876
568.404	10052
568.464	9909
568.523	10208
568.582	9958
568.642	8930
568.701	10691
568.761	9313
568.820	9226
568.879	8923
568.939	9501
568.998	9564
569.057	9581
569.116	9761
569.176	9839
569.235	8634
569.294	10771
569.353	8911
569.413	9243
569.472	8722
569.531	9225
569.590	8685
569.649	9212
569.708	8458
569.767	10070
569.827	9545
569.886	9594
569.945	8566
570.004	10167
570.063	9238
570.122	9762
570.181	10789
570.240	10590
570.299	9837
570.358	9738
570.417	9557
570.475	10155
570.534	10630
570.593	10636
570.652	9883
570.711	10541
570.770	9318
570.829	10266
570.887	9707
570.946	10612
571.005	9458
571.064	9821
571.122	10224
571.181	10518
571.240	8745
571.299	10288
571.357	9263
571.416	9892
571.475	9327
571.533	10192
571.592	10372
571.650	10915
571.709	10488
571.768	11690
571.826	10707
571.885	11073
571.943	9377
572.002	10427
572.060	9711
572.119	9173
572.177	9385
572.236	9948
572.294	10273
572.352	11074
572.411	10143
572.469	10600
572.528	9861
572.586	9530
572.644	9712
572.703	9247
572.761	8782
572.819	9303
572.877	8839
572.936	9132
572.994	8939
573.052	9284
573.110	8829
573.169	9787
573.227	9876
573.285	10176
573.343	8977
573.401	9770
573.459	9149
573.517	9149
573.576	9721
573.634	8933
573.692	8492
573.750	9405
573.808	8140
573.866	9367
573.924	8517
573.982	9194
574.040	8061
574.098	9731
574.155	7659
574.213	8324
574.271	8323
574.329	9051
574.387	8034
574.445	9010
574.503	7123
574.560	8409
574.618	7855
574.676	8252
574.734	7984
574.792	8622
574.849	7398
574.907	7206
574.965	7722
575.022	7082
575.080	6436
575.138	7025
575.195	7011
575.253	6634
575.311	6531
575.368	7530
575.426	6512
575.483	7379
575.541	7345
575.598	7260
575.656	6687
575.713	6939
575.771	6713
575.828	6625
575.886	6102
575.943	7033
576.001	5050
576.058	4981
576.115	6693
576.173	5656
576.230	5991
576.287	6536
576.345	6633
576.402	6913
576.459	6510
576.517	6342
576.574	5997
576.631	7531
576.688	5465
576.746	6604
576.803	6738
576.860	6400
576.917	6519
576.974	6404
577.031	5998
577.089	6768
577.146	4740
577.203	5950
577.260	4856
577.317	5717
577.374	5483
577.431	5854
577.488	5339
577.545	5223
577.602	5772
577.659	5040
577.716	6265
577.773	7135
577.830	6105
577.886	6417
577.943	5028
578.000	5971
578.057	5818
578.114	6017
578.171	5464
578.227	5550
578.284	6001
578.341	6305
578.398	5917
578.454	6392
578.511	5813
578.568	6923
578.625	5524
578.681	6418
578.738	6093
578.794	6612
578.851	6509
578.908	6149
578.964	5085
579.021	6089
579.077	6074
579.134	6332
579.190	5558
579.247	7024
579.303	5840
579.360	5489
579.416	5536
579.473	6588
579.529	5783
579.586	6247
579.642	5190
579.698	7093
579.755	6357
579.811	6658
579.867	6045
579.924	6283
579.980	6115
580.036	6410
580.093	7176
580.149	6692
580.205	6342
580.261	7202
580.317	6566
580.374	6041
580.430	6894
580.486	7146
580.542	6207
580.598	7519
580.619	7028
580.654	6172
580.692	6626
580.710	6845
580.765	6608
580.767	6595
580.823	7112
580.838	7043
580.879	6883
580.911	6944
580.935	6969
580.984	6530
580.991	6472
581.047	8280
581.057	7972
581.103	6560
581.130	7142
581.159	7753
581.203	7713
581.215	7691
581.270	6870
581.276	6838
581.326	6461
581.349	6819
581.382	7368
581.422	6758
581.438	6489
581.494	7367
581.494	7367
581.550	6613
581.567	6998
581.606	7787
581.640	6952
581.661	6477
581.713	8256
581.717	8385
581.773	7384
581.786	7538
581.829	8034
581.859	7416
581.885	6910
581.932	7976
581.940	8160
581.996	8390
582.004	8404
582.052	8378
582.077	8123
582.107	7806
582.150	8894
582.163	9218
582.219	7868
582.223	7865
582.274	7883
582.296	7991
582.330	8036
582.368	8904
582.386	9370
582.441	8320
582.441	8312
582.497	7951
582.514	8094
582.552	8512
582.587	8579
582.608	8570
582.659	7892
582.663	7841
582.719	9221
582.732	9046
582.774	8497
582.805	8561
582.830	8556
582.877	8863
582.885	8932
582.941	9102
582.950	9140
582.996	9108
583.023	9501
583.052	10199
583.095	9705
583.107	9492
583.162	10009
583.168	9960
583.218	9396
583.240	9503
583.273	9640
583.313	9071
583.328	8943
583.384	9830
583.385	9829
583.439	9327
583.458	9362
583.494	9776
583.531	9641
583.549	9473
583.603	9906
583.605	9921
583.660	9935
583.676	10029
583.715	10585
583.748	10822
583.770	10836
583.820	10908
583.825	10912
583.881	10312
583.893	10418
583.936	11125
583.965	10969
583.991	10678
584.038	11473
584.046	11651
584.101	11032
584.110	11211
584.156	12121
584.183	11905
584.211	11558
584.255	12189
584.266	12431
584.321	11911
584.328	11957
584.376	12306
584.400	12332
584.431	12443
584.472	13030
584.486	13222
584.541	13977
584.545	14011
584.596	14880
584.617	14640
584.651	14539
584.689	15275
584.706	15349
584.761	14944
584.762	14927
584.816	15901
584.834	16246
584.871	16570
584.906	17128
584.926	17506
584.978	17521
584.980	17563
585.035	19517
585.051	19783
585.090	20552
585.123	21908
585.145	23035
585.195	23593
585.200	23735
585.254	27241
585.267	28118
585.309	31657
585.340	34022
585.364	36185
585.412	40961
585.419	42010
585.473	51715
585.484	54020
585.528	69611
585.556	83263
585.583	112811
585.628	174239
585.637	196816
585.692	368827
585.700	394256
585.747	464875
585.772	429312
585.801	302705
585.845	147423
585.856	127589
585.910	68848
585.917	62406
585.965	48358
585.989	42217
586.019	38980
586.061	34844
586.074	34313
586.128	32971
586.133	32693
586.183	30521
586.205	29945
586.237	29945
586.277	29280
586.292	29109
586.346	29205
586.349	29097
586.401	28877
586.421	29137
586.455	29511
586.493	29330
586.509	29623
586.564	30653
586.565	30599
586.618	31378
586.637	32000
586.672	35597
586.709	38875
586.727	40088
586.781	44464
586.781	44555
586.835	38129
586.853	36588
586.889	34435
586.925	31998
586.944	31765
586.996	32087
586.998	32188
587.052	32431
587.068	32455
587.106	33060
587.140	33032
587.161	33033
587.212	33208
587.215	33302
587.269	34372
587.284	34245
587.323	34868
587.356	35186
587.377	35626
587.427	37102
587.431	37286
587.485	38148
587.499	38225
587.539	39170
587.571	39739
587.593	40784
587.643	43258
587.648	43508
587.702	44029
587.715	44202
587.755	44934
587.786	45053
587.810	45175
587.858	45246
587.864	45483
587.917	45471
587.930	45625
587.971	46296
588.001	46517
588.025	46587
588.073	45648
588.079	45848
588.133	46967
588.145	47096
588.187	47289
588.217	46890
588.241	47430
588.288	48368
588.295	48698
588.348	50208
588.360	50508
588.402	50914
588.431	50273
588.456	50613
588.503	51678
588.510	52132
588.564	54309
588.575	54693
588.617	56840
588.646	57647
588.671	59197
588.718	62504
588.725	63413
588.778	69200
588.789	70562
588.832	91401
588.861	106583
588.886	141282
588.932	212656
588.939	219124
588.993	261039
589.004	262190
589.047	164215
589.075	104724
589.100	89260
589.147	65677
589.154	65313
589.207	60983
589.218	59983
589.261	61480
589.290	62392
589.314	63541
589.361	65252
589.368	66654
589.421	77205
589.433	79603
589.475	115538
589.504	141807
589.528	175818
589.576	244600
589.582	237790
589.635	147193
589.647	128433
589.689	90772
589.718	66472
589.742	64693
589.790	60508
589.795	60657
589.849	60241
589.861	60076
589.902	60381
589.932	59566
589.955	59726
590.004	60041
590.009	60144
590.062	58759
590.075	58201
590.115	59280
590.146	59787
590.168	60204
590.218	60288
590.222	60637
590.275	62312
590.289	62532
590.328	64244
590.360	65112
590.381	65440
590.431	65592
590.435	65911
590.488	66680
590.503	66720
590.541	67468
590.574	67621
590.594	68938
590.645	71630
590.647	71964
590.700	73358
590.716	73477
590.753	75740
590.787	77296
590.806	78504
590.859	80967
590.859	81302
590.912	82248
590.930	82382
590.965	83777
591.001	84248
591.018	84306
591.071	83754
591.072	83418
591.124	82798
591.143	82131
591.177	83261
591.214	83832
591.230	84532
591.283	85821
591.285	85529
591.336	86076
591.356	85726
591.389	86179
591.427	86088
591.442	86171
591.495	85176
591.498	84749
591.547	85848
591.569	85940
591.600	87706
591.640	89055
591.653	89383
591.706	89381
591.711	89011
591.759	92562
591.782	93810
591.811	96171
591.853	98592
591.864	99251
591.917	100611
591.924	100377
591.969	100471
591.995	99864
592.022	100982
592.066	101761
592.075	102586
592.127	105091
592.137	105098
592.180	107119
592.208	107758
592.233	109505
592.279	111464
592.285	112430
592.338	116634
592.350	117088
592.390	116397
592.421	115061
592.443	116677
592.491	118623
592.495	119403
592.548	123208
592.562	123737
592.600	123045
592.633	121484
592.653	122102
592.704	121686
592.705	122447
592.775	125306
592.846	131411
592.916	130866
592.987	131618
593.058	132664
593.128	134756
593.199	136288
593.270	137114
593.341	140766
593.411	145451
593.482	151233
593.553	154493
593.623	154670
593.694	160521
593.764	162728
593.835	160036
593.906	162622
593.976	166301
594.047	169674
594.117	177010
594.188	182506
594.258	179836
594.329	179036
594.399	186507
594.470	189263
594.540	195701
594.611	198476
594.681	198941
594.751	196253
594.822	206135
594.892	212907
594.963	217260
595.033	223108
595.103	231206
595.174	231908
595.244	237879
595.314	240106
595.384	250567
595.455	255866
595.525	264242
595.595	272967
595.665	273233
595.736	265370
595.806	272715
595.876	274891
595.946	276752
596.016	289872
596.087	297674
596.157	297260
596.227	299663
596.297	311221
596.367	333230
596.437	348539
596.507	348122
596.577	344870
596.647	356378
596.717	373649
596.787	379138
596.857	378371
596.927	382372
596.997	380390
597.067	386881
597.137	390627
597.207	393800
597.277	396515
597.347	380161
597.417	370811
597.487	370759
597.557	379160
597.626	387324
597.696	393935
597.766	388986
597.836	367478
597.906	351841
597.975	346957
598.045	351444
598.115	362401
598.185	389234
598.254	432318
598.324	460789
598.394	466838
598.464	454142
598.533	448043
598.603	418409
598.672	408114
598.742	417717
598.812	418425
598.881	428801
598.951	425840
599.020	434745
599.090	446798
599.159	453686
599.229	437117
599.299	431949
599.368	444517
599.437	433245
599.507	404082
599.576	395125
599.646	387049
599.715	383016
599.785	382015
599.854	370661
599.924	361221
599.993	361213
600.062	370505
600.132	381988
600.201	398877
600.270	455345
600.340	477425
600.409	468636
600.478	463044
600.547	472013
600.617	428938
600.686	352561
600.755	323735
600.824	308776
600.894	301214
600.963	304585
601.032	299418
601.101	291179
601.170	276681
601.239	269381
601.308	268381
601.378	268877
601.447	269480
601.516	272841
601.585	271561
601.654	277236
601.723	276291
601.792	284561
601.861	293506
601.930	302242
601.999	306152
602.068	303777
602.137	308427
602.206	312292
602.275	318599
602.343	321271
602.412	321144
602.481	324117
602.550	328007
602.619	337420
602.688	338415
602.756	343258
602.825	343791
602.894	355939
602.963	356820
603.032	364553
603.100	365087
603.169	365333
603.238	370017
603.307	370497
603.375	372551
603.444	380042
603.513	386784
603.581	389916
603.650	395392
603.719	389677
603.787	401969
603.856	413013
603.924	417843
603.993	433553
604.061	447029
604.130	462323
604.198	469759
604.267	477180
604.335	485984
604.404	489355
604.472	494367
604.541	499081
604.609	505659
604.678	504356
604.746	507943
604.815	519187
604.883	524095
604.951	524392
605.020	536458
605.088	544012
605.156	549477
605.225	557530
605.293	558534
605.361	558526
605.429	563355
605.498	572433
605.566	585305
605.634	606797
605.702	623771
605.771	639312
605.839	639020
605.907	629255
605.975	612524
606.043	605414
606.111	605261
606.180	603416
606.248	600769
606.316	597201
606.384	594430
606.452	597720
606.520	610306
606.588	631034
606.656	633338
606.724	623313
606.792	598019
606.860	548778
606.928	510324
606.996	493906
607.064	483462
607.132	494461
607.200	518269
607.267	536756
607.335	543446
607.403	554803
607.471	536653
607.539	523459
607.607	524569
607.674	474985
607.742	472772
607.810	466543
607.878	470651
607.946	480392
608.013	499826
608.081	505987
608.149	509997
608.216	525040
608.284	537996
608.352	538077
608.419	537004
608.487	524382
608.555	518917
608.622	532972
608.690	563258
608.757	604141
608.825	611948
608.893	600659
608.960	570926
609.028	552538
609.095	554443
609.163	551365
609.230	500460
609.298	465629
609.365	490763
609.432	519755
609.500	555758
609.567	617945
609.635	684362
609.702	705207
609.769	674056
609.837	553297
609.904	495401
609.971	501319
610.039	520441
610.106	573979
610.173	754939
610.241	1115073
610.308	883829
610.375	597122
610.442	534700
610.509	516507
610.577	516505
610.644	523868
610.711	536247
610.778	549171
610.845	567831
610.912	594216
610.980	612614
611.047	609903
611.114	604116
611.181	587338
611.248	589356
611.315	614858
611.382	628191
611.449	647436
611.516	648859
611.583	642455
611.650	649013
611.717	650013
611.784	655285
611.851	669038
611.918	678950
611.984	726303
612.051	815644
612.118	1037407
612.185	1391531
612.252	1234369
612.319	878950
612.386	788804
612.452	736848
612.519	712297
612.586	701571
612.653	707321
612.719	725446
612.786	706977
612.853	668372
612.919	663311
612.986	669180
613.053	640439
613.120	613212
613.186	594295
613.253	594975
613.319	600014
613.386	601450
613.453	608369
613.519	611953
613.586	601494
613.652	609719
613.719	602154
613.785	612634
613.852	620822
613.918	617258
613.985	617882
614.051	637094
614.118	627676
614.184	609624
614.250	614397
614.317	625650
614.383	616218
614.449	626848
614.516	623868
614.582	627382
614.648	614918
614.715	612285
614.781	601455
614.847	604562
614.914	601375
614.980	588632
615.046	590971
615.112	605109
615.179	605136
615.245	612353
615.311	605162
615.377	608215
615.443	616669
615.509	621239
615.575	632981
615.642	628789
615.708	640030
615.774	654611
615.840	673897
615.906	679770
615.972	730931
616.038	850959
616.104	1146315
616.170	1466148
616.236	1380158
616.302	1025313
616.368	896699
616.434	757860
616.500	711214
616.565	735865
616.631	829051
616.697	761069
616.763	749718
616.829	890124
616.895	1202443
616.961	1173472
617.026	818033
617.092	675477
617.158	645138
617.224	630669
617.289	596229
617.355	575179
617.421	568137
617.487	566541
617.552	546306
617.618	542534
617.684	546820
617.749	547181
617.815	530816
617.880	522023
617.946	520874
618.012	529285
618.077	540988
618.143	518836
618.208	523906
618.274	553490
618.339	552679
618.405	476277
618.470	480322
618.536	478181
618.601	472121
618.667	444213
618.732	425089
618.798	421968
618.863	421517
618.928	418513
618.994	421378
619.059	414738
619.124	419148
619.190	416320
619.255	416061
619.320	413958
619.386	416712
619.451	413414
619.516	402576
619.581	410927
619.647	422600
619.712	423043
619.777	407762
619.842	408190
619.907	419943
619.972	424309
620.038	419065
620.103	410458
620.168	412967
620.233	417074
620.298	422783
620.363	426899
620.428	434707
620.493	445892
620.558	445948
620.623	453165
620.688	450806
620.753	447401
620.818	454265
620.883	455110
620.948	452405
621.013	449114
621.078	444291
621.143	447418
621.207	452098
621.272	443923
621.337	431493
621.402	428444
621.467	425596
621.532	424850
621.596	426201
621.661	417794
621.726	415486
621.791	418199
621.855	416520
621.920	414076
621.985	419152
622.049	428659
622.114	428211
622.179	430290
622.243	439965
622.308	453135
622.373	463435
622.437	457468
622.502	437224
622.566	432970
622.631	434495
622.695	444097
622.760	438268
622.824	436095
622.889	439246
622.953	438888
623.018	460206
623.082	465743
623.147	458615
623.211	451775
623.276	451845
623.340	439255
623.404	433916
623.469	430454
623.533	435374
623.597	424937
623.662	425003
623.726	400111
623.790	382854
623.854	371274
623.919	378934
623.983	383308
624.047	391500
624.111	391950
624.176	398143
624.240	399415
624.304	407462
624.368	399067
624.432	397826
624.496	403614
624.560	423154
624.625	426826
624.689	421111
624.753	438271
624.817	421708
624.881	411680
624.945	380662
625.009	371410
625.073	377248
625.137	388632
625.201	398848
625.265	400526
625.329	386102
625.393	393961
625.456	393907
625.520	405065
625.584	410176
625.648	418734
625.712	424037
625.776	421541
625.839	395568
625.903	350725
625.967	331248
626.031	350493
626.095	400798
626.158	378062
626.222	311175
626.286	294692
626.349	285510
626.413	270677
626.477	267147
626.540	272771
626.604	267619
626.668	264177
626.731	261801
626.795	261568
626.858	261158
626.922	256118
626.986	252962
627.049	257182
627.113	265599
627.176	258444
627.240	249903
627.303	253865
627.366	248074
627.430	252818
627.493	248706
627.557	245457
627.620	248483
627.684	259049
627.747	256885
627.810	241145
627.874	217382
627.937	209888
628.000	214937
628.064	211331
628.127	193369
628.190	190152
628.253	185616
628.317	178556
628.380	169617
628.443	166501
628.506	165204
628.569	158809
628.632	152832
628.696	154235
628.759	151723
628.822	145284
628.885	143918
628.948	141862
629.011	139200
629.074	135550
629.137	131377
629.200	128121
629.263	127110
629.326	125552
629.389	126901
629.452	124516
629.515	122090
629.578	119944
629.641	121606
629.704	123436
629.767	122034
629.830	117904
629.892	115023
629.955	113865
630.018	117654
630.081	115134
630.144	115739
630.207	111869
630.269	114816
630.332	109320
630.395	108261
630.458	104745
630.520	102702
630.583	104164
630.646	105543
630.708	106592
630.771	107273
630.834	113713
630.896	111553
630.959	109564
631.021	106103
631.084	107221
631.146	107559
631.209	107179
631.272	104926
631.334	107580
631.397	108171
631.459	108152
631.522	110263
631.584	111238
631.646	115445
631.709	114672
631.771	114729
631.834	112124
631.896	109643
631.958	106598
632.021	106527
632.083	100547
632.145	102138
632.208	100259
632.270	101480
632.332	100962
632.395	100291
632.457	102257
632.519	98890
632.581	99491
632.643	98880
632.706	99476
632.768	98343
632.830	98109
632.892	102014
632.954	102434
633.016	104168
633.078	101518
633.141	102562
633.203	99554
633.265	99568
633.327	98900
633.389	101178
633.451	101137
633.513	99453
633.575	101429
633.637	99358
633.698	101355
633.760	107343
633.822	108822
633.884	109357
633.946	109927
634.008	110406
634.070	110095
634.132	112445
634.193	118272
634.255	122963
634.317	125598
634.379	124436
634.441	116137
634.502	111199
634.564	104117
634.626	99611
634.687	96191
634.749	93511
634.811	96710
634.873	93156
634.934	94830
634.996	95938
635.057	93553
635.119	95929
635.181	96829
635.242	97709
635.304	95211
635.365	100395
635.427	95377
635.488	95793
635.550	94381
635.611	94593
635.673	92648
635.734	98847
635.796	101235
635.857	105934
635.918	108838
635.980	115393
636.041	116873
636.102	123043
636.164	121764
636.225	119160
636.286	107944
636.348	103485
636.409	95982
636.470	95280
636.531	94102
636.593	92735
636.654	91853
636.715	87599
636.776	88185
636.838	85873
636.899	85827
636.960	84829
637.021	82986
637.082	81713
637.143	82211
637.204	78381
637.265	79130
637.326	81377
637.387	83186
637.448	82108
637.509	82986
637.570	82626
637.631	80808
637.692	78696
637.753	77221
637.814	78479
637.875	76454
637.936	77980
637.997	77718
638.058	76450
638.119	77595
638.179	77427
638.240	77149
638.301	77573
638.362	76122
638.423	74369
638.483	74597
638.544	71500
638.605	72306
638.666	73131
638.726	73644
638.787	73467
638.848	72592
638.908	71575
638.969	71517
639.030	69835
639.090	69264
639.151	69634
639.211	70719
639.272	70540
639.332	70072
639.393	70709
639.453	73410
639.514	74618
639.574	68892
639.635	65841
639.695	67166
639.756	65021
639.816	65555
639.877	63603
639.937	65758
639.997	65679
640.058	63685
640.118	64530
640.178	65910
640.239	65066
640.299	64243
640.359	64586
640.420	67370
640.480	71678
640.540	74185
640.600	76929
640.661	71507
640.721	70669
640.781	71201
640.841	66401
640.901	65138
640.961	66432
641.021	66455
641.082	68948
641.142	65017
641.202	64892
641.262	61106
641.322	64263
641.382	60617
641.442	63999
641.502	62208
641.562	62662
641.622	63352
641.682	64903
641.742	69993
641.802	67308
641.861	63110
641.921	60626
641.981	60146
642.041	57093
642.101	57001
642.161	55313
642.221	56544
642.280	57370
642.340	57657
642.400	58421
642.460	59700
642.519	59114
642.579	60383
642.639	61111
642.698	56502
642.758	62068
642.818	61212
642.877	59108
642.937	60006
642.997	58712
643.056	60076
643.116	59415
643.175	59866
643.235	61260
643.294	62373
643.354	63198
643.414	65152
643.473	70128
643.532	75274
643.592	86144
643.651	110709
643.711	158842
643.770	262297
643.830	509318
643.889	742843
643.948	337008
644.008	131527
644.067	90692
644.126	73564
644.186	66541
644.245	63165
644.304	57319
644.363	59789
644.423	56352
644.482	58011
644.541	58529
644.600	58273
644.659	66313
644.719	72303
644.778	91148
644.837	131559
644.896	231031
644.955	419692
645.014	176477
645.073	77694
645.132	64954
645.191	61818
645.250	59582
645.309	62146
645.368	65990
645.427	78591
645.486	116881
645.545	175266
645.604	72304
645.663	56693
645.722	55088
645.781	57575
645.840	60309
645.898	64382
645.957	78431
646.016	98273
646.075	147750
646.134	246177
646.192	510467
646.251	599395
646.310	207493
646.369	99338
646.427	85727
646.486	69164
646.545	60237
646.603	55275
646.662	54155
646.721	51564
646.779	48868
646.838	50455
646.896	56430
646.955	65453
647.014	88611
647.072	143810
647.131	317503
647.189	165029
647.248	58187
647.306	49893
647.365	48213
647.423	42007
647.481	46045
647.540	43034
647.598	43607
647.657	44766
647.715	43983
647.773	42018
647.832	42708
647.890	38697
647.948	39492
648.007	38846
648.065	36754
648.123	37261
648.181	37359
648.240	37862
648.298	35745
648.356	35989
648.414	36625
648.472	34703
648.531	36056
648.589	33709
648.647	33889
648.705	33743
648.763	34039
648.821	34798
648.879	34857
648.937	36678
648.995	40088
649.053	43092
649.111	54605
649.169	74245
649.227	115435
649.285	219843
649.343	465724
649.401	251728
649.459	70180
649.516	46883
649.574	39559
649.632	39747
649.690	41732
649.748	47349
649.806	61718
649.863	100379
649.921	245845
649.979	161576
650.037	43123
650.094	32208
650.152	30983
650.210	28588
650.268	29145
650.325	29914
650.383	28396
650.440	25302
650.498	26222
650.556	26485
650.613	25660
650.671	27584
650.728	25782
650.786	27318
650.843	35222
650.901	28222
650.958	25108
651.016	23885
651.073	24536
651.131	23036
651.188	22559
651.246	22933
651.303	21211
651.360	23186
651.418	21814
651.475	22430
651.532	21496
651.590	22440
651.647	21477
651.704	21032
651.762	21695
651.819	21226
651.876	20613
651.933	20195
651.990	20354
652.048	19489
652.105	19721
652.162	20625
652.219	20111
652.276	19912
652.333	20481
652.390	17855
652.448	19727
652.505	19490
652.562	19556
652.619	18802
652.676	18794
652.733	20520
652.790	18867
652.847	17503
652.904	18716
652.961	17229
653.017	17326
653.074	18310
653.131	18914
653.188	16747
653.245	17139
653.302	18397
653.359	17765
653.415	18124
653.472	17981
653.529	17650
653.586	17967
653.642	17751
653.699	18160
653.756	16116
653.813	17554
653.869	18208
653.926	17789
653.983	17453
654.039	18328
654.096	17452
654.152	17993
654.209	15785
654.266	16950
654.322	15959
654.379	17720
654.435	16932
654.492	17218
654.548	16882
654.605	15697
654.661	17044
654.717	16495
654.774	16450
654.830	16467
654.887	16531
654.943	17159
655.000	16620
655.056	17304
655.112	17113
655.168	16842
655.225	16678
655.281	16327
655.337	16164
655.394	15675
655.450	15650
655.506	16007
655.562	15027
655.618	17228
655.675	14185
655.731	16060
655.787	14819
655.843	16268
655.899	14775
655.955	16058
656.011	16524
656.067	14377
656.123	15731
656.179	15346
656.235	15955
656.291	15184
656.347	17143
656.403	15793
656.459	15199
656.515	15361
656.571	14801
656.627	14880
656.683	15200
656.739	15686
656.795	15105
656.850	14701
656.906	15193
656.962	15614
657.018	16480
657.074	19280
657.129	24042
657.185	34788
657.241	72809
657.297	39267
657.352	17392
657.408	15467
657.464	15467
657.519	14062
657.575	13612
657.630	14455
657.686	13950
657.742	13925
657.797	13663
657.853	14722
657.908	15230
657.964	12644
658.019	13390
658.075	14904
658.130	13888
658.186	13358
658.241	13796
658.297	12670
658.352	13191
658.407	13075
658.463	12002
658.518	12870
658.573	13899
658.629	12461
658.684	12657
658.739	13497
658.795	12640
658.850	13029
658.905	13213
658.960	13576
659.016	12827
659.071	12675
659.126	12682
659.181	12392
659.236	12887
659.291	12681
659.346	12035
659.401	12403
659.457	13567
659.512	11961
659.567	13136
659.622	12924
659.677	11779
659.732	11934
659.787	12301
659.842	11968
659.897	11950
659.952	12909
660.007	12556
660.061	12597
660.116	11405
660.171	11507
660.226	11985
660.281	12481
660.336	11017
660.391	12176
660.445	10801
660.500	12718
660.555	11050
660.610	10927
660.664	11389
660.719	10675
660.774	12302
660.828	11644
660.883	11333
660.938	11813
660.992	11036
661.047	12120
661.101	10963
661.156	11451
661.211	10385
661.265	11742
661.320	11299
661.374	11256
661.429	10865
661.483	11903
661.538	10799
661.592	11492
661.647	11295
661.701	12662
661.755	11223
661.810	12081
661.864	9890
661.919	10730
661.973	10762
662.027	10734
662.081	9911
662.136	11142
662.190	11491
662.244	11820
662.299	9963
662.353	11688
662.407	10346
662.461	10806
662.515	10283
662.569	11358
662.624	10404
662.678	10589
662.732	10244
662.786	10838
662.840	10215
662.894	11450
662.948	10586
663.002	9561
663.056	11357
663.110	10526
663.164	11122
663.218	10641
663.272	10738
663.326	10741
663.380	10202
663.434	10810
663.488	10390
663.542	10850
663.595	10761
663.649	11470
663.703	11080
663.757	10367
663.811	10413
663.864	10597
663.918	10869
663.972	10285
664.026	10029
664.079	9649
664.133	10739
664.187	10371
664.240	10818
664.294	11377
664.348	10718
664.401	10457
664.455	10979
664.508	10654
664.562	10634
664.615	11099
664.669	9682
664.722	10513
664.776	9214
664.829	10523
664.883	10701
664.936	10191
664.990	10726
665.043	10818
665.097	10781
665.150	10757
665.203	9969
665.257	10653
665.310	10649
665.363	11699
665.417	11292
665.470	10291
665.523	9666
665.576	10322
665.630	10435
665.683	9751
665.736	10686
665.789	9911
665.842	9961
665.895	10738
665.949	11090
666.002	11282
666.055	10615
666.108	12218
666.161	11664
666.214	11884
666.267	11531
666.320	11732
666.373	11564
666.426	11799
666.479	11511
666.532	10907
666.585	10964
666.638	12423
666.691	10976
666.744	11793
666.796	11367
666.849	11362
666.902	11979
666.955	11157
667.008	10489
667.060	11491
667.113	12196
667.166	12348
667.219	12484
667.271	12781
667.324	12291
667.377	11706
667.430	11586
667.482	11451
667.535	11331
667.587	12411
667.640	11538
667.693	10908
667.745	11106
667.798	11767
667.850	10780
667.903	12666
667.955	11811
668.008	10969
668.060	11145
668.113	11781
668.165	10432
668.218	11467
668.270	11084
668.322	11690
668.375	10580
668.427	11494
668.479	10608
668.532	11343
668.584	10884
668.636	10797
668.689	11436
668.741	10544
668.793	10564
668.845	11110
668.898	11782
668.950	10936
669.002	11719
669.054	11063
669.106	10055
669.158	10986
669.211	10252
669.263	10595
669.315	10988
669.367	10453
669.419	9554
669.471	11185
669.523	9884
669.575	10841
669.627	9467
669.679	10140
669.731	10383
669.783	10374
669.835	9744
669.886	9505
669.938	10570
669.990	9935
670.042	9913
670.094	9213
670.146	9722
670.197	10232
670.249	9694
670.301	9948
670.353	10662
670.404	10539
670.456	9897
670.508	11690
670.560	12630
670.611	16370
670.663	20758
670.715	40426
670.766	51735
670.818	18153
670.869	11619
670.921	10454
670.972	11325
671.024	10777
671.075	9047
671.127	9686
671.178	10293
671.230	10960
671.281	11390
671.333	13712
671.384	12670
671.436	16249
671.487	22219
671.538	28546
671.590	43910
671.641	70189
671.692	120930
671.744	205204
671.795	149911
671.846	65091
671.897	35250
671.949	24910
672.000	18708
672.051	16060
672.102	14011
672.153	12357
672.204	10478
672.256	10520
672.307	10033
672.358	10136
672.409	9307
672.460	9084
672.511	8587
672.562	8200
672.613	8590
672.664	7961
672.715	9386
672.766	7509
672.817	7573
672.868	7885
672.919	7023
672.970	6844
673.021	7889
673.071	7076
673.122	6306
673.173	7447
673.224	8128
673.275	7618
673.326	6517
673.376	7506
673.427	6263
673.478	7567
673.528	8194
673.579	7340
673.630	7584
673.680	8496
673.731	7187
673.782	7453
673.832	7089
673.883	6838
673.934	7105
673.984	6960
674.035	7413
674.085	7252
674.136	6651
674.186	6892
674.237	6965
674.287	7117
674.338	7083
674.388	7417
674.438	8045
674.489	7565
674.539	8050
674.589	8275
674.640	8057
674.690	7774
674.740	7122
674.791	7301
674.841	6946
674.891	6106
674.942	6016
674.992	5424
675.042	4599
675.092	5662
675.142	4654
675.193	5622
675.243	5750
675.293	7054
675.343	6010
675.393	7243
675.443	6460
675.493	6597
675.543	6289
675.593	6259
675.643	6146
675.693	6199
675.743	6183
675.793	5295
675.843	5600
675.893	6395
675.943	5773
675.993	5933
676.043	6456
676.093	5855
676.142	6090
676.192	5939
676.242	5055
676.292	6310
676.341	5655
676.391	4935
676.441	5619
676.491	5754
676.540	4413
676.590	4724
676.640	5497
676.689	4990
676.739	4928
676.789	4879
676.838	4535
676.888	5376
676.937	4052
676.987	5571
677.037	5093
677.086	4594
677.136	4654
677.185	4913
677.235	4632
677.284	5258
677.333	5041
677.383	4975
677.432	4091
677.482	4509
677.531	4284
677.580	4866
677.630	4699
677.679	4592
677.728	4204
677.778	4908
677.827	4731
677.876	5183
677.925	5008
677.975	5497
678.024	4832
678.073	5611
678.122	5034
678.171	5391
678.220	4948
678.269	5721
678.319	5797
678.368	6739
678.417	5869
678.466	6048
678.515	4414
678.564	4647
678.613	3950
678.662	4174
678.711	4491
678.760	4589
678.809	4715
678.857	4626
678.906	4988
678.955	4284
679.004	4117
679.053	4429
679.102	4756
679.151	4674
679.199	3834
679.248	4772
679.297	4190
679.346	3866
679.394	2731
679.443	4578
679.492	4047
679.540	4874
679.589	4780
679.638	4873
679.686	4749
679.735	5529
679.784	5389
679.832	6516
679.881	5348
679.929	4310
679.978	4164
680.026	4822
680.075	3828
680.123	3790
680.172	3335
680.220	4236
680.268	4708
680.317	3901
680.365	3675
680.414	2895
680.462	2904
680.510	4037
680.559	3986
680.607	4176
680.655	3559
680.703	4743
680.752	4214
680.800	3864
680.848	3885
680.896	4076
680.945	3244
680.993	3776
681.041	3573
681.089	4085
681.137	3229
681.185	3997
681.233	3536
681.258	3482
681.281	3392
681.329	3275
681.377	3176
681.380	3254
681.425	3983
681.473	4743
681.502	4395
681.521	4079
681.569	4862
681.617	4162
681.624	4127
681.665	3605
681.713	4276
681.745	4705
681.761	4862
681.809	4980
681.857	4722
681.867	4751
681.904	4655
681.952	5480
681.989	4736
682.000	4465
682.048	4346
682.096	4753
682.111	4902
682.143	5125
682.191	4925
682.233	5674
682.239	5741
682.286	5176
682.334	5371
682.354	5441
682.382	5471
682.430	5373
682.476	5504
682.477	5472
682.525	5391
682.572	4953
682.598	5395
682.620	5716
682.667	5561
682.715	5846
682.720	5849
682.763	5589
682.810	5526
682.841	6038
682.857	6252
682.905	6343
682.952	5477
682.963	5706
683.000	6330
683.047	5577
683.085	7450
683.095	7931
683.142	6881
683.190	6858
683.206	6927
683.237	6961
683.284	7559
683.328	6660
683.332	6550
683.379	6871
683.426	6290
683.449	6680
683.473	7070
683.521	6804
683.568	7302
683.571	7285
683.615	6592
683.662	7657
683.693	7347
683.709	7120
683.757	6856
683.804	6610
683.814	6746
683.851	7190
683.898	7239
683.936	7664
683.945	7745
683.992	7676
684.039	7676
684.057	7799
684.086	7909
684.133	7945
684.179	7365
684.180	7320
684.227	7901
684.274	7731
684.300	8000
684.321	8220
684.368	7837
684.415	8475
684.422	8487
684.462	8471
684.509	8555
684.543	8760
684.556	8783
684.603	9612
684.649	8880
684.665	8612
684.696	7965
684.743	8711
684.786	9080
684.790	9097
684.837	9268
684.883	8295
684.908	8507
684.930	8664
684.977	9682
685.023	9078
685.029	9082
685.070	9086
685.117	9856
685.150	10036
685.164	10041
685.210	9328
685.257	10253
685.272	10274
685.303	10323
685.350	10435
685.393	10452
685.396	10418
685.443	9601
685.490	9617
685.514	9538
685.536	9523
685.583	8943
685.629	9347
685.636	9384
685.675	9607
685.722	10424
685.757	9864
685.768	9678
685.815	9801
685.861	10005
685.878	9976
685.908	9840
685.954	9644
686.000	10685
686.000	10695
686.047	10680
686.093	10530
686.121	10883
686.139	11128
686.185	11002
686.232	11132
686.242	11284
686.278	11521
686.324	11035
686.363	10639
686.370	10587
686.416	11022
686.463	11239
686.484	11154
686.509	11060
686.555	11341
686.601	10917
686.606	10981
686.647	11475
686.693	11209
686.727	11522
686.739	11608
686.785	11256
686.831	11164
686.848	11195
686.877	11355
686.923	11468
686.969	11671
686.969	11671
687.015	12151
687.061	12425
687.090	12872
687.107	12990
687.153	13217
687.199	12660
687.211	12640
687.245	12386
687.291	12278
687.332	12007
687.336	12037
687.382	12548
687.428	12474
687.453	13033
687.474	13373
687.520	12856
687.565	13105
687.574	13054
687.611	12953
687.657	13933
687.695	13872
687.702	13890
687.748	14681
687.794	15088
687.816	14945
687.839	14507
687.885	14500
687.931	13764
687.937	13707
687.976	13610
688.022	14079
688.058	14142
688.067	14139
688.113	13579
688.158	13547
688.179	13619
688.204	13896
688.249	13647
688.295	14030
688.300	13990
688.340	13568
688.386	13920
688.421	13687
688.431	13672
688.477	13695
688.522	13853
688.542	14132
688.567	14656
688.613	14936
688.658	15707
688.663	15692
688.703	15112
688.749	15201
688.784	14972
688.794	15013
688.839	15233
688.884	15671
688.905	15601
688.930	15326
688.975	15371
689.020	14932
689.026	14865
689.065	14694
689.110	14680
689.146	14824
689.155	14890
689.201	15043
689.246	15345
689.267	15119
689.291	14875
689.336	15306
689.381	15530
689.388	15509
689.426	15440
689.471	15374
689.509	15284
689.516	15310
689.561	15680
689.606	15184
689.630	15574
689.651	15820
689.696	15379
689.741	15643
689.750	15518
689.785	15476
689.830	16184
689.871	16089
689.875	16065
689.920	16116
689.965	16154
689.992	16048
690.010	15996
690.054	15753
690.099	15428
690.112	15450
690.144	15561
690.189	14849
690.233	14695
690.233	14715
690.278	15484
690.323	15492
690.354	16059
690.367	16323
690.412	16543
690.457	16074
690.474	16369
690.501	16557
690.546	16114
690.590	15374
690.595	15374
690.635	15799
690.680	15481
690.716	15534
690.724	15590
690.769	15340
690.813	16016
690.836	15491
690.857	15444
690.902	17075
690.946	17486
690.957	17639
690.991	17974
691.035	18934
691.077	19825
691.080	19867
691.124	19133
691.168	19071
691.198	18787
691.213	18558
691.257	18227
691.301	17080
691.318	16925
691.346	17191
691.390	17066
691.434	17395
691.439	17372
691.478	17298
691.522	17531
691.559	17221
691.567	17270
691.611	18172
691.655	18350
691.680	18522
691.699	18398
691.743	18224
691.787	17566
691.800	17487
691.831	17557
691.875	17524
691.919	17123
691.921	17108
691.964	17761
692.008	17569
692.041	17566
692.052	17656
692.096	18184
692.139	18662
692.162	18661
692.183	18481
692.227	18300
692.271	17606
692.282	17586
692.315	17702
692.359	17397
692.402	17601
692.403	17636
692.447	17455
692.490	17711
692.523	18015
692.534	18108
692.578	17987
692.622	17687
692.643	17675
692.666	17761
692.709	17813
692.753	18049
692.763	17963
692.797	17994
692.840	18202
692.884	18493
692.884	18529
692.928	18505
692.971	18244
693.004	18382
693.015	18472
693.059	18326
693.102	18429
693.124	18242
693.146	18148
693.189	18300
693.233	18116
693.245	18173
693.276	18661
693.320	18983
693.363	19181
693.365	19146
693.407	18939
693.450	19096
693.485	18717
693.493	18778
693.537	19642
693.580	19659
693.605	20118
693.624	20344
693.667	20151
693.710	20395
693.725	20457
693.753	21439
693.797	22271
693.840	23906
693.845	23948
693.883	22668
693.926	21572
693.966	20488
693.970	20503
694.013	20389
694.056	20207
694.086	20082
694.099	20073
694.142	19752
694.185	19559
694.206	19380
694.229	19574
694.272	20011
694.315	20336
694.326	20341
694.358	20304
694.401	20486
694.444	20464
694.446	20422
694.487	20375
694.530	20235
694.566	20094
694.573	20160
694.616	20107
694.659	20371
694.686	20432
694.702	20586
694.745	21010
694.787	21003
694.806	21154
694.830	21268
694.873	21061
694.916	21109
694.926	21080
694.959	21482
695.002	21959
695.044	22036
695.046	22003
695.087	22307
695.130	22602
695.166	22574
695.172	22638
695.215	22859
695.258	23092
695.286	23250
695.301	23439
695.343	23833
695.386	24245
695.406	24373
695.428	25242
695.471	26694
695.514	28209
695.526	28627
695.556	30160
695.599	32244
695.641	33985
695.646	34112
695.684	32508
695.726	30761
695.766	29122
695.769	29148
695.811	28188
695.854	27516
695.886	26955
695.896	27195
695.938	28116
695.981	28553
696.005	29024
696.023	29875
696.065	31631
696.108	33275
696.125	33947
696.150	34527
696.192	35230
696.235	35904
696.245	36024
696.277	35944
696.319	35672
696.361	35246
696.365	35147
696.404	35141
696.446	34819
696.485	34608
696.488	34675
696.530	34291
696.572	34158
696.604	33903
696.614	34009
696.656	34105
696.698	34286
696.724	34209
696.740	34221
696.783	34271
696.825	34211
696.844	34071
696.867	34312
696.909	34573
696.951	34872
696.964	34904
696.992	35161
697.034	35518
697.076	35603
697.083	35569
697.118	36971
697.160	38487
697.202	40047
697.203	39991
697.244	39325
697.286	38758
697.323	37929
697.327	38018
697.369	38200
697.411	38265
697.442	38226
697.453	38370
697.494	38604
697.536	38873
697.562	38908
697.578	38878
697.620	38552
697.661	38250
697.682	38001
697.703	38934
697.744	40658
697.786	42385
697.801	42872
697.828	42380
697.869	41423
697.911	40574
697.921	40260
697.952	40425
697.994	40441
698.035	40533
698.040	40444
698.077	40926
698.118	41341
698.160	41746
698.160	41645
698.201	42381
698.243	42997
698.279	43496
698.284	43752
698.325	45076
698.367	46429
698.399	47369
698.408	47607
698.449	48140
698.491	48688
698.518	48947
698.532	48998
698.573	48754
698.614	48508
698.638	48273
698.656	48390
698.697	48335
698.738	48301
698.757	48161
698.779	48065
698.820	47659
698.862	47250
698.877	46983
698.903	47187
698.944	47323
698.985	47455
698.996	47375
699.026	47596
699.067	47742
699.116	47798
699.235	47411
699.354	46131
699.474	43481
699.593	43806
699.713	44350
699.832	44609
699.951	45664
700.070	46445
700.190	43000
700.309	42731
700.428	41618
700.547	41329
700.667	39552
700.786	41688
700.905	39426
701.024	39575
701.143	37715
701.262	41931
701.381	42272
701.500	41218
701.619	40598
701.738	41745
701.857	41283
701.976	38402
702.095	40277
702.214	40569
702.333	39025
702.452	40778
702.571	41724
702.690	40411
702.809	39717
702.928	38219
703.047	36257
703.165	38319
703.284	37367
703.403	37026
703.522	36133
703.640	35217
703.759	35773
703.878	34333
703.997	35817
704.115	36223
704.234	34125
704.353	35727
704.471	32757
704.590	33046
704.708	32718
704.827	32464
704.946	32719
705.064	33011
705.183	31077
705.301	33334
705.420	30435
705.538	31215
705.656	30030
705.775	29612
705.893	29978
706.012	29443
706.130	28760
706.249	31016
706.367	28389
706.485	29298
706.604	27830
706.722	28320
706.840	30914
706.958	32640
707.077	27774
707.195	27825
707.313	27385
707.431	25239
707.549	25137
707.668	25489
707.786	27353
707.904	26471
708.022	26804
708.140	25870
708.258	25400
708.376	27295
708.494	24389
708.612	26387
708.730	25510
708.848	24422
708.966	25224
709.084	25254
709.202	25312
709.320	23409
709.438	23794
709.556	25180
709.674	22514
709.791	23157
709.909	22311
710.027	23493
710.145	22348
710.263	23468
710.380	22962
710.498	21954
710.616	22173
710.733	21533
710.851	21347
710.969	22043
711.086	21191
711.204	21457
711.322	21247
711.439	21019
711.557	19361
711.674	19844
711.792	20982
711.909	19353
712.027	20136
712.144	19938
712.262	19953
712.379	21053
712.497	20259
712.614	20089
712.732	21227
712.849	19431
712.966	20079
713.084	20794
713.201	17577
713.318	20289
713.436	21095
713.553	17442
713.670	19924
713.787	20548
713.905	17824
714.022	19410
714.139	19962
714.256	22569
714.373	26097
714.490	41742
714.608	90240
714.725	303604
714.842	278588
714.959	44109
715.076	24153
715.193	22554
715.310	19726
715.427	17226
715.544	18706
715.661	18349
715.778	17270
715.895	18330
716.011	17045
716.128	16761
716.245	17621
716.362	17119
716.479	14944
716.596	16360
716.713	16786
716.829	15939
716.946	14747
717.063	14866
717.180	15217
717.296	16597
717.413	15676
717.530	14855
717.646	14685
717.763	15930
717.880	13991
717.996	14705
718.113	14870
718.229	15265
718.346	13180
718.462	13648
718.579	15022
718.695	14925
718.812	14321
718.928	14358
719.045	13715
719.161	14357
719.277	14243
719.394	15975
719.510	13973
719.626	14398
719.743	15314
719.859	21368
719.975	36896
720.092	118100
720.208	231866
720.324	38292
720.440	17430
720.557	15344
720.673	14588
720.789	13894
720.905	13211
721.021	13522
721.137	12797
721.253	12213
721.369	12619
721.486	12700
721.602	11606
721.718	12568
721.834	12209
721.950	12622
722.066	11710
722.181	11575
722.297	12387
722.413	12305
722.529	12280
722.645	11918
722.761	11660
722.877	12038
722.993	12276
723.108	14696
723.224	12026
723.340	12990
723.456	12053
723.571	12016
723.687	11515
723.803	11372
723.918	11905
724.034	11231
724.150	11139
724.265	11113
724.381	10567
724.497	11446
724.612	11140
724.728	10928
724.843	10533
724.959	11071
725.074	11425
725.190	11163
725.305	10785
725.421	10576
725.536	11474
725.651	11916
725.767	11278
725.882	11364
725.997	10243
726.113	10524
726.228	10807
726.343	10863
726.459	11371
726.574	10994
726.689	11027
726.804	10428
726.920	10636
727.035	10433
727.150	10421
727.265	10103
727.380	10583
727.495	10643
727.610	10081
727.725	9546
727.841	10154
727.956	11269
728.071	9811
728.186	10075
728.301	10254
728.416	11480
728.531	9945
728.645	10130
728.760	10451
728.875	11152
728.990	9813
729.105	9987
729.220	9396
729.335	10847
729.449	10412
729.564	10290
729.679	9355
729.794	10461
729.908	10056
730.023	10458
730.138	11254
730.253	10757
730.367	10059
730.482	10424
730.596	9797
730.711	12773
730.826	16231
730.940	15923
731.055	13120
731.169	12926
731.284	13021
731.398	13561
731.513	14001
731.627	14934
731.742	19478
731.856	23742
731.970	20321
732.085	25292
732.199	29030
732.313	44487
732.428	97542
732.542	250341
732.656	150841
732.771	43675
732.885	29713
732.999	30484
733.113	32336
733.227	31818
733.342	30913
733.456	31184
733.570	28927
733.684	28437
733.798	27936
733.912	28045
734.026	28401
734.140	27053
734.254	26665
734.368	27111
734.482	26135
734.596	27746
734.710	25564
734.824	25586
734.938	25176
735.052	26085
735.166	24912
735.280	25445
735.393	24618
735.507	25143
735.621	24757
735.735	23059
735.849	23553
735.962	22580
736.076	25585
736.190	23538
736.303	23452
736.417	23798
736.531	22150
736.644	23063
736.758	21938
736.872	21918
736.985	21690
737.099	21805
737.212	21293
737.326	21397
737.439	22870
737.553	20621
737.666	21208
737.780	20623
737.893	21881
738.007	19957
738.120	22438
738.233	19439
738.347	20920
738.460	18837
738.573	21728
738.687	18979
738.800	19328
738.913	21283
739.026	19740
739.140	18339
739.253	19172
739.366	18016
739.479	18369
739.592	20091
739.705	17425
739.818	20889
739.932	17927
740.045	18948
740.158	17967
740.271	19281
740.384	18126
740.497	15923
740.610	18343
740.723	17340
740.836	17939
740.949	17475
741.062	20273
741.174	16873
741.287	16459
741.400	17935
741.513	15435
741.626	17351
741.739	16303
741.851	16196
741.964	17098
742.077	16219
742.189	14973
742.302	16576
742.415	15810
742.527	16117
742.640	15568
742.753	13406
742.865	16352
742.978	15266
743.090	14662
743.203	15376
743.316	14398
743.428	15292
743.541	15263
743.653	12076
743.766	14766
743.878	14916
743.990	12466
744.103	15370
744.215	14466
744.327	13515
744.440	18057
744.552	12426
744.664	13361
744.777	15316
744.889	13007
745.001	13536
745.113	14810
745.226	14322
745.338	11829
745.450	15012
745.562	12952
745.674	11866
745.786	14736
745.898	14192
746.010	12707
746.122	13810
746.234	12900
746.347	13081
746.459	13126
746.570	10616
746.682	13376
746.794	15413
746.906	10303
747.018	12524
747.130	13782
747.242	10937
747.354	11875
747.466	13183
747.577	11316
747.689	12767
747.801	12657
747.913	10798
748.024	12144
748.136	10695
748.248	11054
748.359	11172
748.471	12477
748.583	9928
748.694	9702
748.806	12736
748.918	11004
749.029	11728
749.141	11827
749.252	11697
749.364	10669
749.475	10286
749.587	10355
749.698	9944
749.809	11131
749.921	11597
750.032	10529
750.144	10476
750.255	9554
750.366	10816
750.478	10361
750.589	11358
750.700	9312
750.811	12004
750.923	9262
751.034	9658
751.145	11040
751.256	10015
751.367	9764
751.479	9414
751.590	9263
751.701	9597
751.812	8655
751.923	9321
752.034	10794
752.145	10171
752.256	10343
752.367	9848
752.478	9077
752.589	10325
752.700	9377
752.811	8283
752.922	9329
753.032	9400
753.143	10194
753.254	8439
753.365	10476
753.476	10340
753.586	9308
753.697	9105
753.808	8838
753.919	8788
754.029	8230
754.140	8777
754.251	8595
754.361	9190
754.472	10385
754.582	8336
754.693	8608
754.804	9326
754.914	8544
755.025	7780
755.135	8731
755.246	9528
755.356	8098
755.466	8515
755.577	8177
755.687	8824
755.798	8688
755.908	8324
756.018	7971
756.129	8937
756.239	8234
756.349	9216
756.460	8201
756.570	8997
756.680	7765
756.790	8460
756.900	8442
757.011	8189
757.121	7162
757.231	8321
757.341	8810
757.451	7106
757.561	7283
757.671	8492
757.781	7556
757.891	7734
758.001	6391
758.111	7684
758.221	8339
758.331	7613
758.441	7641
758.551	7259
758.661	9098
758.771	8459
758.880	7858
758.990	7867
759.100	7773
759.210	7255
759.320	8489
759.429	8060
759.539	8134
759.649	8091
759.758	8599
759.868	8654
759.978	7522
760.087	10404
760.197	9750
760.307	8611
760.416	7961
760.526	8220
760.635	8945
760.745	8820
760.854	9247
760.964	9776
761.073	10389
761.182	9832
761.292	8935
761.401	7507
761.511	7510
761.620	7107
761.729	6982
761.839	7119
761.948	7083
762.057	6908
762.166	7971
762.276	6884
762.385	8205
762.494	6749
762.603	6816
762.712	7595
762.822	6599
762.931	6254
763.040	6304
763.149	7811
763.258	7575
763.367	7625
763.476	6733
763.585	6179
763.694	6555
763.803	7420
763.912	7576
764.021	7654
764.130	6911
764.238	7607
764.347	6960
764.456	7486
764.565	7328
764.674	8007
764.783	7495
764.891	7062
765.000	8018
765.109	7752
765.217	7286
765.326	8666
765.435	10115
765.543	11134
765.652	11943
765.761	12639
765.869	17034
765.978	23838
766.086	38552
766.195	73097
766.303	163745
766.412	280637
766.520	218095
766.629	103545
766.737	47876
766.846	29441
766.954	20601
767.062	16621
767.171	13397
767.279	12418
767.387	9953
767.496	10265
767.604	8892
767.712	9408
767.820	7253
767.928	7706
768.037	7811
768.145	9492
768.253	8270
768.361	8259
768.469	7715
768.577	7161
768.685	8259
768.793	8893
768.901	8056
769.009	9412
769.117	8683
769.225	10986
769.333	13500
769.441	20291
769.549	32966
769.657	68195
769.765	173588
769.873	229312
769.981	108232
770.088	39263
770.196	22290
770.304	17786
770.412	15273
770.519	12459
770.627	12962
770.735	11060
770.842	11457
770.950	10717
771.058	11134
771.165	13854
771.273	13873
771.380	14953
771.488	18306
771.595	21576
771.703	16884
771.810	16772
771.918	17530
772.025	21211
772.133	24245
772.240	21990
772.348	26143
772.455	24237
772.562	22780
772.670	21152
772.777	21432
772.884	21661
772.991	20346
773.099	22841
773.206	20274
773.313	20719
773.420	21392
773.528	20897
773.635	19474
773.742	21583
773.849	18700
773.956	21165
774.063	18739
774.170	20006
774.277	20194
774.384	19307
774.491	18145
774.598	19882
774.705	18546
774.812	18768
774.919	17794
775.026	18297
775.133	17773
775.239	17497
775.346	17578
775.453	17905
775.560	16991
775.667	18509
775.773	16027
775.880	16799
775.987	17323
776.093	18215
776.200	18825
776.307	13543
776.413	15472
776.520	18990
776.627	15681
776.733	15150
776.840	13933
776.946	20300
777.053	14691
777.159	15139
777.266	13812
777.372	15013
777.478	16751
777.585	17181
777.691	14131
777.798	16316
777.904	14426
778.010	13887
778.117	15154
778.223	14018
778.329	14250
778.435	13470
778.542	15864
778.648	14092
778.754	12889
778.860	14257
778.966	14154
779.072	12938
779.178	14373
779.284	11649
779.391	13225
779.497	14200
779.603	14698
779.708	12634
779.815	12454
779.920	17941
780.026	17628
780.132	13675
780.238	13005
780.344	11866
780.450	16988
780.556	10368
780.661	11157
780.767	14010
780.873	8794
780.979	11762
781.085	14081
781.190	11749
781.296	11240
781.402	12233
781.507	11688
781.613	9753
781.719	11615
781.824	13007
781.930	10273
782.035	12153
782.141	13156
782.246	9911
782.352	9870
782.457	11629
782.563	11420
782.668	11848
782.773	8599
782.879	9459
782.984	10581
783.090	11044
783.195	10600
783.300	12767
783.405	9967
783.511	8587
783.616	9530
783.721	10920
783.826	9235
783.932	9521
784.037	10380
784.142	11033
784.247	9166
784.352	11412
784.457	8479
784.562	10606
784.667	10763
784.772	8255
784.877	6385
784.982	10136
785.087	10622
785.192	9101
785.297	8293
785.402	9265
785.507	9349
785.611	9464
785.716	7601
785.821	9325
785.926	9383
786.031	7557
786.135	8850
786.240	9207
786.345	7360
786.450	8708
786.554	9001
786.659	7856
786.763	8274
786.868	9134
786.973	9507
787.077	6902
787.182	7303
787.286	9199
787.391	9583
787.495	5906
787.600	5837
787.704	7851
787.809	8998
787.913	8069
788.017	7676
788.122	8794
788.226	7569
788.330	5014
788.435	7607
788.539	9714
788.643	6791
788.747	5934
788.852	7946
788.956	7090
789.060	9022
789.164	7681
789.268	6465
789.372	8214
789.476	6249
789.580	6010
789.684	6469
789.788	9189
789.892	7378
789.996	6720
790.100	5726
790.204	8104
790.308	7897
790.412	5734
790.516	4850
790.620	6504
790.724	8639
790.828	6881
790.931	5041
791.035	7183
791.139	6482
791.242	7259
791.346	6756
791.450	7463
791.554	5727
791.657	4906
791.761	6626
791.864	7391
791.968	7805
792.072	7432
792.175	5536
792.279	5607
792.382	6563
792.486	5842
792.589	6005
792.693	7332
792.796	4960
792.899	6683
793.003	7581
793.106	5557
793.209	5923
793.313	6354
793.416	3379
793.519	5656
793.623	7141
793.726	6569
793.829	4674
793.932	4308
794.035	4483
794.138	7632
794.242	7619
794.345	4760
794.448	4345
794.551	4210
794.654	8265
794.757	9592
794.860	5630
794.963	5941
795.066	4140
795.169	7662
795.272	6089
795.375	7041
795.477	4688
795.580	4493
795.683	3864
795.786	6835
795.889	4777
795.991	6306
796.094	5930
796.197	4941
796.300	6298
796.402	6386
796.505	3693
796.608	3237
796.710	4299
796.813	5881
796.915	5837
797.018	5291
797.120	6054
797.223	3990
797.326	6142
797.428	3900
797.530	3930
797.633	3741
797.735	5960
797.838	5082
797.940	5617
798.042	4627
798.145	4662
798.247	4508
798.349	3039
798.452	5496
798.554	5242
798.656	3720
798.758	5954
798.860	5103
798.962	3975
799.065	3260
799.167	3302
799.269	5022
799.371	5285
799.473	6611
799.575	4383
799.677	4090
799.779	5216
799.881	4091
799.983	5728
800.085	3940
800.187	5430
800.289	3995
800.390	3548
800.492	5753
800.594	4696
800.696	3444
800.798	3730
800.899	3945
801.001	4602
801.103	4159
801.205	4411
801.306	4350
801.408	3633
801.509	4053
801.611	4759
801.713	4873
801.814	3655
801.916	3443
802.017	3115
802.119	3304
802.220	5142
802.322	2690
802.423	5459
802.525	2877
802.626	3700
802.727	5429
802.829	4739
802.930	1132
803.031	4201
803.133	4367
803.234	4368
803.335	4893
803.436	3692
803.538	3642
803.639	3050
803.740	4386
803.841	3871
803.942	5232
804.043	4052
804.144	2904
804.245	3412
804.346	3715
804.447	3209
804.548	2703
804.649	4061
804.750	4193
804.851	3210
804.952	3676
805.053	3580
805.154	3434
805.255	5130
805.355	3560
805.456	3152
805.557	2956
805.658	3657
805.758	3980
805.859	3969
805.960	4022
806.061	2785
806.161	2706
806.262	3508
806.362	3311
806.463	3490
806.564	4223
806.664	3755
806.765	3547
806.865	3092
806.966	2792
807.066	2271
807.166	4575
807.267	4171
807.367	2838
807.468	4314
807.568	2678
807.668	3508
807.769	4554
807.869	3251
807.969	3824
808.069	3313
808.170	3767
808.270	2617
808.370	3453
808.470	3436
808.570	2534
808.670	3020
808.770	2941
808.870	2720
808.970	3481
809.070	2241
809.170	2749
809.271	3918
809.370	3537
809.470	3807
809.570	2547
809.670	2535
809.770	2777
809.870	3806
809.970	3522
810.070	3197
810.169	3394
810.269	1563
810.369	3932
810.469	2979
810.568	3602
810.668	2243
810.768	3027
810.867	3599
810.967	2279
811.066	2958
811.166	3131
811.265	4610
811.365	2701
811.464	2989
811.564	3156
811.663	3198
811.763	1919
811.862	3146
811.962	3600
812.061	2883
812.160	2241
812.260	2642
812.359	3070
812.458	3769
812.557	4495
812.657	2335
812.756	3849
812.855	3529
812.954	3012
813.053	2845
813.153	3786
813.252	2577
813.351	3956
813.450	3763
813.549	2737
813.648	2852
813.747	2742
813.846	4301
813.945	4826
814.044	3928
814.143	3764
814.242	4356
814.341	3519
814.439	4178
814.538	4357
814.637	4458
814.736	5131
814.835	5071
814.933	4852
815.032	6488
815.131	8725
815.229	13982
815.328	20389
815.427	14059
815.525	13155
815.624	11743
815.722	12138
815.821	12432
815.919	14231
816.018	13020
816.116	13476
816.215	13084
816.313	13833
816.412	16876
816.510	16627
816.609	17730
816.707	18413
816.805	15653
816.904	16365
817.002	15758
817.100	17140
817.198	17373
817.296	14938
817.395	15530
817.493	15521
817.591	14092
817.689	15423
817.787	16514
817.885	14757
817.983	14011
818.081	15514
818.179	14486
818.277	18010
818.375	14285
818.473	13777
818.571	13152
818.669	14831
818.767	15361
818.865	13399
818.963	11236
819.061	14559
819.158	13095
819.256	16299
819.354	13586
819.452	17006
819.549	14522
819.647	15214
819.745	11096
819.842	13757
819.940	13345
820.038	11815
820.135	11532
820.233	14106
820.330	12599
820.428	11827
820.525	14461
820.623	11565
820.720	10756
820.818	11476
820.915	12868
821.012	11209
821.110	9071
821.207	12842
821.304	9978
821.402	11949
821.499	12447
821.596	10363
821.693	11157
821.791	11982
821.888	10724
821.985	12181
822.082	9527
822.179	11575
822.276	11585
822.373	9835
822.470	10288
822.567	12079
822.664	9311
822.761	11590
822.858	10545
822.955	10735
823.052	9473
823.149	10547
823.246	10015
823.343	8408
823.440	9469
823.536	10798
823.633	10211
823.730	8781
823.827	10148
823.923	10043
824.020	9019
824.117	12130
824.213	9483
824.310	9115
824.407	7778
824.503	10562
824.600	8727
824.696	8392
824.793	11220
824.889	10516
824.986	8582
825.082	6170
825.179	8321
825.275	9716
825.371	10466
825.468	7157
825.564	5174
825.660	10183
825.757	12097
825.853	7856
825.949	6972
826.045	7082
826.142	8456
826.238	9856
826.334	9002
826.430	8260
826.526	6058
826.622	5525
826.718	9456
826.814	10918
826.910	8072
827.006	5147
827.102	6032
827.198	9038
827.294	8779
827.390	9692
827.486	6712
827.582	5436
827.678	6266
827.774	10087
827.869	5106
827.965	6260
828.061	5701
828.157	9125
828.252	9338
828.348	6568
828.444	6346
828.539	6048
828.635	6852
828.731	7647
828.826	5924
828.922	7212
829.017	8841
829.113	7897
829.208	5442
829.304	5970
829.399	8788
829.495	7474
829.590	6228
829.685	6781
829.781	8212
829.876	8165
829.971	4298
830.066	4032
830.162	5482
830.257	10371
830.352	7276
830.447	4181
830.543	4267
830.638	5544
830.733	7810
830.828	5255
830.923	7080
831.018	6624
831.113	7896
831.208	5005
831.303	3754
831.398	4439
831.493	6769
831.588	9284
831.683	5776
831.778	3977
831.873	5226
831.967	6967
832.062	6391
832.157	5070
832.252	5917
832.346	5173
832.441	6180
832.536	6279
832.631	6330
832.725	4528
832.820	4603
832.914	5852
833.009	4152
833.104	4050
833.198	4629
833.293	5619
833.387	6572
833.482	5881
833.576	4882
833.670	5630
833.765	3971
833.859	6634
833.954	6368
834.048	5703
834.142	5068
834.237	3478
834.331	5566
834.425	6846
834.519	4894
834.613	5232
834.708	4513
834.802	5096
834.896	5286
834.990	5424
835.084	4508
835.178	3201
835.272	4989
835.366	6411
835.460	6804
835.554	5166
835.648	3545
835.742	3230
835.836	3144
835.930	4332
836.024	6084
836.117	6384
836.211	4068
836.305	4198
836.399	4655
836.493	4064
836.586	6224
836.680	4836
836.774	4459
836.867	4680
836.961	3480
837.055	3521
837.148	3212
837.242	5233
837.335	4497
837.429	4265
837.522	3561
837.616	4563
837.709	4230
837.803	3730
837.896	5890
837.989	5847
838.083	3668
838.176	2368
838.269	2694
838.363	4140
838.456	3845
838.549	4794
838.642	3374
838.735	3835
838.829	4229
838.922	3238
839.015	4232
839.108	3216
839.201	3208
839.294	4667
839.387	3872
839.480	2243
839.573	3678
839.666	2222
839.759	3485
839.852	3183
839.945	4527
840.038	3353
840.131	2084
840.223	4440
840.316	3647
840.409	3954
840.502	5229
840.594	5546
840.687	2118
840.780	2496
840.873	3119
840.965	2860
841.058	3725
841.150	4323
841.243	2668
841.336	3619
841.428	3366
841.521	2985
841.613	3231
841.706	4232
841.798	2238
841.890	3313
841.983	1883
842.075	3392
842.167	1853
842.260	3425
842.352	3848
842.444	3682
842.537	2191
842.629	2271
842.721	1768
842.813	3505
842.905	2399
842.997	3472
843.090	3447
843.182	2898
843.274	1514
843.366	2892
843.458	2915
843.550	4569
843.642	2572
843.734	3266
843.826	1965
843.918	2680
844.009	3479
844.101	3666
844.193	3348
844.285	3716
844.377	3374
844.469	2565
844.560	1654
844.652	1403
844.744	2096
844.835	2748
844.927	3066
845.019	3680
845.110	2230
845.202	3631
845.293	2024
845.385	1427
845.476	2407
845.568	3411
845.659	2058
845.751	2527
845.842	2058
845.934	3058
846.025	1987
846.116	3579
846.208	1960
846.299	2925
846.390	2046
846.482	2327
846.573	3232
846.664	2695
846.755	1535
846.846	3796
846.937	1017
847.029	2104
847.120	1500
847.211	2187
847.302	3070
847.393	1717
847.484	2854
847.575	1509
847.666	1447
847.757	1344
847.847	2965
847.938	3916
848.029	3186
848.120	2751
848.211	2388
848.302	1722
848.392	1495
848.483	3359
848.574	2527
848.664	2717
848.755	2680
848.846	2050
848.936	1952
849.027	2199
849.118	2420
849.208	1798
849.299	3214
849.389	4749
849.480	4455
849.570	8997
849.661	14256
849.751	23864
849.841	9830
849.932	3487
850.022	2210
850.112	2354
850.203	2524
850.293	2130
850.383	1804
850.474	1369
850.564	1687
850.654	2862
850.744	1547
850.834	2317
850.924	2195
851.014	3423
851.104	2356
851.194	1878
851.284	2567
851.374	2029
851.464	1569
851.554	2335
851.644	2165
851.734	2045
851.824	2677
851.914	2881
852.004	2088
852.094	1878
852.183	1693
852.273	2488
852.363	1534
852.452	2577
852.542	1835
852.632	1960
852.721	1724
852.811	1928
852.901	1873
852.990	2430
853.080	2553
853.169	2191
853.259	2506
853.348	2227
853.438	2141
853.527	3730
853.617	3700
853.706	6702
853.795	9880
853.885	17012
853.974	28005
854.063	49333
854.152	66524
854.242	29782
854.331	8806
854.420	5308
854.509	3395
854.598	3002
854.687	3547
854.777	3549
854.866	2113
854.955	3070
855.044	1575
855.133	2456
855.222	1718
855.311	2156
855.400	2572
855.488	2074
855.577	1685
855.666	1397
855.755	1828
855.844	2674
855.933	1645
856.021	2669
856.110	1982
856.199	1131
856.288	1669
856.376	1786
856.465	1625
856.554	2376
856.642	2243
856.731	2852
856.819	2429
856.908	2897
856.996	1994
857.085	1977
857.173	1494
857.262	1093
857.350	964
857.438	2094
857.527	1375
857.615	2321
857.703	2518
857.792	1577
857.880	1498
857.968	2225
858.056	1312
858.145	2204
858.233	1970
858.321	1708
858.409	1788
858.497	1271
858.585	1017
858.673	1881
858.761	1353
858.849	1180
858.937	1200
859.025	1388
859.113	2323
859.201	1791
859.289	3109
859.377	1842
859.465	1958
859.552	1647
859.640	1444
859.728	2682
859.816	1699
859.903	1399
859.991	1149
860.079	2236
860.166	1921
860.254	2536
860.342	2622
860.429	2021
860.517	1369
860.604	2347
860.692	1108
860.779	1377
860.867	1703
860.954	1405
861.042	2805
861.129	2551
861.216	2085
861.304	2497
861.391	2321
861.478	2398
861.565	2408
861.653	2200
861.740	720
861.827	1957
861.914	1837
862.001	1291
862.089	1936
862.176	2469
862.263	1722
862.350	2890
862.437	1769
862.524	1989
862.611	1537
862.698	2762
862.785	2360
862.871	3361
862.958	2720
863.045	2980
863.132	2812
863.219	2330
863.306	456
863.392	2727
863.479	2203
863.566	3011
863.652	2814
863.739	2015
863.826	3193
863.912	2801
863.999	2585
864.086	2414
864.172	3097
864.259	4030
864.345	3412
864.432	3675
864.518	2939
864.604	2985
864.691	3249
864.777	3998
864.863	4652
864.950	7606
865.036	9537
865.122	17060
865.209	17596
865.295	15263
865.381	13791
865.467	14345
865.553	13547
865.639	13808
865.726	15504
865.812	18839
865.898	26132
865.984	34359
866.070	49890
866.156	51827
866.242	25062
866.328	15702
866.414	13643
866.499	13303
866.585	13170
866.671	13029
866.757	12577
866.843	12357
866.928	12561
867.014	11792
867.100	11922
867.186	11942
867.271	11709
867.357	11687
867.442	10372
867.528	12971
867.614	11355
867.699	11500
867.785	11566
867.870	11361
867.956	11173
868.041	11617
868.127	10271
868.212	10242
868.297	11222
868.383	11337
868.468	10500
868.553	12284
868.639	10322
868.724	11033
868.809	10784
868.894	9797
868.979	10619
869.065	10627
869.150	8389
869.235	10533
869.320	10736
869.405	9254
869.490	10862
869.575	9524
869.660	7595
869.745	9954
869.830	11151
869.915	9219
870.000	9398
870.085	8949
870.169	11585
870.254	11802
870.339	6908
870.424	8004
870.509	9635
870.593	10667
870.678	10368
870.763	8933
870.847	8176
870.932	9993
871.016	9638
871.101	6998
871.186	8695
871.270	11741
871.355	6735
871.439	7498
871.523	9601
871.608	7640
871.692	7587
871.777	9412
871.861	9650
871.945	8532
872.030	9902
872.114	8266
872.198	7599
872.282	7981
872.367	8315
872.451	8139
872.535	7762
872.619	8468
872.703	8561
872.787	8843
872.871	8761
872.955	6398
873.039	5244
873.123	8675
873.207	8473
873.291	4943
873.375	6270
873.459	9149
873.543	7109
873.627	6613
873.711	5760
873.794	8359
873.878	7294
873.962	6010
874.045	7533
874.129	7147
874.137	7158
874.213	7275
874.245	7003
874.296	6571
874.352	5671
874.380	5232
874.460	7469
874.464	7561
874.547	6626
874.568	6690
874.631	6916
874.676	6649
874.714	6414
874.784	7717
874.798	7979
874.881	6540
874.892	6281
874.965	4531
874.999	5831
875.048	7621
875.107	6679
875.131	6286
875.215	5336
875.215	5335
875.298	4446
875.323	4812
875.381	5705
875.430	7218
875.465	8283
875.538	7632
875.548	7536
875.631	5047
875.646	4917
875.714	4398
875.753	4824
875.798	5261
875.861	5853
875.881	6045
875.964	6215
875.968	6118
876.047	4439
876.076	4783
876.130	5356
876.183	5499
876.213	5610
876.291	6960
876.296	7047
876.379	5266
876.398	5098
876.462	4503
876.506	4201
876.545	3965
876.613	4304
876.628	4369
876.711	4703
876.721	4820
876.794	5825
876.828	5785
876.877	5591
876.935	4399
876.960	3959
877.043	4410
877.043	4415
877.125	5225
877.150	5523
877.208	6172
877.258	5120
877.291	4458
877.365	3365
877.374	3216
877.456	4128
877.472	4046
877.539	3924
877.579	4827
877.622	5684
877.687	5302
877.704	5181
877.787	4444
877.794	4455
877.869	4617
877.901	4837
877.952	5080
878.008	3495
878.034	2808
878.115	3705
878.117	3724
878.199	3672
878.222	4027
878.282	4818
878.329	4848
878.364	4844
878.437	4609
878.447	4563
878.529	3172
878.544	3094
878.611	2861
878.651	3575
878.694	4471
878.758	4603
878.776	4506
878.858	3974
878.865	3929
878.941	3651
878.972	3315
879.023	2747
879.078	3345
879.105	3706
879.185	4560
879.187	4564
879.269	4046
879.292	4083
879.351	4452
879.399	3758
879.433	3139
879.506	3212
879.516	3256
879.598	3300
879.613	3179
879.680	2438
879.720	3225
879.762	4064
879.827	3165
879.844	2939
879.926	3148
879.933	3214
880.007	3682
880.040	3141
880.089	2434
880.147	3467
880.171	3889
880.253	4432
880.254	4431
880.335	2958
880.360	3137
880.417	3676
880.467	3455
880.499	3280
880.574	3409
880.580	3399
880.662	3488
880.680	3316
880.744	2638
880.787	2630
880.825	2703
880.893	2887
880.907	2876
880.989	1856
881.000	1977
881.070	3367
881.106	3383
881.152	2906
881.213	2197
881.233	2132
881.315	2816
881.319	2880
881.396	3456
881.426	3111
881.478	2757
881.532	3594
881.559	3859
881.639	2955
881.641	2928
881.722	2611
881.745	2615
881.803	2780
881.852	2713
881.885	2615
881.958	1901
881.966	1812
882.047	2570
882.064	2445
882.129	2277
882.171	2284
882.210	1930
882.277	1587
882.291	1675
882.372	3030
882.383	3142
882.454	3433
882.489	3137
882.535	2547
882.596	2907
882.616	3117
882.697	2467
882.702	2461
882.778	2342
882.808	2438
882.859	2023
882.914	1548
882.940	1732
883.020	2316
883.021	2311
883.102	2211
883.127	2364
883.183	3015
883.233	2784
883.264	2311
883.339	1457
883.345	1400
883.426	775
883.445	831
883.507	1558
883.551	2123
883.587	2435
883.657	2447
883.668	2443
883.749	2805
883.763	2699
883.830	1921
883.869	1918
883.910	1796
883.975	1946
883.991	1992
884.072	1395
884.081	1433
884.152	2454
884.187	2721
884.233	2911
884.292	2798
884.314	2420
884.394	928
884.398	892
884.475	1208
884.504	1286
884.555	1093
884.610	889
884.636	1169
884.716	2416
884.716	2414
884.797	2745
884.821	2650
884.877	2415
884.927	2118
884.958	1732
885.033	954
885.038	939
885.118	1093
885.139	1123
885.199	1085
885.244	1261
885.279	1691
885.350	2348
885.359	2383
885.439	2776
885.456	2655
885.520	1285
885.561	965
885.600	1004
885.667	1015
885.680	1081
885.760	1144
885.773	1178
885.840	680
885.878	605
885.920	959
885.984	1158
886.000	1074
886.080	1093
886.089	1083
886.160	1982
886.195	2215
886.240	1703
886.300	1498
886.320	1528
886.400	1311
886.406	1308
886.480	1048
886.511	947
886.560	1091
886.616	1457
886.640	1302
886.720	398
886.722	389
886.800	1107
886.827	1365
886.879	1298
886.932	1365
886.959	1688
887.038	2384
887.039	2370
887.119	1500
887.143	1370
887.198	1312
887.248	1128
887.278	1058
887.354	824
887.358	811
887.437	811
887.459	831
887.517	1151
887.564	1325
887.596	1278
887.669	1173
887.676	1105
887.755	455
887.774	288
887.835	706
887.880	1107
887.914	924
887.985	449
887.994	571
888.073	2008
888.090	2220
888.153	1928
888.195	1755
888.232	1591
888.300	1550
888.311	1490
888.391	886
888.405	800
888.470	739
888.510	709
888.549	711
888.615	810
888.628	832
888.708	904
888.720	925
888.787	953
888.825	924
888.866	571
888.930	154
888.945	250
889.024	860
889.035	932
889.103	1024
889.140	1102
889.182	971
889.245	844
889.261	724
889.340	126
889.349	71
889.419	395
889.454	558
889.498	477
889.559	422
889.577	329
889.656	-50
889.664	-73
889.735	730
889.768	1123
889.814	823
889.873	434
889.978	408
890.083	651
890.187	184
890.292	499
890.397	569
890.501	1009
890.606	965
890.710	1745
890.815	1625
890.919	907
891.024	1132
891.128	37
891.233	623
891.337	559
891.442	1300
891.546	781
891.650	426
891.755	-656
891.859	1685
891.963	1139
892.068	485
892.172	-159
892.276	635
892.380	174
892.484	97
892.589	1812
892.693	923
892.797	418
892.901	899
893.005	627
893.109	1239
893.213	1501
893.317	1188
893.421	49
893.525	233
893.629	484
893.733	1384
893.837	947
893.941	1170
894.045	649
894.148	363
894.252	516
894.356	822
894.460	1327
894.564	855
894.667	528
894.771	1059
894.875	-18
894.978	480
895.082	692
895.186	838
895.289	127
895.393	-240
895.496	707
895.600	966
895.703	-171
895.807	803
895.910	395
896.014	164
896.117	551
896.221	507
896.324	604
896.427	353
896.531	863
896.634	274
896.737	1265
896.840	980
896.944	299
897.047	1287
897.150	556
897.253	473
897.356	646
897.460	-373
897.563	82
897.666	835
897.769	1640
897.872	118
897.975	-714
898.078	177
898.181	74
898.284	420
898.387	-367
898.490	737
898.593	491
898.695	-429
898.798	-105
898.901	657
899.004	297
899.107	78
899.209	332
899.312	1115
899.415	1115
899.518	-253
899.620	-28
899.723	744
899.826	1252
899.928	1228
900.031	-90
900.133	525
900.236	-756
900.338	-110
900.441	515
900.543	167
900.646	545
900.748	856
900.851	1062
900.953	551
901.055	319
901.158	749
901.260	739
901.362	740
901.465	-296
901.567	873
901.669	-260
901.771	370
901.873	96
901.976	1110
902.078	302
902.180	715
902.282	-31
902.384	-90
902.486	541
902.588	-55
902.690	-87
902.792	164
902.894	130
902.996	16
903.098	886
903.200	267
903.302	-560
903.404	470
903.505	581
903.607	774
903.709	984
903.811	679
903.913	411
904.014	237
904.116	-178
904.218	451
904.319	689
904.421	686
904.523	908
904.624	-649
904.726	233
904.827	-205
904.929	216
905.030	450
905.132	-214
905.233	1762
905.335	-263
905.436	438
905.537	15
905.639	183
905.740	-123
905.841	299
905.943	631
906.044	-1
906.145	408
906.247	308
906.348	158
906.449	581
906.550	1041
906.651	-183
906.752	500
906.854	-525
906.955	-16
907.056	132
907.157	790
907.258	140
907.359	-44
907.460	307
907.561	164
907.662	-327
907.762	212
907.863	229
907.964	458
908.065	381
908.166	-577
908.267	-71
908.367	-40
908.468	-242
908.569	220
908.670	916
908.770	672
908.871	290
908.971	256
909.072	-309
909.173	296
909.273	371
909.374	492
909.474	1015
909.575	825
909.675	530
909.776	25
909.876	342
909.977	-244
910.077	550
910.177	26
910.278	422
910.378	-379
910.478	34
910.579	606
910.679	-230
910.779	276
910.879	725
910.980	-181
911.080	531
911.180	371
911.280	264
911.380	-171
911.480	842
911.580	68
911.680	176
911.780	857
911.880	37
911.980	681
912.080	418
912.180	583
912.280	100
912.380	195
912.480	-503
912.580	-50
912.679	-661
912.779	751
912.879	128
912.979	561
913.078	-94
913.178	-294
913.278	-12
913.377	353
913.477	-62
913.577	121
913.676	1286
913.776	87
913.875	816
913.975	-106
914.074	86
914.174	-42
914.273	-656
914.373	823
914.472	60
914.572	-148
914.671	-299
914.770	-69
914.870	591
914.969	-121
915.068	-203
915.167	1203
915.267	16
915.366	163
915.465	966
915.564	-186
915.663	91
915.763	314
915.862	496
915.961	296
916.060	-98
916.159	175
916.258	-140
916.357	-119
916.456	621
916.555	412
916.654	633
916.752	311
916.851	-163
916.950	-36
917.049	430
917.148	-303
917.247	433
917.345	351
917.444	546
917.543	-297
917.642	306
917.740	-455
917.839	901
917.937	919
918.036	-621
918.135	-188
918.233	501
918.332	48
918.430	-17
918.529	198
918.627	1011
918.726	741
918.824	361
918.923	-427
919.021	578
919.119	-66
919.218	-688
919.316	-115
919.414	604
919.512	858
919.611	1256
919.709	-589
919.807	258
919.905	644
920.003	1057
920.102	744
920.200	469
920.298	534
920.396	251
920.494	316
920.592	202
920.690	718
920.788	464
920.886	433
920.984	920
921.082	657
921.180	1502
921.277	486
921.375	2000
921.473	1774
921.571	1591
921.669	1507
921.766	1672
921.864	1340
921.962	1569
922.060	615
922.157	1493
922.255	1245
922.352	1568
922.450	1544
922.548	2254
922.645	2080
922.743	4023
922.840	5158
922.938	5725
923.035	4798
923.133	4691
923.230	5696
923.327	7636
923.425	6761
923.522	6424
923.619	5419
923.717	4410
923.814	4972
923.911	4563
924.008	5486
924.106	4639
924.203	4152
924.300	4674
924.397	4047
924.494	4744
924.591	4896
924.688	4568
924.786	3871
924.883	5778
924.979	4973
925.077	4446
925.173	4258
925.270	4424
925.367	4090
925.464	4863
925.561	4803
925.658	4569
925.755	3806
925.852	4766
925.948	5057
926.045	4333
926.142	4999
926.239	5014
926.335	3768
926.432	4617
926.529	4433
926.625	4797
926.722	3701
926.818	3808
926.915	4114
927.011	4121
927.108	4174
927.204	4066
927.301	2843
927.397	3346
927.494	4797
927.590	2450
927.687	2312
927.783	4774
927.879	4516
927.976	4340
928.072	3001
928.168	4384
928.264	4138
928.361	3834
928.457	4216
928.553	3321
928.649	2950
928.745	4280
928.841	2875
928.937	4042
929.033	3694
929.129	3207
929.225	3849
929.321	3271
929.417	2849
929.513	4425
929.609	2992
929.705	1822
929.801	4539
929.897	3190
929.993	2391
930.089	3943
930.184	2562
930.280	3473
930.376	4279
930.471	3598
930.567	2047
930.663	3278
930.758	1719
930.854	2985
930.950	3019
931.045	2949
931.141	2787
931.236	3927
931.332	2784
931.427	1716
931.523	4101
931.618	3565
931.714	992
931.809	2816
931.905	3213
932.000	2179
932.095	2020
932.191	3219
932.286	4119
932.381	4059
932.476	1775
932.572	3053
932.667	2053
932.762	2506
932.857	3300
932.952	3597
933.047	3276
933.142	2041
933.237	2659
933.332	3247
933.427	3088
933.522	2688
933.617	1547
933.712	2566
933.807	2879
933.902	2730
933.997	3163
934.092	1660
934.187	1257
934.282	2499
934.376	2123
934.471	3116
934.566	1885
934.661	2189
934.755	2101
934.850	2938
934.945	2112
935.039	1755
935.134	2315
935.228	2044
935.323	3557
935.417	3090
935.512	1270
935.606	1554
935.701	2601
935.795	2271
935.890	2440
935.984	2372
936.079	1266
936.173	2082
936.267	1562
936.362	1803
936.456	2148
936.550	2682
936.644	1875
936.738	1041
936.833	1192
936.927	858
937.021	1336
937.115	1863
937.209	2032
937.303	2847
937.397	979
937.491	2454
937.585	2305
937.679	3080
937.773	1180
937.867	2344
937.961	1753
938.055	2550
938.149	1234
938.243	1527
938.337	505
938.430	1662
938.524	2379
938.618	1833
938.712	1451
938.805	2112
938.899	1325
938.993	1850
939.086	1234
939.180	360
939.274	1805
939.367	2422
939.461	1979
939.554	1093
939.648	1049
939.741	1330
939.835	1273
939.928	2476
940.022	1342
940.115	1409
940.208	1983
940.302	2121
940.395	2646
940.488	1347
940.582	1725
940.675	963
940.768	1142
940.861	2254
940.954	3037
941.048	388
941.141	689
941.234	1322
941.327	740
941.420	1837
941.513	1700
941.606	1539
941.699	1378
941.792	1848
941.885	1503
941.978	1662
942.071	1051
942.164	1217
942.257	758
942.349	1036
942.442	1650
942.535	1417
942.628	1771
942.721	1226
942.813	830
942.906	1776
942.999	1207
943.091	343
943.184	1116
943.277	910
943.369	129
943.462	545
943.554	653
943.647	1424
943.739	1912
943.832	2559
943.924	-567
944.017	1619
944.109	-54
944.201	851
944.294	1575
944.386	1274
944.478	210
944.571	706
944.663	1332
944.755	997
944.847	2266
944.940	1402
945.032	-552
945.124	834
945.216	2087
945.308	1676
945.400	731
945.492	1068
945.584	1990
945.676	1562
945.768	744
945.860	2663
945.952	988
946.044	948
946.136	642
946.228	755
946.320	499
946.412	763
946.503	308
946.595	2030
946.687	529
946.779	902
946.870	-17
946.962	747
947.054	632
947.145	1519
947.237	820
947.329	1285
947.420	1188
947.512	440
947.603	-123
947.695	766
947.786	-469
947.878	460
947.969	601
948.061	1265
948.152	408
948.243	448
948.335	168
948.426	338
948.517	78
948.609	1488
948.700	859
948.791	459
948.882	366
948.973	35
949.065	289
949.156	1291
949.247	124
949.338	762
949.429	-188
949.520	309
949.611	149
949.702	1545
949.793	1010
949.884	1164
949.975	614
950.066	675
950.157	-43
950.247	52
950.338	-450
950.429	589
950.520	281
950.611	441
950.701	620
950.792	1174
950.883	503
950.973	171
951.064	707
951.155	1216
951.245	974
951.336	1032
951.427	146
951.517	1816
951.608	444
951.698	326
951.788	-152
951.879	40
951.969	-588
952.060	-612
952.150	76
952.240	603
952.331	542
952.421	1579
952.511	558
952.602	-174
952.692	54
952.782	650
952.872	-201
952.962	930
953.052	610
953.143	-170
953.233	696
953.323	858
953.413	1269
953.503	263
953.593	35
953.683	629
953.773	-863
953.863	381
953.953	-259
954.042	741
954.132	711
954.222	1384
954.312	-557
954.402	314
954.492	68
954.581	-351
954.671	-90
954.761	-569
954.850	944
954.940	-241
955.030	201
955.119	-408
955.209	-465
955.298	-77
955.388	356
955.477	2166
955.567	-376
955.656	-221
955.746	-31
955.835	-95
955.925	-687
956.014	1011
956.103	549
956.193	1084
956.282	663
956.371	-320
956.461	153
956.550	639
956.639	31
956.728	-156
956.817	108
956.906	56
956.995	1199
957.085	-23
957.174	179
957.263	535
957.352	53
957.441	84
957.530	294
957.619	198
957.708	38
957.796	-24
957.885	-637
957.974	19
958.063	573
958.152	-1264
958.241	-115
958.329	716
958.418	144
958.507	-221
958.596	1254
958.684	-292
958.773	-30
958.861	-228
958.950	-158
959.039	196
959.127	-426
959.216	451
959.304	-59
959.393	-280
959.481	360
959.570	-530
959.658	-809
959.746	-645
959.835	848
959.923	-1046
960.011	-310
960.100	780
960.188	875
960.276	-674
960.365	-99
960.453	-269
960.541	-867
960.629	-989
960.717	-366
960.805	-745
960.893	7
960.981	-143
961.069	1051
961.158	166
961.245	356
961.333	215
961.421	264
961.509	-66
961.597	-502
961.685	-350
961.773	-7
961.861	-284
961.949	-156
962.036	-359
962.124	304
962.212	405
962.299	-706
962.387	-257
962.475	-746
962.562	-673
962.650	-584
962.738	-43
962.825	-813
962.913	-422
963.000	-907
963.088	794
963.175	278
963.263	-529
963.350	-165
963.438	-459
963.525	-1110
963.612	-37
963.700	-1184
963.787	849
963.874	-311
963.962	21
964.049	-763
964.136	-418
964.223	-1354
964.310	376
964.398	-368
964.485	-730
964.572	-274
964.659	554
964.746	-403
964.833	-517
964.920	191
965.007	-1556
965.094	-629
965.181	-1035
965.268	-64
965.355	108
965.441	-440
965.528	-863
965.615	878
965.702	-694
965.789	-887
965.875	-342
965.962	-429
966.049	-186
966.136	182
966.222	-798
966.309	135
966.395	215
966.482	281
966.569	117
966.655	478
966.742	864
966.828	-280
966.915	-920
967.001	-3
967.087	-1075
967.174	-1543
967.260	782
967.347	-1382
967.433	-536
967.519	-821
967.605	-231
967.692	-121
967.778	525
967.864	-980
967.950	-306
968.036	-851
968.123	-118
968.209	92
968.295	-784
968.381	-538
968.467	-321
968.553	-2330
968.639	922
968.725	-756
968.811	525
968.897	304
968.983	-540
969.069	-1116
969.154	248
969.240	-94
969.326	-524
969.412	-1358
969.497	-594
969.583	-978
969.669	11
969.755	-588
969.840	-1060
969.926	517
970.012	997
970.097	1599
970.183	900
970.268	137
970.354	-348
970.439	-1279
970.525	-209
970.610	-852
970.696	-38
970.781	-345
970.866	-1149
970.952	222
971.037	-1319
971.122	-735
971.208	-207
971.293	-425
971.378	-619
971.463	-983
971.549	-408
971.634	-875
971.719	-61
971.804	-767
971.889	-664
971.974	-834
972.059	114
972.144	-453
972.229	-426
972.314	-1296
972.399	701
972.484	-1099
972.569	-742
972.654	-1385
972.739	590
972.824	-995
972.908	-833
972.993	-481
973.078	-974
973.163	-1083
973.247	153
973.332	-1443
973.417	-370
973.501	-1161
973.586	-185
973.671	-596
973.755	-240
973.840	-332
973.924	528
974.009	-360
974.093	-63
974.178	305
974.262	-353
974.346	-848
974.431	-199
974.515	-1287
974.600	-908
974.684	-280
974.768	-1171
974.852	-158
974.937	-640
975.021	-665
975.105	-533
975.189	-1270
975.273	-962
975.358	-1087
975.442	-1035
975.526	-79
975.610	-700
975.694	-446
975.778	775
975.862	-713
975.946	-2476
976.030	498
976.114	-800
976.198	-358
976.281	-721
976.365	-35
976.449	-373
976.533	74
976.617	-1193
976.700	-613
976.784	-271
976.868	-517
976.951	-602
977.035	-1095
977.119	-694
977.202	-681
977.286	112
977.369	-50
977.453	542
977.536	-358
977.620	229
977.703	374
977.787	-895
977.870	-698
977.953	642
978.037	-1373
978.120	792
978.203	-1278
978.287	54
978.370	-684
978.453	-531
978.536	-1311
978.620	100
978.703	-883
978.786	-682
978.869	-1131
978.952	-1796
979.035	486
979.118	-12
979.201	-419
979.284	8
979.367	-1233
979.450	-72
979.533	-855
979.616	44
979.699	-826
979.782	63
979.865	-511
979.948	-259
980.030	-867
980.113	-126
980.196	-997
980.279	-40
980.361	-614
980.444	343
980.526	-133
980.609	1158
980.692	376
980.774	490
980.857	-755
980.939	1452
981.022	-604
981.104	67
981.187	246
981.269	372
981.352	-522
981.434	-604
981.516	-579
981.599	807
981.681	-114
981.763	-292
981.846	-467
981.928	-518
982.010	-659
982.092	-140
982.174	83
982.256	-521
982.339	-680
982.421	-697
982.503	62
982.585	-544
982.667	-34
982.749	-777
982.831	-269
982.913	-1003
982.995	1119
983.077	-707
983.158	1300
983.240	-561
983.322	298
983.404	1768
983.486	-285
983.568	668
983.649	-413
983.731	473
983.813	256
983.894	-480
983.976	-526
984.058	-473
984.139	219
984.221	-647
984.302	106
984.384	321
984.465	-1328
984.547	758
984.628	46
984.710	708
984.791	-51
984.872	-205
984.954	-170
985.035	431
985.116	-46
985.198	393
985.279	407
985.360	135
985.441	-654
985.522	1135
985.604	-249
985.685	-528
985.766	1072
985.847	1372
985.928	-914
986.009	810
986.090	-172
986.171	277
986.252	-238
986.333	407
986.414	-224
986.495	457
986.576	32
986.656	680
986.737	669
986.818	389
986.899	6
986.980	-228
987.060	679
987.141	-536
987.222	292
987.302	1179
987.383	1623
987.464	213
987.544	1272
987.625	860
987.705	1645
987.786	853
987.866	5
987.947	1022
988.027	195
988.108	-330
988.188	878
988.268	1244
988.349	292
988.429	413
988.509	361
988.589	550
988.670	-417
988.750	1452
988.830	573
988.910	1063
988.990	67
989.070	-113
989.151	218
989.231	-240
989.311	1094
989.391	804
989.471	249
989.551	596
989.631	424
989.711	942
989.791	-309
989.870	114
989.950	1171
990.030	-334
990.110	581
990.190	-968
990.269	-358
990.349	11
990.429	361
990.509	652
990.588	558
990.668	729
990.747	-208
990.827	-199
990.907	14
990.986	400
991.066	602
991.145	-427
991.225	-104
991.304	-205
991.383	281
991.463	-156
991.542	800
991.622	-271
991.701	-452
991.780	-576
991.859	-48
991.939	-54
992.018	-589
992.097	423
992.176	-420
992.256	319
992.335	-842
992.414	653
992.493	-1117
992.572	22
992.651	774
992.730	-261
992.809	-334
992.888	-516
992.967	-323
993.046	-4
993.125	-1575
993.203	-385
993.282	-1358
993.361	39
993.440	-221
993.519	-739
993.597	-140
993.676	-747
993.755	254
993.834	410
993.912	-1641
993.991	807
994.069	-1082
994.148	-544
994.226	-1091
994.305	-83
994.384	-560
994.462	449
994.540	-917
994.619	-1131
994.697	-325
994.776	-353
994.854	-596
994.932	-1325
995.011	-803
995.089	-1245
995.167	-947
995.245	-378
995.324	-1280
995.402	-171
995.480	-1024
995.558	81
995.636	-1043
995.714	-1584
995.792	299
995.870	-608
995.948	-1083
996.026	234
996.104	-1615
996.182	-557
996.260	-1399
996.338	-1002
996.416	-1725
996.494	-687
996.572	170
996.649	-1079
996.727	-1489
996.805	114
996.883	-1509
996.960	-196
997.038	-588
997.116	-451
997.193	-1539
997.271	-264
997.348	-1857
997.426	-719
997.504	-1595
997.581	-302
997.658	-1122
997.736	-1332
997.813	-2108
997.891	-511
997.968	-1738
998.046	-676
998.123	-1391
998.200	-17
998.277	-1091
998.355	-889
998.432	-2101
998.509	-1415
998.586	-1235
998.663	-12
998.741	-861
998.818	-1259
998.895	-1420
998.972	-533
999.049	-923
999.126	-973
999.203	-1570
999.280	-1244
999.357	-2192
999.434	-1540
999.511	-953
999.587	-12
999.664	-1453
999.741	-1417
999.818	-787
999.895	-2070
999.971	-1330
1000.048	-607
1000.125	-1215
1000.202	-1401
1000.278	-1359
1000.355	-1216
1000.431	-1101
1000.508	-2103
1000.584	-1071
1000.661	-763
1000.738	-1345
1000.814	-1292
1000.890	-498
1000.967	-1290
1001.043	-1260
1001.120	-2129
1001.196	-490
1001.272	-2215
1001.349	-1616
1001.425	-2301
1001.501	-1872
1001.577	-1894
1001.654	-892
1001.730	-659
1001.806	-1394
1001.882	-2748
1001.958	-1479
1002.034	-870
1002.110	-1835
1002.186	-1633
1002.262	-2314
1002.338	-1985
1002.414	-1117
1002.490	-768
1002.566	-1658
1002.642	-1960
1002.718	-1223
1002.794	-1124
1002.870	-1425
1002.945	-1418
1003.021	-1876
1003.097	-1758
1003.173	-400
1003.248	-1215
1003.324	-904
1003.400	-1220
1003.475	-2419
1003.551	-2235
1003.626	-2653
1003.702	-1953
1003.777	-1626
1003.853	-1013
1003.928	-2067
1004.004	-1137
1004.079	-1165
1004.155	-1437
1004.230	-2804
1004.305	-860
1004.381	-2380
1004.456	-1131
1004.531	-1782
1004.607	-1506
1004.682	-1845
1004.757	-1444
1004.832	-1769
1004.907	-1524
1004.982	-1645
1005.057	-1155
1005.133	-1751
1005.208	-2204
1005.283	-2178
1005.358	-673
1005.433	-2654
1005.508	-1227
1005.583	-2929
1005.657	-1596
1005.732	-1111
1005.807	-1775
1005.882	-1780
1005.957	-1584
1006.032	-2090
1006.106	-1192
1006.181	-1591
1006.256	-929
1006.331	-2305
1006.405	-2077
1006.480	-2114
1006.554	-2188
1006.629	-1956
1006.704	-2307
1006.778	-1824
1006.853	-1156
1006.927	-1952
1007.002	-2061
1007.076	-2143
1007.150	-2130
1007.225	-1591
1007.299	-1699
1007.373	-2699
1007.448	-1319
1007.522	-1631
1007.596	-1600
1007.671	-2578
1007.745	-1881
1007.819	-2016
1007.893	-1856
1007.967	-1110
1008.041	-3123
1008.115	-1086
1008.190	-2784
1008.264	-2374
1008.338	-2552
1008.412	-2105
1008.486	-2153
1008.560	-2326
1008.633	-2726
1008.707	-1604
1008.781	-1497
1008.855	-2343
1008.929	-1887
1009.003	-2926
1009.076	-2189
1009.150	-1947
1009.224	-1918
1009.298	-1938
1009.371	-1783
1009.445	-2001
1009.519	-1647
1009.592	-2680
1009.666	-1912
1009.739	-1905
1009.813	-2391
1009.886	-558
1009.960	-2383
1010.033	-902
1010.107	-1898
1010.180	-2469
1010.253	-1740
1010.327	-2332
1010.400	-1990
1010.473	-2054
1010.547	-750
1010.620	-2004
1010.693	-1839
1010.766	-3331
1010.840	-2029
1010.913	-1340
1010.986	-2867
1011.059	-2322
1011.132	-1902
1011.205	-1774
1011.278	-2278
1011.351	-2357
1011.424	-2040
1011.497	-2185
1011.570	-1565
1011.643	-1796
1011.716	-2303
1011.789	-1907
1011.862	-655
1011.934	-1833
1012.007	-2488
1012.080	-923
1012.153	-1843
1012.225	-843
1012.298	-2620
1012.371	-1898
1012.443	-1284
1012.516	-2754
1012.588	-1519
1012.661	-1940
1012.733	-2321
1012.806	-1706
1012.879	-2509
1012.951	-1736
1013.023	-1415
1013.096	-1500
1013.168	-2193
1013.241	-2101
1013.313	-2271
1013.385	-2393
1013.458	-2500
1013.530	-2073
1013.602	-1956
1013.674	-1315
1013.746	-2261
1013.819	-2122
1013.891	-1898
1013.963	-2526
1014.035	-1850
1014.107	-1431
1014.179	-1024
1014.251	-2165
1014.323	-2298
1014.395	-2222
1014.467	-2200
1014.539	-2256
1014.611	-2850
1014.683	-2098
1014.754	-2120
1014.826	-2637
1014.898	-1774
1014.970	-2131
1015.042	-602
1015.113	-1825
1015.185	-2024
1015.257	-2736
1015.328	-1661
1015.400	-2553
1015.471	-2018
1015.543	-3018
1015.615	-1849
1015.686	-1412
1015.757	-2295
1015.829	-1504
1015.901	-1462
1015.972	-2033
1016.043	-1410
1016.115	-1709
1016.186	-1687
1016.257	-2921
1016.328	-1999
1016.400	-1584
1016.471	-2079
1016.542	-1960
1016.613	-1362
1016.685	-1836
1016.756	-1752
1016.827	-2353
1016.898	-2143
1016.969	-1366
1017.040	-1629
1017.111	-1968
1017.182	-1951
1017.253	-1557
1017.324	-1856
1017.395	-2624
1017.466	-2151
1017.537	-2271
1017.608	-1413
1017.678	-2446
1017.749	-1621
1017.820	-2116
1017.891	-2775
1017.961	-2710
1018.032	-2313
1018.103	-1580
1018.173	-2755
1018.244	-1926
1018.315	-1161
1018.385	-1256
1018.456	-2288
1018.526	-1967
1018.597	-1547
1018.667	-2016
1018.738	-2010
1018.808	-2049
1018.878	-2083
1018.949	-2556
1019.019	-1377
1019.089	-1626
1019.160	-1970
1019.230	-2056
1019.300	-1133
1019.371	-3176
1019.441	-1710
1019.511	-2284
1019.581	-2460
1019.651	-2036
1019.721	-1874
1019.791	-2166
1019.861	-2322
1019.931	-2024
1020.001	-2697
1020.071	-1649
1020.141	-1644
1020.211	-2265
1020.281	-2142
1020.351	-2481
1020.421	-1582
1020.491	-2259
1020.560	-1699
1020.630	-1890
1020.700	-1367
1020.770	-3082
1020.839	-1462
1020.909	-2605
1020.979	-2769
1021.048	-2354
1021.118	-1639
1021.187	-2573
1021.257	-1651
1021.326	-1555
1021.396	-2013
1021.465	-1833
1021.535	-1882
1021.604	-3018
1021.674	-1361
1021.743	-2119
1021.812	-1886
1021.882	-1992
1021.951	-1442
1022.020	-2040
1022.089	-709
1022.159	-2937
1022.228	-2353
1022.297	-2238
1022.366	-2303
1022.435	-2309
1022.504	-2294
1022.573	-2451
1022.642	-1827
1022.711	-2641
1022.781	-2120
1022.849	-2269
1022.918	-2485
1022.987	-1709
1023.056	-2432
1023.125	-2832
1023.194	-2721
1023.263	-2016
1023.331	-1907
1023.400	-2540
1023.469	-1790
1023.538	-1751
1023.606	-2048
1023.675	-1706
1023.744	-2778
1023.812	-1834
1023.881	-2059
1023.949	-2491
1024.018	-2585
1024.086	-2443
1024.155	-1593
1024.223	-2508
1024.292	-1620
1024.360	-1919
1024.429	-2475
1024.497	-2466
1024.565	-2568
1024.634	-2248
1024.702	-1941
1024.770	-1659
1024.838	-2734
1024.907	-2044
1024.975	-2189
1025.043	-1413
1025.111	-2029
1025.179	-1991
1025.247	-2466
1025.315	-3139
1025.383	-2314
1025.451	-2330
1025.519	-2504
1025.587	-2899
1025.655	-1957
1025.723	-2526
1025.791	-2566
1025.859	-1969
1025.927	-1354
1025.995	-2579
1026.062	-1624
1026.130	-1952
1026.198	-1982
1026.266	-3078
1026.333	-1611
1026.401	-1876
1026.469	-2125
1026.536	-2084
1026.604	-2338
1026.671	-2223
1026.739	-2028
1026.806	-2997
1026.874	-2572
1026.941	-2113
1027.009	-2200
1027.076	-3350
1027.144	-1700
1027.211	-3067
1027.278	-2910
1027.345	-2943
1027.413	-1839
1027.480	-2032
1027.547	-2096
1027.614	-2731
1027.682	-1982
1027.749	-1925
1027.816	-2226
1027.883	-1961
1027.950	-2052
1028.017	-2548
1028.084	-1655
1028.151	-2595
1028.218	-2123
1028.285	-1614
1028.352	-1710
1028.419	-2890
1028.486	-2782
1028.553	-2199
1028.619	-2056
1028.686	-2920
1028.753	-2839
1028.820	-2992
1028.886	-2419
1028.953	-2201
1029.020	-2064
1029.086	-2221
1029.153	-2535
1029.220	-2740
1029.286	-1946
1029.353	-2672
1029.419	-2592
1029.486	-2275
1029.552	-2501
1029.619	-2644
1029.685	-2156
1029.751	-2498
1029.818	-1512
1029.884	-2048
1029.951	-2037
1030.017	-1872
1030.083	-2287
1030.149	-2801
1030.216	-2857
1030.282	-2531
1030.348	-2172
1030.414	-3059
1030.480	-2027
1030.546	-3389
1030.612	-1989
1030.678	-2991
1030.744	-2598
1030.810	-1844
1030.876	-2509
1030.942	-2658
1031.008	-2658
1031.074	-2617
1031.140	-1952
1031.206	-2148
1031.272	-2667
1031.337	-2525
1031.403	-1976
1031.469	-2321
1031.534	-2904
1031.600	-2089
1031.666	-2652
1031.731	-2583
1031.797	-1700
1031.863	-3005
1031.928	-1879
1031.994	-2442
1032.059	-2605
1032.125	-2835
1032.190	-2244
1032.256	-2756
1032.321	-2537
1032.386	-2065
1032.452	-1781
1032.517	-2959
1032.582	-2495
1032.647	-2491
1032.713	-2791
1032.778	-2488
1032.843	-2517
1032.908	-2579
1032.974	-2774
1033.039	-2752
1033.104	-2502
1033.169	-2638
1033.234	-2468
1033.299	-2032
1033.364	-2253
1033.429	-2691
1033.494	-2087
1033.559	-2827
1033.624	-2213
1033.688	-2726
1033.753	-1861
1033.818	-1500
1033.883	-2092
1033.948	-2545
1034.013	-1897
1034.077	-1447
1034.142	-1979
1034.207	-1266
1034.271	-859
1034.336	331
1034.400	-911
1034.465	-1656
1034.530	-2466
1034.594	-3023
1034.658	-2053
1034.723	-2749
1034.787	-1826
1034.852	-2548
1034.916	-2254
1034.981	-2979
1035.045	-2563
1035.109	-2646
1035.173	-1901
1035.238	-2942
1035.302	-2199
1035.366	-2533
1035.430	-2862
1035.495	-2644
1035.559	-2107
1035.623	-2342
1035.687	-2029
1035.751	-2573
1035.815	-2460
1035.879	-1856
1035.943	-2046
1036.007	-2657
1036.071	-2736
1036.135	-3346
1036.198	-1938
1036.262	-3010
1036.326	-2898
1036.390	-1970
1036.454	-2288
1036.517	-2531
1036.581	-2771
1036.645	-1808
1036.709	-2104
1036.772	-3185
1036.836	-2775
1036.900	-2944
1036.963	-2703
1037.026	-2473
1037.090	-2414
1037.154	-2833
1037.217	-2951
1037.280	-2726
1037.344	-2308
1037.407	-3060
1037.471	-2049
1037.534	-2789
1037.597	-2460
1037.661	-2613
1037.724	-2205
1037.787	-1977
1037.850	-2495
1037.913	-2224
1037.977	-1504
1038.040	-1955
1038.103	-1226
1038.166	-2415
1038.229	-2306
1038.292	-2551
1038.355	-2165
1038.418	-2499
1038.481	-1687
1038.544	-2469
1038.607	-2267
1038.670	-1809
1038.732	-2538
1038.795	-3048
1038.858	-2192
1038.921	-2756
1038.984	-2063
1039.046	-2649
1039.109	-2893
1039.172	-2640
1039.234	-3097
1039.297	-2702
1039.360	-1458
1039.422	-1671
1039.485	-2327
1039.547	-2802
1039.610	-1972
1039.672	-2862
1039.734	-2357
1039.797	-2270
1039.859	-1759
1039.922	-2001
1039.984	-1853
1040.046	-2059
1040.109	-1590
1040.171	-2898
1040.233	-2078
1040.295	-2291
1040.358	-1822
1040.420	-1672
1040.482	-2276
1040.544	-2774
1040.606	-1315
1040.668	-2934
1040.730	-2009
1040.792	-2957
1040.854	-2094
1040.916	-2465
1040.978	-1820
1041.040	-1964
1041.102	-2120
1041.164	-2019
1041.225	-2614
1041.287	-2697
1041.349	-2520
1041.411	-2607
1041.472	-2022
1041.534	-1790
1041.596	-2170
1041.657	-2576
1041.719	-1741
1041.781	-2329
1041.842	-2270
1041.904	-2269
1041.965	-1670
1042.027	-2015
1042.088	-2490
1042.150	-2217
1042.211	-2739
1042.272	-2111
1042.334	-2304
1042.395	-1969
1042.456	-2256
1042.518	-2054
1042.579	-1945
1042.640	-2490
1042.701	-2204
1042.763	-2660
1042.824	-2286
1042.885	-2639
1042.946	-2112
1043.007	-2337
1043.068	-2728
1043.129	-1428
1043.190	-2121
1043.251	-2201
1043.312	-2352
1043.373	-1716
1043.434	-2398
1043.495	-1522
1043.556	-1393
1043.616	-2096
1043.677	-2516
1043.738	-1665
1043.799	-3062
1043.859	-1887
1043.920	-2109
1043.981	-3081
1044.041	-1885
1044.102	-1952
1044.162	-2077
1044.223	-1792
1044.284	-1465
1044.344	-2684
1044.405	-1822
1044.465	-2493
1044.525	-1383
1044.586	-2372
1044.646	-2141
1044.707	-1378
1044.767	-1516
1044.827	-1943
1044.887	-1946
1044.948	-2333
1045.008	-1503
1045.068	-2037
1045.128	-1735
1045.188	-2392
1045.249	-1405
1045.309	-3046
1045.369	-2169
1045.429	-2662
1045.489	-1801
1045.549	-1010
1045.609	-2172
1045.669	-2366
1045.729	-1757
1045.789	-1795
1045.848	-1426
1045.908	-1345
1045.968	-1597
1046.028	-2442
1046.088	-1511
1046.147	-1617
1046.207	-1397
1046.267	-1960
1046.326	-1465
1046.386	-1704
1046.446	-1491
1046.505	-1332
1046.565	-1977
1046.624	-692
1046.684	-784
1046.743	-1198
1046.803	-524
1046.862	-462
1046.922	0
