'Start Wavelength	183.907
'End Wavelength	1046.922
'Gate Delay	5.000
'Gate Width (ms)	1.050
'Laser Output Level	0.000
'X Position	0.000
'Y Position	0.000
'Z Position	0.000
'Grid Point Number	1.000
'Shot Number	100.000
183.907	518.000
183.977	-63.000
184.047	415
184.116	1027
184.186	795
184.256	-701
184.325	-11
184.395	-497
184.465	1982
184.534	416
184.604	611
184.674	546
184.743	-181
184.813	924
184.883	848
184.952	-59
185.022	582
185.092	227
185.161	597
185.231	297
185.301	670
185.370	800
185.440	-695
185.509	1134
185.579	370
185.649	393
185.718	1074
185.788	-100
185.857	100
185.927	310
185.996	979
186.066	593
186.136	676
186.205	1140
186.275	1167
186.344	755
186.414	642
186.483	664
186.553	2050
186.622	1955
186.692	1286
186.761	849
186.831	719
186.900	315
186.970	1660
187.039	712
187.109	1100
187.178	644
187.248	1116
187.317	994
187.387	561
187.456	108
187.526	1125
187.595	387
187.664	1178
187.734	511
187.803	1664
187.873	975
187.942	980
188.012	1229
188.081	1315
188.150	961
188.220	990
188.289	1753
188.358	1998
188.428	1629
188.497	1289
188.567	1413
188.636	717
188.705	1178
188.775	172
188.844	212
188.913	1069
188.983	1164
189.052	721
189.121	752
189.191	874
189.260	750
189.329	925
189.399	863
189.468	759
189.537	375
189.606	638
189.676	1227
189.745	1255
189.814	1196
189.883	743
189.953	557
190.022	696
190.091	485
190.161	728
190.230	929
190.299	787
190.368	545
190.437	935
190.507	1006
190.576	665
190.645	1337
190.714	400
190.783	-31
190.853	905
190.922	1281
190.991	1513
191.060	1360
191.129	231
191.198	432
191.268	1428
191.337	890
191.406	1388
191.475	1460
191.544	1576
191.613	1240
191.682	951
191.752	707
191.821	664
191.890	661
191.959	742
192.028	1773
192.097	298
192.166	1406
192.235	-214
192.304	1448
192.373	340
192.442	317
192.511	1130
192.580	759
192.650	220
192.719	317
192.788	836
192.857	-43
192.926	372
192.995	748
193.064	752
193.133	1564
193.202	1261
193.271	601
193.340	1228
193.409	1108
193.478	1537
193.547	1545
193.615	1523
193.684	2130
193.753	2405
193.822	1776
193.891	628
193.960	1351
194.029	1208
194.098	1437
194.167	1277
194.236	1475
194.305	1023
194.374	991
194.443	577
194.512	1018
194.580	1065
194.649	2194
194.718	2411
194.787	905
194.856	454
194.925	1423
194.994	1976
195.062	1879
195.131	2523
195.200	2577
195.269	4460
195.338	2077
195.407	2084
195.475	1316
195.544	2904
195.613	2863
195.682	1598
195.751	2655
195.819	2936
195.888	2094
195.957	2990
196.026	3445
196.094	3802
196.163	3499
196.232	3795
196.301	2616
196.369	2556
196.438	2504
196.507	1581
196.576	1219
196.644	528
196.713	757
196.782	295
196.850	1166
196.919	1971
196.988	836
197.056	1377
197.125	671
197.194	1960
197.262	305
197.331	1019
197.400	456
197.468	1283
197.537	709
197.606	530
197.674	917
197.743	1538
197.812	810
197.880	1453
197.949	1013
198.017	885
198.086	621
198.155	1192
198.223	666
198.292	1258
198.360	548
198.429	1008
198.497	841
198.566	871
198.635	652
198.703	1100
198.772	610
198.840	1370
198.909	688
198.977	894
199.046	1052
199.114	1216
199.183	1132
199.251	935
199.320	960
199.388	646
199.457	1047
199.525	1457
199.594	1736
199.662	1207
199.731	877
199.799	1557
199.867	1188
199.936	1650
200.004	1477
200.073	1729
200.141	1054
200.210	1251
200.278	1661
200.346	1656
200.415	2068
200.483	2212
200.552	2006
200.620	1630
200.688	1252
200.757	1097
200.825	1290
200.893	1748
200.962	1504
201.030	659
201.098	964
201.167	1392
201.235	1718
201.303	1437
201.372	1589
201.440	1111
201.508	1722
201.577	1283
201.645	1426
201.713	1980
201.781	396
201.850	2034
201.918	1149
201.986	1787
202.055	904
202.123	1778
202.191	762
202.259	1621
202.327	790
202.396	858
202.464	1337
202.532	2015
202.600	4142
202.669	2764
202.737	623
202.805	1117
202.873	1443
202.941	605
203.009	933
203.078	1434
203.146	1155
203.214	1098
203.282	381
203.350	1614
203.418	1481
203.487	1423
203.555	1036
203.623	1517
203.691	1219
203.759	835
203.827	-604
203.895	1020
203.963	938
204.031	2057
204.099	1310
204.168	327
204.236	1158
204.304	1593
204.372	785
204.440	704
204.508	782
204.576	685
204.644	954
204.712	539
204.780	911
204.848	1605
204.916	1059
204.984	884
205.052	1148
205.120	1186
205.188	896
205.256	541
205.324	-125
205.392	493
205.460	973
205.528	139
205.596	284
205.664	1401
205.732	-217
205.799	1055
205.867	1450
205.935	570
206.003	1085
206.071	492
206.139	700
206.207	843
206.275	424
206.343	341
206.411	706
206.478	1261
206.546	845
206.614	1343
206.682	1216
206.750	1179
206.818	1769
206.885	2209
206.953	168
207.021	2072
207.089	1185
207.157	1020
207.225	1178
207.292	631
207.360	497
207.428	637
207.496	638
207.563	1230
207.631	1412
207.699	838
207.767	1452
207.834	1039
207.902	831
207.970	1217
208.038	946
208.105	827
208.173	751
208.241	886
208.309	800
208.376	1113
208.444	4041
208.512	1357
208.579	742
208.647	1982
208.715	2130
208.782	1724
208.850	1789
208.918	1113
208.985	1425
209.053	1607
209.120	1209
209.188	448
209.256	1068
209.323	-191
209.391	2153
209.459	1993
209.526	1117
209.594	92
209.661	936
209.729	1222
209.796	1553
209.864	1702
209.932	507
209.999	2789
210.067	1925
210.134	2167
210.202	833
210.269	3934
210.337	4151
210.404	1441
210.472	1345
210.539	1098
210.607	886
210.674	3429
210.742	2355
210.809	1320
210.877	2945
210.944	3275
211.012	1634
211.079	2875
211.146	1323
211.214	1929
211.281	3259
211.349	3096
211.416	2143
211.484	2524
211.551	1005
211.618	1586
211.686	1364
211.753	823
211.821	1072
211.888	1258
211.955	2217
212.023	1711
212.090	1139
212.157	1364
212.225	671
212.292	840
212.359	1512
212.427	1912
212.494	1646
212.561	868
212.629	932
212.696	497
212.763	1054
212.831	1057
212.898	1150
212.965	1531
213.032	1337
213.100	2203
213.167	1558
213.234	3114
213.301	1276
213.369	1056
213.436	1108
213.503	905
213.570	1853
213.638	1601
213.705	1248
213.772	669
213.839	1440
213.906	2219
213.973	2900
214.041	1856
214.108	1630
214.175	1679
214.242	1466
214.309	1525
214.376	1527
214.444	2309
214.511	2260
214.578	2109
214.645	2311
214.712	3509
214.779	2415
214.846	2744
214.913	2100
214.980	2155
215.048	3781
215.115	5511
215.182	6411
215.249	4116
215.316	2207
215.383	2069
215.450	2493
215.517	2254
215.584	2927
215.651	2511
215.718	2128
215.785	3429
215.852	3872
215.919	5357
215.986	5515
216.053	3454
216.120	1714
216.187	3981
216.254	4132
216.321	3367
216.388	3735
216.455	4106
216.522	2709
216.589	7159
216.656	9932
216.722	9423
216.789	3778
216.856	2264
216.923	1809
216.990	2863
217.057	2860
217.124	5166
217.191	3892
217.258	3408
217.324	3761
217.391	3005
217.458	1092
217.525	1558
217.592	1653
217.659	1258
217.725	3546
217.792	4575
217.859	5854
217.926	864
217.993	1244
218.059	1764
218.126	1572
218.193	2192
218.260	549
218.327	1610
218.393	2110
218.460	2313
218.527	1772
218.594	2291
218.660	6805
218.727	7884
218.794	2397
218.860	2071
218.927	908
218.994	1239
219.061	2010
219.127	4406
219.194	6950
219.261	2960
219.327	1678
219.394	2234
219.461	187
219.527	2088
219.594	4248
219.661	3104
219.727	131
219.794	1770
219.860	364
219.927	1794
219.994	4088
220.060	9037
220.127	8508
220.193	4750
220.260	1314
220.326	2586
220.393	3064
220.460	1440
220.526	965
220.593	886
220.659	1471
220.726	1442
220.792	1350
220.859	1786
220.925	3083
220.992	3238
221.058	2580
221.125	1721
221.191	815
221.258	-230
221.324	1152
221.391	1467
221.457	722
221.524	1225
221.590	380
221.657	890
221.723	1323
221.789	896
221.856	1108
221.922	218
221.989	1367
222.055	1290
222.121	369
222.188	4109
222.254	1472
222.321	1489
222.387	17
222.453	722
222.520	468
222.586	-554
222.652	1369
222.719	666
222.785	697
222.851	1114
222.918	896
222.984	1485
223.050	987
223.116	624
223.183	2030
223.249	-204
223.315	-4
223.382	1457
223.448	473
223.514	520
223.580	615
223.647	1108
223.713	90
223.779	416
223.845	1032
223.911	1484
223.978	407
224.044	2295
224.110	2035
224.176	1796
224.242	1103
224.309	41
224.375	894
224.441	820
224.507	1549
224.573	2190
224.639	2621
224.705	797
224.772	974
224.838	969
224.904	3627
224.970	2042
225.036	1766
225.102	2545
225.168	2872
225.234	2917
225.300	2150
225.366	1984
225.432	1623
225.499	1417
225.565	2093
225.631	2271
225.697	560
225.763	942
225.829	1022
225.895	1961
225.961	4950
226.027	4692
226.093	3377
226.159	3366
226.225	2710
226.291	4742
226.357	6112
226.423	7760
226.489	7655
226.554	4004
226.620	3046
226.686	6613
226.752	10777
226.818	6110
226.884	10068
226.950	9291
227.016	4451
227.082	5448
227.148	4211
227.214	7523
227.279	6049
227.345	4305
227.411	6508
227.477	8694
227.543	15736
227.609	18840
227.674	10614
227.740	7937
227.806	5082
227.872	3286
227.938	2485
228.003	6816
228.069	3754
228.135	1766
228.201	1959
228.267	2844
228.332	5181
228.398	5678
228.464	4065
228.530	1682
228.595	2102
228.661	1744
228.727	6465
228.792	7562
228.858	2895
228.924	4105
228.990	4375
229.055	5714
229.121	7354
229.187	3789
229.252	4478
229.318	1570
229.384	2926
229.449	5752
229.515	1646
229.581	885
229.646	3713
229.712	4204
229.777	9427
229.843	12189
229.909	7669
229.974	6461
230.040	5116
230.105	3339
230.171	3401
230.236	3722
230.302	2355
230.368	5836
230.433	2929
230.499	3185
230.564	2031
230.630	2334
230.695	1984
230.761	1800
230.826	515
230.892	5862
230.957	2326
231.023	639
231.088	1557
231.154	1806
231.219	974
231.284	4096
231.350	5677
231.415	2168
231.481	1569
231.546	1178
231.612	1072
231.677	1830
231.742	414
231.808	3863
231.873	1737
231.939	220
232.004	5839
232.069	6437
232.135	2453
232.200	711
232.265	1561
232.331	1426
232.396	198
232.461	786
232.527	2037
232.592	1176
232.657	2979
232.723	5201
232.788	5047
232.853	2424
232.918	2161
232.984	1827
233.049	1046
233.114	4549
233.179	6116
233.245	7259
233.310	9335
233.375	3380
233.440	3086
233.506	2600
233.571	1919
233.636	2490
233.701	2734
233.766	5519
233.832	7767
233.897	5139
233.962	7601
234.027	10292
234.092	8803
234.157	6664
234.222	5963
234.288	8415
234.353	17900
234.418	19886
234.483	13968
234.548	9410
234.613	8409
234.678	7357
234.743	6350
234.808	18610
234.873	14205
234.938	7641
235.004	5065
235.069	5546
235.134	4016
235.199	3958
235.264	3215
235.329	1741
235.394	3150
235.459	4583
235.524	5484
235.589	4203
235.654	1519
235.719	1000
235.784	1964
235.849	3271
235.913	8953
235.978	10612
236.043	13843
236.108	5831
236.173	4590
236.238	6089
236.303	3076
236.368	3249
236.433	5419
236.498	9853
236.563	5085
236.627	5201
236.692	15263
236.757	13213
236.822	6654
236.887	9844
236.952	6377
237.017	3609
237.081	5986
237.146	5964
237.211	7675
237.276	12768
237.341	30783
237.405	20318
237.470	10154
237.535	9770
237.600	4790
237.664	4638
237.729	3735
237.794	4373
237.859	5908
237.923	7703
237.988	5646
238.053	8888
238.118	9914
238.182	20648
238.247	21585
238.312	13037
238.376	9806
238.441	6941
238.506	8094
238.570	3361
238.635	4334
238.700	4164
238.764	3473
238.829	8635
238.893	12948
238.958	6883
239.023	8048
239.087	4270
239.152	6007
239.216	3127
239.281	4198
239.346	4154
239.410	3567
239.475	4706
239.539	20541
239.604	18886
239.668	8199
239.733	6893
239.797	12244
239.862	29044
239.926	31061
239.991	14489
240.055	8385
240.120	6690
240.184	7140
240.249	5231
240.313	5004
240.378	5890
240.442	13897
240.507	22000
240.571	9816
240.635	9827
240.700	15152
240.764	7321
240.829	5560
240.893	3584
240.957	4751
241.022	12223
241.086	21687
241.151	12850
241.215	5198
241.279	7189
241.344	12828
241.408	7141
241.472	3537
241.537	5183
241.601	4163
241.665	2736
241.730	3482
241.794	4358
241.858	2826
241.922	5814
241.987	5138
242.051	4322
242.115	2484
242.179	3471
242.244	2035
242.308	4964
242.372	4634
242.436	5183
242.501	3839
242.565	3483
242.629	3341
242.693	4552
242.757	2692
242.822	3555
242.886	4884
242.950	6301
243.014	4948
243.078	9649
243.142	10659
243.206	5989
243.271	6012
243.335	3688
243.399	4750
243.463	4864
243.527	6174
243.591	8143
243.655	10575
243.719	5566
243.783	7669
243.847	8612
243.911	8641
243.975	24391
244.040	22730
244.104	9279
244.168	6809
244.232	14576
244.296	19882
244.360	10375
244.424	10277
244.488	8545
244.552	8246
244.615	5207
244.679	5597
244.743	8751
244.807	10565
244.871	7010
244.935	6208
244.999	5191
245.063	7949
245.127	9052
245.191	9884
245.255	9835
245.319	11097
245.383	14200
245.446	10896
245.510	7436
245.574	11358
245.638	11350
245.702	9753
245.766	20136
245.829	14271
245.893	10617
245.957	7763
246.021	10474
246.085	11444
246.149	13511
246.212	27876
246.276	43933
246.340	24983
246.404	17822
246.467	13611
246.531	19748
246.595	14495
246.659	14808
246.722	15623
246.786	21750
246.850	17751
246.913	20697
246.977	10468
247.041	11932
247.104	13107
247.168	12222
247.232	26301
247.295	52926
247.359	33545
247.423	16503
247.486	25695
247.550	20364
247.614	16140
247.677	23205
247.741	14838
247.804	13048
247.868	14744
247.932	26833
247.995	56751
248.059	29753
248.122	15257
248.186	19369
248.249	33357
248.313	73410
248.376	84982
248.440	64539
248.503	31128
248.567	24336
248.630	30793
248.694	42945
248.757	52031
248.821	81150
248.884	70913
248.948	58923
249.011	75907
249.075	92462
249.138	91172
249.202	50046
249.265	30403
249.328	27971
249.392	22531
249.455	20583
249.519	14718
249.582	21214
249.645	31208
249.709	26537
249.772	17777
249.835	15936
249.899	14550
249.962	13382
250.025	12850
250.089	32799
250.152	54883
250.215	31383
250.279	21054
250.342	18180
250.405	16493
250.468	12495
250.532	17529
250.595	21679
250.658	17095
250.721	17099
250.785	21065
250.848	19448
250.911	12139
250.974	11243
251.038	19015
251.101	48961
251.164	26545
251.227	25406
251.290	20143
251.354	15831
251.417	18816
251.480	19665
251.543	16123
251.606	19429
251.669	21911
251.732	22353
251.795	46378
251.859	43087
251.922	22561
251.985	22934
252.048	16640
252.111	19728
252.174	23906
252.237	50483
252.300	92092
252.363	75200
252.426	64255
252.489	47916
252.552	35128
252.615	25741
252.678	28736
252.741	63490
252.804	52506
252.867	40890
252.930	71326
252.993	57181
253.056	37960
253.119	31034
253.182	23041
253.245	25740
253.308	30008
253.371	43248
253.434	42157
253.497	35889
253.559	56388
253.622	49549
253.685	67982
253.748	81654
253.811	37994
253.874	38452
253.937	40958
254.000	34740
254.062	45790
254.125	63382
254.188	51987
254.251	50698
254.314	29742
254.376	47279
254.439	58820
254.502	62996
254.565	52036
254.628	83280
254.690	71172
254.753	42111
254.816	33841
254.878	34269
254.941	43994
255.004	49912
255.067	27393
255.129	33562
255.192	18393
255.255	16480
255.317	21108
255.380	16024
255.443	11282
255.505	12348
255.568	12015
255.631	11658
255.693	14684
255.756	11638
255.819	11156
255.881	9966
255.944	8627
256.006	8360
256.069	9934
256.132	9355
256.194	14099
256.257	27381
256.319	21403
256.382	20573
256.444	13836
256.507	9678
256.569	7997
256.632	6717
256.694	12284
256.757	13087
256.819	25564
256.882	14490
256.944	12441
257.007	14394
257.069	19832
257.132	11493
257.194	7464
257.257	7978
257.319	7907
257.381	5976
257.444	11410
257.506	29184
257.569	50443
257.631	47263
257.693	30056
257.756	13418
257.818	15971
257.880	10287
257.943	11752
258.005	10769
258.067	10804
258.130	9356
258.192	15151
258.254	40372
258.317	20424
258.379	10854
258.441	23086
258.503	27760
258.566	23634
258.628	36524
258.690	11794
258.753	14038
258.815	39186
258.877	24099
258.939	9137
259.001	7493
259.064	6252
259.126	11661
259.188	17672
259.250	11013
259.312	11082
259.375	24824
259.437	24607
259.499	10562
259.561	8590
259.623	9262
259.685	8640
259.747	9969
259.809	23382
259.872	47380
259.934	61332
259.996	64590
260.058	21962
260.120	10302
260.182	7996
260.244	8241
260.306	7011
260.368	9469
260.430	8833
260.492	16120
260.554	22955
260.616	22759
260.678	36151
260.740	54210
260.802	19050
260.864	18750
260.926	16956
260.988	15667
261.050	13098
261.112	19373
261.174	39784
261.236	40440
261.298	18939
261.359	23290
261.421	35318
261.483	15190
261.545	12986
261.607	9113
261.669	9395
261.731	15509
261.793	39958
261.854	24869
261.916	17274
261.978	9630
262.040	11561
262.102	10151
262.164	17287
262.225	17907
262.287	9660
262.349	27203
262.411	24022
262.472	11377
262.534	13845
262.596	34470
262.658	13988
262.719	10002
262.781	11254
262.843	29927
262.904	17676
262.966	13837
263.028	12061
263.090	29153
263.151	66301
263.213	32550
263.275	30351
263.336	13924
263.398	9914
263.459	8445
263.521	9999
263.583	26572
263.644	22009
263.706	11066
263.767	6731
263.829	7273
263.891	5152
263.952	5780
264.014	5071
264.075	6917
264.137	14832
264.198	17057
264.260	6850
264.321	5923
264.383	14518
264.444	28931
264.506	9676
264.567	9921
264.629	9160
264.690	14027
264.752	12918
264.813	11448
264.875	7649
264.936	7530
264.998	5996
265.059	6313
265.120	6231
265.182	9980
265.243	12194
265.305	12497
265.366	8532
265.427	7321
265.489	7230
265.550	5210
265.611	10983
265.673	12651
265.734	8277
265.795	5617
265.857	5465
265.918	5877
265.979	8041
266.040	17953
266.102	19923
266.163	13846
266.224	18856
266.286	13542
266.347	8582
266.408	10886
266.469	12615
266.530	9672
266.592	7801
266.653	20056
266.714	38798
266.775	14231
266.836	9007
266.898	7238
266.959	11244
267.020	8477
267.081	6657
267.142	5266
267.203	5164
267.264	5642
267.326	8990
267.387	6888
267.448	5230
267.509	7267
267.570	7887
267.631	6315
267.692	5542
267.753	7008
267.814	5753
267.875	12678
267.936	34001
267.997	15145
268.058	17432
268.119	13104
268.180	14325
268.241	11940
268.302	8335
268.363	8966
268.424	13079
268.485	11334
268.546	7467
268.607	6467
268.668	5856
268.729	7008
268.790	8170
268.851	8703
268.912	20463
268.972	36525
269.033	24481
269.094	10887
269.155	7766
269.216	7770
269.277	10937
269.338	8834
269.398	8986
269.459	13953
269.520	20902
269.581	30798
269.642	39381
269.702	25695
269.763	15927
269.824	11769
269.885	12671
269.945	24536
270.006	10286
270.067	6885
270.128	5985
270.188	7137
270.249	8707
270.310	7559
270.370	7760
270.431	8296
270.492	7195
270.553	9103
270.613	25252
270.674	40446
270.734	21710
270.795	12568
270.856	18698
270.916	20100
270.977	11256
271.038	15643
271.098	17133
271.159	22274
271.219	25250
271.280	10515
271.340	8569
271.401	11340
271.462	26305
271.522	20921
271.583	11984
271.643	13456
271.704	11861
271.764	16959
271.825	34762
271.885	86937
271.946	123190
272.006	56363
272.066	56925
272.127	93622
272.187	44696
272.248	25000
272.308	20098
272.369	54887
272.429	41787
272.489	32422
272.550	37385
272.610	35990
272.671	33903
272.731	20320
272.791	34780
272.852	27680
272.912	24172
272.972	13707
273.033	11726
273.093	20975
273.153	21244
273.214	12298
273.274	13465
273.334	34385
273.394	85034
273.455	54792
273.515	37393
273.575	76691
273.635	40146
273.696	42991
273.756	82459
273.816	45796
273.876	24506
273.936	32165
273.997	55735
274.057	21343
274.117	19552
274.177	27619
274.237	91116
274.297	91591
274.358	64142
274.418	68939
274.478	61371
274.538	29196
274.598	20506
274.658	46971
274.718	65814
274.778	36223
274.838	19810
274.898	28955
274.958	85938
275.018	85366
275.078	68932
275.138	38616
275.198	19817
275.258	14934
275.318	18895
275.378	38941
275.438	47409
275.498	30692
275.558	38515
275.618	77045
275.678	61885
275.738	41633
275.798	37020
275.858	17240
275.918	12243
275.978	17240
276.038	19598
276.098	13449
276.157	22587
276.217	68873
276.277	39617
276.337	35226
276.397	19023
276.457	25946
276.517	17225
276.576	12232
276.636	11735
276.696	23694
276.756	41609
276.815	36861
276.875	19792
276.935	22138
276.995	23121
277.055	12878
277.114	13845
277.174	15741
277.234	50778
277.293	32784
277.353	20220
277.413	12562
277.472	14485
277.532	17989
277.592	13914
277.651	24291
277.711	42600
277.771	20531
277.830	56513
277.890	56591
277.950	30937
278.009	66377
278.069	33129
278.128	29586
278.188	46324
278.248	26159
278.307	39006
278.367	31792
278.426	15345
278.486	11972
278.545	8706
278.605	8949
278.664	9271
278.724	12624
278.783	27833
278.843	76505
278.902	29406
278.962	20516
279.021	22195
279.081	13863
279.140	14234
279.199	19951
279.259	15292
279.318	13090
279.378	14064
279.437	21981
279.496	66543
279.556	136548
279.615	121866
279.675	38520
279.734	24866
279.793	42510
279.853	60510
279.912	28186
279.971	17497
280.031	15338
280.090	23664
280.149	44304
280.208	27460
280.268	83643
280.327	108052
280.386	34551
280.445	34026
280.505	42558
280.564	18377
280.623	15756
280.682	22975
280.742	43633
280.801	15631
280.860	13656
280.919	11275
280.978	9697
281.037	8636
281.097	8526
281.156	9648
281.215	9664
281.274	11859
281.333	43330
281.392	41002
281.451	11701
281.510	8620
281.569	9635
281.628	7780
281.688	7351
281.747	10215
281.806	13092
281.865	7906
281.924	9294
281.983	12501
282.042	6808
282.101	8391
282.160	7959
282.219	8034
282.278	8094
282.337	29706
282.396	26187
282.454	10461
282.513	13424
282.572	47925
282.631	37666
282.690	13204
282.749	10216
282.808	16016
282.867	15491
282.926	18141
282.985	8965
283.043	7216
283.102	8926
283.161	10487
283.220	17991
283.279	47805
283.338	19856
283.396	12181
283.455	13960
283.514	14360
283.573	24957
283.631	19887
283.690	12223
283.749	9719
283.808	22564
283.866	33018
283.925	12399
283.984	9962
284.043	17805
284.101	19810
284.160	11019
284.219	11653
284.277	11535
284.336	18715
284.395	62733
284.453	57026
284.512	19461
284.570	30169
284.629	26865
284.688	16364
284.746	16733
284.805	16606
284.863	22068
284.922	28235
284.981	26755
285.039	36638
285.098	57915
285.156	122633
285.215	217784
285.273	218486
285.332	152053
285.390	82895
285.449	51071
285.507	34360
285.566	25791
285.624	21004
285.683	17960
285.741	15615
285.799	15602
285.858	16312
285.916	17745
285.975	11809
286.033	8582
286.091	8937
286.150	7754
286.208	9016
286.267	11247
286.325	13754
286.383	28578
286.442	23338
286.500	9310
286.558	7421
286.616	8238
286.675	16787
286.733	16105
286.791	15337
286.850	15992
286.908	18671
286.966	35372
287.024	16898
287.083	8494
287.141	7350
287.199	9208
287.257	21115
287.315	14350
287.374	13352
287.432	30983
287.490	23650
287.548	16560
287.606	11276
287.664	8942
287.723	14987
287.781	21992
287.839	9475
287.897	11178
287.955	9727
288.013	6576
288.071	8505
288.129	9045
288.187	13682
288.245	8365
288.303	5798
288.361	5803
288.419	6584
288.477	5760
288.535	5655
288.593	5502
288.651	6768
288.709	5866
288.767	7208
288.825	10832
288.883	6479
288.941	5944
288.999	6995
289.057	7816
289.115	6583
289.173	6783
289.231	9299
289.289	9215
289.346	7997
289.404	12216
289.462	24912
289.520	30608
289.578	14697
289.636	7065
289.694	5613
289.751	5560
289.809	6092
289.867	9656
289.925	11764
289.983	19541
290.040	7976
290.098	6466
290.156	13979
290.214	18548
290.271	12257
290.329	7149
290.387	5733
290.444	6904
290.502	5653
290.560	5940
290.617	6474
290.675	8879
290.733	7869
290.790	13115
290.848	8305
290.906	8737
290.963	11669
291.021	10081
291.078	7917
291.136	9051
291.194	17652
291.251	45937
291.309	18596
291.366	8882
291.424	9664
291.481	9512
291.539	6115
291.596	7266
291.654	6221
291.711	7479
291.769	10168
291.826	31353
291.884	24468
291.941	12494
291.999	12435
292.056	15263
292.114	19890
292.171	12458
292.228	12846
292.286	17710
292.343	34016
292.401	41484
292.458	24031
292.515	15030
292.573	21199
292.630	22462
292.687	19349
292.745	14064
292.802	13925
292.859	24776
292.917	62143
292.974	52012
293.031	19168
293.089	11684
293.146	9363
293.203	9826
293.260	8832
293.318	8753
293.375	9836
293.432	8531
293.489	10091
293.546	10006
293.604	14618
293.661	35094
293.718	88891
293.775	57518
293.832	34063
293.889	23291
293.947	20037
294.004	14723
294.061	15691
294.118	28053
294.175	48527
294.232	34303
294.289	17752
294.346	12543
294.403	11437
294.460	12492
294.517	13494
294.574	13076
294.631	12306
294.688	14313
294.745	29472
294.802	86180
294.859	89325
294.916	43559
294.973	27269
295.030	30940
295.087	29487
295.144	19408
295.201	15713
295.258	13294
295.315	16550
295.372	42724
295.429	79816
295.486	44174
295.542	21949
295.599	22862
295.656	35572
295.713	37470
295.770	66789
295.827	33427
295.883	17924
295.940	18437
295.997	33812
296.054	40034
296.111	19720
296.167	12173
296.224	9413
296.281	9451
296.338	10328
296.394	11127
296.451	13875
296.508	29119
296.564	59468
296.621	47459
296.678	83188
296.734	125938
296.791	58575
296.848	29828
296.904	31168
296.961	68767
297.018	85327
297.074	62483
297.131	28152
297.187	21770
297.244	29879
297.301	63964
297.357	120371
297.414	57607
297.470	25247
297.527	16891
297.583	13939
297.640	18806
297.696	15324
297.753	10793
297.809	9279
297.866	8948
297.922	9419
297.979	10654
298.035	13956
298.092	22664
298.148	45090
298.204	55202
298.261	32077
298.317	37237
298.374	97325
298.430	73491
298.486	37662
298.543	27072
298.599	21035
298.656	21240
298.712	30851
298.768	48318
298.824	24018
298.881	14797
298.937	11663
298.993	13172
299.050	21285
299.106	20076
299.162	16648
299.218	20585
299.275	15446
299.331	16177
299.387	27820
299.443	83222
299.500	116541
299.556	63733
299.612	31473
299.668	28190
299.724	38471
299.780	50777
299.837	28158
299.893	30774
299.949	80921
300.005	115627
300.061	89924
300.117	128580
300.173	76717
300.229	37534
300.285	40782
300.341	56091
300.397	30264
300.453	22246
300.510	19534
300.566	21763
300.622	26163
300.678	61426
300.734	119364
300.790	95149
300.845	98717
300.901	78103
300.957	107108
301.013	84434
301.069	35970
301.125	27409
301.181	31646
301.237	22261
301.293	17032
301.349	14521
301.405	13110
301.461	13310
301.516	13558
301.572	18324
301.628	38890
301.684	36514
301.740	35277
301.796	56875
301.851	44327
301.907	69932
301.963	77517
302.019	90702
302.074	193571
302.130	228921
302.186	128193
302.242	57107
302.297	36309
302.353	32083
302.409	52096
302.464	51557
302.520	43005
302.576	94179
302.631	118859
302.687	80168
302.743	36009
302.798	20990
302.854	15290
302.910	16652
302.965	21129
303.021	40961
303.076	42143
303.132	53373
303.187	67936
303.243	37457
303.299	19009
303.354	14898
303.410	12697
303.465	12930
303.521	13664
303.576	15122
303.632	16909
303.687	27864
303.743	74432
303.798	76553
303.853	35900
303.909	20427
303.964	19452
304.020	28753
304.075	50082
304.130	44271
304.186	79451
304.241	87117
304.297	67445
304.352	35610
304.358	33853
304.407	19615
304.449	18448
304.463	18067
304.518	21137
304.539	20760
304.573	20156
304.629	18151
304.630	18302
304.684	26053
304.720	46897
304.739	57270
304.794	98284
304.811	86255
304.850	57240
304.902	29207
304.905	27423
304.960	17157
304.992	14975
305.015	13387
305.071	11813
305.083	11688
305.126	11264
305.173	9500
305.181	9259
305.236	9420
305.264	11481
305.292	13454
305.347	16955
305.354	16774
305.402	15584
305.445	14409
305.457	14232
305.512	20647
305.535	24273
305.567	28517
305.622	22083
305.626	22281
305.678	30418
305.716	57436
305.733	67104
305.788	91182
305.807	80498
305.843	62426
305.897	76928
305.898	77033
305.953	83463
305.988	57389
306.008	43330
306.063	25224
306.078	23377
306.118	19556
306.168	13681
306.173	13143
306.228	11045
306.259	10068
306.283	9501
306.338	9072
306.349	9223
306.393	9687
306.440	9817
306.448	9858
306.503	10301
306.530	10528
306.558	11891
306.613	19246
306.620	21065
306.668	39346
306.711	70522
306.723	75271
306.778	69338
306.801	56354
306.833	40785
306.888	21855
306.892	21029
306.943	14117
306.982	11331
306.997	10386
307.052	8881
307.072	8564
307.107	8405
307.162	9400
307.163	9412
307.217	10130
307.253	10912
307.272	11230
307.327	12852
307.343	12540
307.381	12547
307.434	14700
307.436	15122
307.491	25845
307.524	38585
307.546	43599
307.600	58868
307.614	54585
307.655	35552
307.704	17267
307.710	16196
307.765	14606
307.795	16264
307.819	17192
307.874	20067
307.885	19528
307.929	16349
307.975	14229
307.984	14137
308.038	15386
308.065	16293
308.093	23468
308.148	42858
308.156	48419
308.202	79469
308.246	105102
308.257	106000
308.312	68289
308.336	59758
308.366	54625
308.421	47887
308.426	45981
308.475	25798
308.517	14416
308.530	12769
308.585	11141
308.607	10711
308.639	10515
308.694	10769
308.697	10845
308.748	14043
308.787	18286
308.803	18608
308.857	16531
308.877	14738
308.912	13298
308.967	14055
308.967	14087
309.021	20613
309.058	26061
309.076	33123
309.130	59560
309.148	69854
309.185	100501
309.238	142672
309.239	142934
309.293	163596
309.328	151326
309.348	131899
309.402	67629
309.418	52185
309.457	38573
309.508	27196
309.511	26969
309.566	27429
309.598	28408
309.620	33808
309.674	50305
309.688	54802
309.729	55578
309.778	52609
309.783	51966
309.837	43427
309.868	38342
309.892	51104
309.946	86198
309.959	97295
310.001	127127
310.049	154399
310.055	149449
310.109	86697
310.139	49453
310.163	37082
310.218	18706
310.229	16038
310.272	13434
310.319	11918
310.326	11608
310.381	9491
310.409	8680
310.435	8106
310.489	6946
310.499	6800
310.543	6935
310.589	7142
310.598	7048
310.652	6715
310.679	6493
310.706	6618
310.760	6855
310.769	6928
310.814	6986
310.859	6862
310.868	6907
310.923	7321
310.948	7551
310.977	8342
311.031	10031
311.038	10261
311.085	10211
311.128	9890
311.139	9899
311.193	9931
311.218	10034
311.247	9393
311.301	7874
311.308	7714
311.356	7462
311.398	7292
311.410	7221
311.464	6791
311.488	6643
311.518	8045
311.572	10638
311.578	10960
311.626	17338
311.668	23113
311.680	21478
311.734	13141
311.758	9492
311.788	9119
311.842	8644
311.847	8617
311.896	12201
311.937	15395
311.950	15512
312.004	15921
312.027	16073
312.058	14041
312.112	10418
312.117	10069
312.165	9106
312.207	8326
312.297	7977
312.386	8166
312.476	14182
312.566	36951
312.656	15770
312.745	7832
312.835	7947
312.925	11326
313.015	7554
313.104	7583
313.194	9360
313.284	11571
313.374	19527
313.463	15866
313.553	11567
313.643	10700
313.732	9389
313.822	9878
313.912	12790
314.001	16232
314.091	14637
314.180	16226
314.270	22643
314.360	22536
314.449	21422
314.539	13079
314.628	12298
314.718	13775
314.808	13972
314.897	14899
314.987	17266
315.076	24149
315.166	26654
315.255	19088
315.345	22886
315.434	17841
315.524	18666
315.613	25228
315.703	39015
315.792	56596
315.881	156222
315.971	58844
316.060	41461
316.150	30175
316.239	24153
316.328	14220
316.418	14422
316.507	18589
316.597	25710
316.686	22616
316.775	20103
316.865	20476
316.954	12549
317.043	12744
317.133	16029
317.222	13535
317.311	13041
317.400	15338
317.490	24794
317.579	29689
317.668	19966
317.757	36511
317.847	82078
317.936	249400
318.025	116323
318.114	75338
318.203	40493
318.293	24212
318.382	30041
318.471	42929
318.560	31678
318.649	38005
318.738	17686
318.828	26399
318.917	24003
319.006	18030
319.095	32135
319.184	67457
319.273	80535
319.362	61890
319.451	23649
319.540	22827
319.629	60264
319.718	87576
319.807	24721
319.896	42905
319.985	94034
320.074	59591
320.163	15761
320.252	16272
320.341	15449
320.430	19637
320.519	47648
320.608	26029
320.697	19657
320.786	22928
320.875	37700
320.964	52283
321.053	79006
321.142	111257
321.230	102971
321.319	77334
321.408	155596
321.497	67777
321.586	72154
321.675	48228
321.764	49368
321.852	42310
321.941	102100
322.030	66989
322.119	69230
322.207	155805
322.296	57912
322.385	47293
322.474	79042
322.562	199477
322.651	91198
322.740	80335
322.829	83647
322.917	48705
323.006	54986
323.095	50520
323.183	25016
323.272	37325
323.361	52865
323.449	64017
323.538	30180
323.626	51943
323.715	27435
323.804	20047
323.892	58418
323.981	54530
324.069	15624
324.158	19802
324.246	20803
324.335	33248
324.424	61329
324.512	21282
324.601	27497
324.689	30442
324.778	32128
324.866	28964
324.954	13271
325.043	19180
325.131	23313
325.220	20418
325.308	22981
325.397	28662
325.485	19627
325.574	10833
325.662	12870
325.750	18698
325.839	11715
325.927	11104
326.015	16155
326.104	11939
326.192	14233
326.280	11213
326.369	12645
326.457	28840
326.545	51293
326.634	19530
326.722	9590
326.810	12630
326.898	12491
326.987	17769
327.075	42585
327.163	27496
327.251	10171
327.340	9918
327.428	15083
327.516	16753
327.604	13832
327.692	11046
327.781	9986
327.869	12839
327.957	14291
328.045	19913
328.133	9307
328.221	9285
328.309	11874
328.397	12862
328.485	20482
328.574	35840
328.662	104836
328.750	39898
328.838	13043
328.926	11420
329.014	10113
329.102	19630
329.190	35546
329.278	30178
329.366	8851
329.454	6969
329.542	7174
329.630	7010
329.718	9023
329.806	16106
329.893	9405
329.981	6362
330.069	7038
330.157	6649
330.245	7371
330.333	8884
330.421	11661
330.509	32501
330.597	126380
330.684	67121
330.772	16913
330.860	11161
330.948	11409
331.036	11296
331.123	7214
331.211	7500
331.299	7671
331.387	14358
331.475	27600
331.562	10222
331.650	7874
331.738	9307
331.825	7783
331.913	8380
332.001	8236
332.089	9677
332.176	11245
332.264	18421
332.352	20772
332.439	16303
332.527	11578
332.614	8771
332.702	8514
332.790	11128
332.877	19740
332.965	19988
333.052	13137
333.140	14936
333.228	25203
333.315	11417
333.403	10108
333.490	14178
333.578	19108
333.665	35910
333.753	22731
333.840	14403
333.928	16427
334.015	21101
334.103	29335
334.190	62354
334.278	36571
334.365	40315
334.452	40697
334.540	26342
334.627	25109
334.715	33675
334.802	51635
334.889	96367
334.977	118503
335.064	65891
335.151	35065
335.239	24141
335.326	22634
335.413	41918
335.501	50231
335.588	25519
335.675	24927
335.762	28428
335.850	38647
335.937	54503
336.024	88350
336.111	156240
336.199	130938
336.286	59373
336.373	33579
336.460	21974
336.547	18390
336.635	21177
336.722	18997
336.809	14285
336.896	22454
336.983	40433
337.070	65320
337.157	61029
337.245	33859
337.332	23860
337.419	12490
337.506	11032
337.593	11263
337.680	17356
337.767	35412
337.854	27345
337.941	26420
338.028	26782
338.115	13083
338.202	14658
338.289	20615
338.376	48537
338.463	21517
338.550	22629
338.637	22623
338.724	13922
338.811	13655
338.898	9631
338.984	10105
339.071	9982
339.158	21124
339.245	57895
339.332	27417
339.419	20204
339.506	16545
339.593	9807
339.679	15428
339.766	14227
339.853	20748
339.940	47263
340.027	15378
340.113	20375
340.200	25705
340.287	16039
340.374	27791
340.460	41229
340.547	14444
340.634	37148
340.720	105628
340.807	54277
340.894	12553
340.980	13672
341.067	14983
341.154	16509
341.240	27327
341.327	60287
341.414	14924
341.500	14257
341.587	15260
341.674	15759
341.760	47153
341.847	53776
341.933	17237
342.020	8688
342.106	9804
342.193	20828
342.279	36706
342.366	26931
342.452	47667
342.539	27506
342.625	63829
342.712	119628
342.798	54251
342.885	23797
342.971	8560
343.058	8677
343.144	11569
343.230	11917
343.317	11559
343.403	10155
343.490	8405
343.576	9086
343.662	12804
343.749	15587
343.835	19124
343.921	33110
344.008	151084
344.094	288896
344.180	72556
344.267	37616
344.353	85861
344.439	83309
344.525	58782
344.612	21530
344.698	23119
344.784	16549
344.870	10140
344.957	14073
345.043	27768
345.129	23972
345.215	45412
345.301	19259
345.387	9428
345.474	8678
345.560	8737
345.646	10169
345.732	10012
345.818	13985
345.904	13889
345.990	17609
346.076	12090
346.162	11213
346.249	11083
346.335	10480
346.421	13450
346.507	40514
346.593	115018
346.679	32690
346.765	13514
346.851	22695
346.937	20415
347.023	14065
347.108	20601
347.194	16248
347.280	12686
347.366	19331
347.452	59990
347.538	165956
347.624	117118
347.710	84341
347.796	18596
347.882	12418
347.967	10639
348.053	10533
348.139	10258
348.225	12463
348.311	13607
348.397	11752
348.482	20018
348.568	22353
348.654	16254
348.740	39606
348.825	44227
348.911	31054
348.997	77546
349.083	121918
349.168	22713
349.254	12733
349.340	12232
349.425	12749
349.511	21675
349.597	20346
349.682	45976
349.768	104429
349.854	44006
349.939	11702
350.025	11662
350.110	10471
350.196	7824
350.282	7573
350.367	9437
350.453	13427
350.538	14732
350.624	18663
350.709	16474
350.795	12681
350.880	14244
350.966	13650
351.051	14551
351.137	10928
351.222	15956
351.308	42431
351.393	98082
351.479	24837
351.564	11821
351.649	15571
351.735	10650
351.820	10837
351.906	13083
351.991	16426
352.076	67990
352.162	92986
352.247	25620
352.332	20872
352.418	33065
352.503	38363
352.588	170409
352.673	140290
352.759	40161
352.844	21467
352.929	24996
353.014	32621
353.100	18784
353.185	30077
353.270	60032
353.355	53952
353.441	16186
353.526	17396
353.611	54779
353.696	59863
353.781	36622
353.866	18129
353.952	21181
354.037	59676
354.122	118530
354.207	103985
354.292	35363
354.377	18210
354.462	16361
354.547	25434
354.632	18626
354.717	20469
354.802	28366
354.887	14801
354.972	12947
355.057	11342
355.142	11343
355.227	20485
355.312	36495
355.397	83209
355.482	172641
355.567	76884
355.652	61616
355.737	57931
355.822	116356
355.907	87083
355.991	22997
356.076	15023
356.161	13095
356.246	13517
356.331	15578
356.416	36366
356.501	164782
356.585	159979
356.670	34380
356.755	28366
356.840	40206
356.924	147319
357.009	412244
357.094	166227
357.179	58969
357.263	36775
357.348	38532
357.433	37560
357.517	35621
357.602	26941
357.687	20252
357.771	22214
357.856	23964
357.941	32740
358.025	116396
358.110	379151
358.195	191261
358.279	46662
358.364	41025
358.448	121676
358.533	253010
358.617	186189
358.702	165063
358.787	73080
358.871	60658
358.956	46776
359.040	16710
359.125	13564
359.209	13821
359.294	17362
359.378	28056
359.462	45428
359.547	24532
359.631	14588
359.716	13285
359.800	13189
359.885	19202
359.969	19862
360.053	13561
360.138	14023
360.222	31250
360.306	56070
360.391	36534
360.475	47095
360.559	94439
360.644	106507
360.728	72315
360.812	105828
360.896	235360
360.981	131619
361.065	77703
361.149	27889
361.233	29540
361.318	22020
361.402	23084
361.486	23929
361.570	21313
361.654	31094
361.739	70082
361.823	192834
361.907	229892
361.991	56644
362.075	55352
362.159	114440
362.243	89369
362.327	128116
362.411	164917
362.495	77018
362.580	39216
362.664	31218
362.748	35763
362.832	51937
362.916	99813
363.000	272242
363.084	478773
363.168	367646
363.252	115057
363.336	55426
363.420	57347
363.503	70253
363.587	64603
363.671	39806
363.755	42542
363.839	58369
363.923	35822
364.007	67035
364.091	68539
364.175	70217
364.258	162415
364.342	309788
364.426	516398
364.510	292918
364.594	111831
364.677	86526
364.761	227727
364.845	155118
364.929	97420
365.013	81482
365.096	65021
365.180	64214
365.264	32847
365.347	67241
365.431	34445
365.515	25600
365.598	24419
365.682	20193
365.766	19224
365.849	19918
365.933	25194
366.017	21144
366.100	14190
366.184	12554
366.267	15937
366.351	17006
366.435	16165
366.518	15519
366.602	14275
366.685	18880
366.769	21386
366.852	26592
366.936	51887
367.019	37623
367.103	16901
367.186	17973
367.270	14335
367.353	14550
367.436	18924
367.520	17871
367.603	26714
367.687	41274
367.770	66383
367.853	36567
367.937	74542
368.020	110117
368.104	41561
368.187	55039
368.270	69249
368.353	55663
368.437	47635
368.520	40064
368.603	63127
368.687	96828
368.770	150601
368.853	46208
368.936	53001
369.020	35547
369.103	20274
369.186	12382
369.269	16633
369.352	48011
369.436	57926
369.519	33895
369.602	15102
369.685	20370
369.768	24360
369.851	18505
369.934	14152
370.018	24280
370.101	61078
370.184	36015
370.267	20832
370.350	36752
370.433	55156
370.516	120464
370.599	179747
370.682	88258
370.765	129737
370.848	123079
370.931	170116
371.014	59036
371.097	22648
371.180	17996
371.263	11692
371.346	10171
371.429	11687
371.511	15719
371.594	34887
371.677	39928
371.760	27048
371.843	42997
371.926	162945
372.009	318254
372.091	114056
372.174	81783
372.257	148313
372.340	61415
372.423	48059
372.505	36705
372.588	25955
372.671	78505
372.754	187130
372.836	84122
372.919	33265
373.002	49421
373.085	39074
373.167	47420
373.250	104773
373.332	168172
373.415	237806
373.498	429826
373.580	187063
373.663	272315
373.746	315589
373.828	91645
373.911	43523
373.993	37503
374.076	50481
374.159	43130
374.241	61198
374.324	173099
374.406	112854
374.489	141023
374.571	334285
374.654	146650
374.736	87786
374.819	219656
374.901	317678
374.983	297272
375.066	67308
375.148	29629
375.231	46938
375.313	75392
375.395	49901
375.478	24616
375.560	22317
375.643	31873
375.725	83746
375.807	259297
375.890	158674
375.972	57056
376.054	49693
376.136	31291
376.219	27048
376.301	86914
376.383	215916
376.465	93209
376.548	89477
376.630	87614
376.712	191030
376.794	86525
376.877	19106
376.959	16498
377.041	17672
377.123	14029
377.205	14742
377.287	10377
377.369	13019
377.452	16567
377.534	15124
377.616	17159
377.698	17273
377.780	14825
377.862	18748
377.944	17206
378.026	11064
378.108	13518
378.190	13165
378.272	13260
378.354	9361
378.436	10657
378.518	19489
378.600	51739
378.682	57978
378.764	121831
378.846	87499
378.928	34990
379.010	58850
379.091	28904
379.173	16908
379.255	16304
379.337	26079
379.419	69615
379.501	154902
379.583	58776
379.664	25259
379.746	64926
379.828	131751
379.910	159899
379.991	124613
380.073	27025
380.155	24179
380.237	18203
380.318	12193
380.400	16225
380.482	42091
380.564	59533
380.645	56834
380.727	51615
380.809	30945
380.890	23182
380.972	16786
381.053	16967
381.135	20621
381.217	52822
381.298	130300
381.380	63278
381.461	61428
381.543	203879
381.624	225407
381.706	50645
381.787	28959
381.869	32935
381.951	106880
382.032	326563
382.113	213146
382.195	57117
382.276	34578
382.358	77119
382.439	184507
382.521	200453
382.602	285132
382.684	141267
382.765	244363
382.846	210859
382.928	238503
383.009	134737
383.090	102871
383.172	324188
383.253	458942
383.334	202682
383.416	243633
383.497	123442
383.578	59546
383.659	98553
383.741	287373
383.822	651855
383.903	352535
383.984	192056
384.066	325873
384.147	198844
384.228	52404
384.309	53832
384.390	40233
384.471	30051
384.553	32850
384.634	47304
384.715	46376
384.796	21649
384.877	31090
384.958	112248
385.039	139117
385.120	62522
385.201	30321
385.282	32219
385.363	24516
385.444	25555
385.525	44003
385.606	131022
385.687	111768
385.768	35704
385.849	52444
385.930	184186
386.011	262812
386.092	82780
386.173	30883
386.254	21854
386.335	22540
386.416	27408
386.496	80601
386.577	119726
386.658	44400
386.739	35811
386.820	25602
386.901	22721
386.981	26541
387.062	26057
387.143	49746
387.224	133453
387.304	114554
387.385	58447
387.466	35323
387.547	36280
387.627	39724
387.708	67569
387.789	207200
387.869	228169
387.950	69061
388.031	26175
388.111	20958
388.192	26682
388.273	32043
388.353	32705
388.434	30742
388.514	54643
388.595	172262
388.676	223500
388.756	128380
388.837	140074
388.917	82007
388.998	20945
389.078	22747
389.159	22950
389.239	22634
389.320	36755
389.400	31547
389.480	44949
389.561	112332
389.641	55680
389.722	37498
389.802	60090
389.883	58101
389.963	124454
390.043	69152
390.124	23110
390.204	50276
390.284	149155
390.365	86277
390.445	34517
390.525	29401
390.605	60525
390.686	66595
390.766	29790
390.846	21365
390.927	18126
391.007	20665
391.087	20675
391.167	17223
391.247	15936
391.328	23013
391.408	25612
391.488	20475
391.568	19735
391.648	36735
391.728	50703
391.808	46258
391.888	49884
391.969	78190
392.049	112050
392.129	49829
392.209	63814
392.289	136378
392.369	75665
392.449	46910
392.529	53210
392.609	62112
392.689	73924
392.769	155355
392.849	143855
392.929	124053
393.009	222906
393.089	246374
393.169	340808
393.248	721211
393.328	1207879
393.408	1167557
393.488	713593
393.568	343017
393.648	185926
393.728	118697
393.807	82241
393.887	64569
393.967	53429
394.047	51420
394.127	48035
394.206	46164
394.286	66079
394.366	189151
394.446	188561
394.525	52603
394.605	30248
394.685	35049
394.764	53196
394.844	85011
394.924	86812
395.003	49979
395.083	36762
395.163	32369
395.242	31477
395.322	30546
395.402	21744
395.481	27040
395.561	48405
395.640	132349
395.720	174587
395.799	98745
395.879	50333
395.958	33983
396.038	68156
396.117	241880
396.197	248928
396.276	81852
396.356	60394
396.435	69268
396.515	89206
396.594	151493
396.673	277986
396.753	643973
396.832	1116194
396.912	956041
396.991	413963
397.070	171232
397.150	104280
397.229	75307
397.308	115128
397.388	202589
397.467	99620
397.546	41308
397.625	34043
397.705	40210
397.784	43682
397.863	26307
397.942	20416
398.022	19768
398.101	26189
398.180	48312
398.259	27537
398.338	24189
398.417	25607
398.497	17529
398.576	19848
398.655	15507
398.734	12511
398.813	12058
398.892	21470
398.971	45382
399.050	26045
399.129	11569
399.208	10968
399.287	10558
399.366	11799
399.445	11348
399.524	12653
399.603	14300
399.682	30141
399.761	54132
399.840	61215
399.919	34866
399.998	12542
400.077	11246
400.156	11546
400.235	13404
400.313	10916
400.392	18634
400.471	82169
400.550	118884
400.629	34270
400.708	18993
400.786	12014
400.865	15117
400.944	24745
401.023	19925
401.102	8805
401.180	8568
401.259	7520
401.338	11423
401.416	20572
401.495	17107
401.574	9528
401.652	11209
401.731	16127
401.810	13499
401.888	8795
401.967	6648
402.046	8045
402.124	16946
402.203	22610
402.281	10840
402.360	8003
402.438	17506
402.517	14523
402.596	8999
402.674	7653
402.753	7045
402.831	8131
402.910	12141
402.988	37382
403.066	106436
403.145	58499
403.223	38899
403.302	88728
403.380	63977
403.459	66671
403.537	28797
403.615	14349
403.694	8267
403.772	9387
403.850	9079
403.929	8159
404.007	10307
404.085	19758
404.164	21784
404.242	12318
404.320	13570
404.398	24000
404.477	68998
404.555	252817
404.633	196238
404.711	35316
404.789	13109
404.868	12943
404.946	9537
405.024	7629
405.102	8368
405.180	8975
405.258	8031
405.336	9353
405.415	9288
405.493	15905
405.571	15408
405.649	8575
405.727	8718
405.805	14994
405.883	15747
405.961	13344
406.039	9958
406.117	9841
406.195	23996
406.273	80054
406.351	221308
406.429	113925
406.507	19366
406.585	11760
406.663	19107
406.740	26723
406.818	20407
406.896	11255
406.974	12582
407.052	32218
407.130	144127
407.208	176753
407.285	38059
407.363	13696
407.441	15269
407.519	13383
407.596	18702
407.674	44307
407.752	123664
407.830	92971
407.907	25040
407.985	16297
408.063	11003
408.141	7142
408.218	10366
408.296	11351
408.373	15784
408.451	21780
408.529	20827
408.606	11137
408.684	9441
408.762	8926
408.839	8344
408.917	9898
408.994	9889
409.072	10970
409.149	14644
409.227	25847
409.304	36030
409.382	39053
409.459	45161
409.537	58382
409.614	56099
409.692	41382
409.769	42276
409.846	61347
409.924	71447
410.001	53683
410.079	40048
410.156	28313
410.233	19808
410.311	16262
410.388	17255
410.465	16050
410.543	13411
410.620	14112
410.697	19755
410.775	24511
410.852	14306
410.929	19985
411.006	22410
411.083	13444
411.161	13128
411.238	14769
411.315	13530
411.392	12310
411.469	14950
411.547	10813
411.624	7655
411.701	8510
411.778	17993
411.855	37939
411.932	18639
412.009	10829
412.086	9626
412.163	11263
412.240	11101
412.317	9900
412.394	8323
412.471	7499
412.548	9220
412.625	11401
412.702	13021
412.779	17297
412.856	8795
412.933	6344
413.010	7086
413.087	17345
413.164	79035
413.241	100498
413.318	29981
413.395	20345
413.471	30192
413.548	13749
413.625	9747
413.702	13353
413.779	8029
413.855	5369
413.932	5136
414.009	4997
414.086	5788
414.162	8249
414.239	16202
414.316	80867
414.393	152408
414.469	49412
414.546	9698
414.623	6668
414.699	9575
414.776	14415
414.853	8959
414.929	10021
415.006	7952
415.082	6767
415.159	6802
415.236	8065
415.312	11408
415.389	30188
415.465	37230
415.542	17823
415.618	14557
415.695	25587
415.771	17139
415.848	13802
415.924	9973
416.000	6502
416.077	6359
416.153	4241
416.230	4155
416.306	4693
416.383	5111
416.459	5306
416.535	4491
416.612	4353
416.688	5099
416.764	5719
416.841	5479
416.917	5992
416.993	6913
417.069	10745
417.146	12983
417.222	15306
417.298	12439
417.374	8516
417.451	11218
417.527	18246
417.603	21330
417.679	13300
417.755	11535
417.831	7667
417.908	5783
417.984	5851
418.060	8190
418.136	33170
418.212	37976
418.288	14103
418.364	8459
418.440	12101
418.516	17522
418.592	15228
418.668	46364
418.744	77807
418.820	50337
418.896	13742
418.972	7244
419.048	12938
419.124	36384
419.200	28038
419.276	9798
419.352	6133
419.428	8007
419.504	15286
419.579	18669
419.655	14449
419.731	16609
419.807	56136
419.883	85655
419.959	49746
420.034	17485
420.110	33140
420.186	102723
420.262	71786
420.337	18847
420.413	18252
420.489	11287
420.565	11861
420.640	13471
420.716	15264
420.792	11496
420.867	14883
420.943	16284
421.019	30324
421.094	23275
421.170	14487
421.245	13546
421.321	18119
421.397	20869
421.472	37224
421.548	93298
421.623	69512
421.699	34811
421.774	35238
421.850	35977
421.925	52758
422.001	51475
422.076	53796
422.152	68163
422.227	98257
422.302	120389
422.378	175062
422.453	283941
422.529	463633
422.604	555758
422.679	417461
422.755	518104
422.830	474286
422.905	296232
422.981	190475
423.056	130052
423.131	96747
423.207	73007
423.282	68672
423.357	83541
423.432	58037
423.508	55703
423.583	95820
423.658	66643
423.733	31622
423.808	33661
423.883	40827
423.959	38005
424.034	36336
424.109	30798
424.184	20265
424.259	17622
424.334	16015
424.409	13755
424.484	16011
424.559	16913
424.634	14384
424.709	22320
424.784	24516
424.859	16362
424.934	30105
425.009	99268
425.084	130309
425.159	43111
425.234	11590
425.309	8086
425.384	8244
425.459	6417
425.534	8579
425.609	7629
425.683	7034
425.758	8973
425.833	10593
425.908	15376
425.983	64662
426.058	148436
426.132	55262
426.207	11768
426.282	9714
426.357	7763
426.431	7540
426.506	7898
426.581	6982
426.655	8936
426.730	10032
426.805	10054
426.879	8863
426.954	9317
427.029	27930
427.103	120553
427.178	214546
427.253	80317
427.327	13864
427.402	8420
427.476	8377
427.551	6830
427.625	6230
427.700	7385
427.774	6347
427.849	7074
427.923	6375
427.998	7833
428.072	9431
428.147	25496
428.221	108312
428.296	257026
428.370	133491
428.444	24636
428.519	13808
428.593	15321
428.667	13565
428.742	16912
428.816	33198
428.890	144093
428.965	217260
429.039	61680
429.113	20537
429.188	12306
429.262	9521
429.336	26198
429.410	71248
429.485	34934
429.559	13715
429.633	11540
429.707	12638
429.781	32679
429.855	159086
429.930	248961
430.004	86150
430.078	57440
430.152	106681
430.226	315128
430.300	303908
430.374	74808
430.448	26242
430.522	27614
430.596	47203
430.670	64756
430.744	251007
430.818	309334
430.892	70714
430.966	18613
431.040	10415
431.114	6477
431.188	5470
431.262	6118
431.336	5631
431.410	11458
431.484	32007
431.557	28917
431.631	10460
431.705	14742
431.779	62679
431.853	223314
431.927	151791
432.000	26317
432.074	9501
432.148	7256
432.222	6122
432.295	4814
432.369	5984
432.443	14291
432.516	81759
432.590	186002
432.664	65014
432.737	12475
432.811	5442
432.885	3631
432.958	3929
433.032	3044
433.106	2720
433.179	3696
433.253	3313
433.326	2693
433.400	2065
433.473	3236
433.547	2608
433.620	7998
433.694	22312
433.767	15013
433.841	5148
433.914	3725
433.988	3791
434.061	3983
434.134	3788
434.208	4000
434.281	3696
434.355	3678
434.428	3503
434.501	2671
434.575	3065
434.648	3864
434.721	3578
434.795	3325
434.868	3888
434.941	3445
435.014	3656
435.088	5271
435.161	8612
435.234	16671
435.307	21793
435.381	13057
435.454	17225
435.527	27885
435.600	32615
435.673	25811
435.746	20172
435.819	15279
435.892	12254
435.966	9084
436.039	7396
436.112	6467
436.185	5034
436.258	4071
436.331	3994
436.404	3380
436.477	3167
436.550	2917
436.623	4482
436.696	4307
436.769	7308
436.842	5351
436.915	5821
436.987	9747
437.060	5269
437.133	3188
437.206	2827
437.279	3842
437.352	3844
437.425	3462
437.498	5884
437.570	22206
437.643	20910
437.716	5925
437.789	3643
437.861	4459
437.934	7268
438.007	4674
438.080	4083
438.152	7163
438.225	19187
438.298	110038
438.370	251316
438.443	96845
438.516	17241
438.588	6671
438.661	3715
438.734	4753
438.806	7779
438.879	8185
438.951	5707
439.024	6299
439.096	4925
439.169	4062
439.241	4339
439.314	3093
439.386	3110
439.459	4047
439.531	5270
439.604	3913
439.676	2873
439.749	2423
439.821	2024
439.893	3097
439.966	2952
440.038	3008
440.110	5694
440.183	5781
440.255	4467
440.327	9304
440.400	48085
440.472	174158
440.544	106433
440.617	15780
440.689	8479
440.761	11097
440.833	14515
440.905	9242
440.978	3793
441.050	3078
441.122	3758
441.194	2967
441.266	4099
441.338	4865
441.411	14762
441.483	81958
441.555	106128
441.627	22202
441.699	6512
441.771	6037
441.843	4924
441.915	4164
441.987	4483
442.059	6257
442.131	8536
442.203	11415
442.275	18384
442.347	22206
442.419	43164
442.491	182351
442.563	384705
442.635	173871
442.706	60779
442.778	41272
442.850	16430
442.922	11571
442.994	13504
443.066	20715
443.137	19082
443.209	21760
443.281	33875
443.353	70155
443.425	215773
443.496	565234
443.568	597799
443.640	275361
443.711	72389
443.783	30570
443.855	19752
443.926	13396
443.998	11078
444.070	9823
444.141	12374
444.213	22965
444.285	28673
444.356	17539
444.428	10320
444.499	6720
444.571	7953
444.642	8543
444.714	14848
444.785	23994
444.857	18075
444.928	15873
445.000	13974
445.071	19035
445.143	25031
445.214	34544
445.285	56184
445.357	135465
445.428	402584
445.500	676493
445.571	570981
445.642	391461
445.714	150251
445.785	58209
445.856	34071
445.928	36917
445.999	23034
446.070	13857
446.141	23087
446.213	24875
446.284	11065
446.355	7835
446.426	6601
446.497	7113
446.569	8911
446.640	21446
446.711	24595
446.782	7352
446.853	5722
446.924	10172
446.995	9371
447.066	5097
447.138	4277
447.209	3595
447.280	2349
447.351	3374
447.422	2565
447.493	4452
447.564	12338
447.635	22318
447.706	9295
447.777	3379
447.847	2097
447.918	2850
447.989	5233
448.060	4768
448.131	8401
448.202	17469
448.273	20969
448.344	8001
448.414	5933
448.485	6483
448.556	4196
448.627	2819
448.698	3380
448.768	2222
448.839	2281
448.910	4269
448.981	7671
449.051	5661
449.122	3311
449.193	2481
449.263	2424
449.334	3165
449.405	9470
449.475	28725
449.546	15553
449.616	6563
449.687	5330
449.758	2350
449.828	2476
449.899	1992
449.969	2305
450.040	2070
450.110	2370
450.181	2110
450.251	2104
450.322	2486
450.392	2131
450.463	1713
450.533	1642
450.604	2280
450.674	2141
450.744	3154
450.815	4070
450.885	4114
450.955	4952
451.026	4701
451.096	4193
451.166	4477
451.237	7186
451.307	11851
451.377	7156
451.447	4726
451.518	3616
451.588	3182
451.658	3091
451.728	3647
451.799	8001
451.869	8374
451.939	3722
452.009	2649
452.079	3137
452.149	3139
452.219	4301
452.289	9962
452.360	9041
452.430	5661
452.500	11227
452.570	16865
452.640	29288
452.710	67795
452.780	82086
452.850	77482
452.920	64986
452.990	24180
453.060	12990
453.129	17752
453.199	12882
453.269	13735
453.339	21586
453.409	29477
453.479	29934
453.549	40642
453.619	40896
453.688	16269
453.758	4439
453.828	2529
453.898	2701
453.968	2212
454.037	2568
454.087	2522
454.107	2467
454.168	2609
454.177	2585
454.247	2648
454.249	2643
454.316	1503
454.330	1788
454.386	2729
454.411	3536
454.456	4548
454.492	5443
454.525	6193
454.574	4719
454.595	4087
454.655	3247
454.665	3064
454.734	4419
454.736	4603
454.804	8836
454.817	9320
454.873	10350
454.898	10115
454.943	9491
454.979	7172
455.013	5186
455.060	4455
455.082	4238
455.141	4760
455.152	4771
455.221	8966
455.222	9110
455.291	12636
455.303	12203
455.360	9874
455.384	12070
455.430	15574
455.465	13548
455.499	11634
455.546	12085
455.569	11847
455.627	11615
455.638	11559
455.707	6571
455.708	6599
455.777	3800
455.789	3856
455.846	3947
455.869	4256
455.916	4787
455.950	4962
455.985	5046
456.031	4980
456.054	4815
456.112	4771
456.124	4762
456.193	4198
456.193	4150
456.262	4816
456.274	5067
456.332	5831
456.355	5663
456.401	5283
456.436	5635
456.470	5887
456.516	5596
456.540	5420
456.597	6082
456.609	6097
456.678	5939
456.678	5892
456.747	5787
456.759	5743
456.817	5780
456.840	5874
456.886	5637
456.920	6032
456.955	6420
457.001	6785
457.024	6934
457.082	7370
457.093	7406
457.162	8228
457.163	8280
457.232	8801
457.243	8780
457.301	8619
457.324	8797
457.370	9477
457.405	10552
457.439	11489
457.485	12639
457.508	13154
457.566	14716
457.577	15654
457.646	22858
457.647	23045
457.715	50530
457.727	56878
457.784	104205
457.808	135318
457.853	172201
457.889	203857
457.922	198825
457.969	139134
457.991	141341
458.050	164346
458.060	171398
458.129	284500
458.130	288172
458.198	291407
458.211	270598
458.267	161708
458.292	112683
458.336	76150
458.372	67478
458.405	85654
458.453	124547
458.474	159984
458.533	285512
458.543	296309
458.611	451569
458.614	455189
458.680	297264
458.694	243642
458.749	122494
458.775	83499
458.818	50168
458.855	38098
458.887	31071
458.936	23866
458.955	22092
459.016	19857
459.024	19663
459.093	18603
459.097	18612
459.162	19629
459.177	20127
459.230	22162
459.257	24017
459.299	22647
459.338	19073
459.368	17687
459.418	15812
459.437	15285
459.499	14473
459.505	14350
459.574	14578
459.579	14580
459.643	14157
459.659	13920
459.711	14482
459.740	15155
459.780	15314
459.820	15772
459.849	15766
459.900	14959
459.917	14574
459.981	13665
459.986	13669
460.054	13769
460.061	13795
460.123	16437
460.141	17428
460.191	22807
460.222	26918
460.260	30449
460.302	35369
460.328	31879
460.382	20430
460.397	20109
460.462	18422
460.465	18838
460.534	31367
460.543	33083
460.602	88978
460.623	109936
460.671	172193
460.703	225674
460.739	199154
460.783	153141
460.808	125915
460.864	32613
460.876	26623
460.944	16207
460.945	16116
461.013	16344
461.024	16548
461.081	19100
461.104	20711
461.150	20176
461.184	18573
461.218	17458
461.264	15816
461.286	15588
461.345	15769
461.355	15608
461.423	14137
461.425	14100
461.491	12616
461.505	12504
461.559	15016
461.585	16072
461.628	19407
461.665	22620
461.696	24148
461.745	27466
461.764	25806
461.825	18175
461.832	18279
461.901	19277
461.905	19436
461.969	17261
461.985	16411
462.037	14941
462.065	14189
462.105	13760
462.145	13549
462.173	14773
462.225	17235
462.241	18164
462.305	22555
462.310	22353
462.378	18685
462.385	18160
462.446	19318
462.465	19961
462.514	19148
462.545	18662
462.582	16817
462.625	13791
462.650	13486
462.705	13440
462.718	13515
462.785	14188
462.786	14222
462.854	15576
462.865	15845
462.922	18172
462.945	19203
462.990	18767
463.025	18024
463.058	16809
463.104	14765
463.126	15084
463.184	16500
463.194	16811
463.262	19017
463.264	19088
463.330	17573
463.344	17153
463.398	17247
463.424	17144
463.466	16503
463.504	16088
463.533	16802
463.583	18022
463.601	18664
463.663	20758
463.669	21179
463.737	26286
463.743	26761
463.805	27448
463.823	27417
463.873	27710
463.903	27700
463.940	28584
463.982	29832
464.008	26477
464.062	18935
464.076	18501
464.142	15846
464.144	15872
464.211	16956
464.221	17096
464.279	18724
464.301	19366
464.347	19869
464.381	20239
464.414	19523
464.461	18320
464.482	18457
464.540	18751
464.550	19074
464.617	21328
464.620	21374
464.685	26799
464.699	28083
464.753	27861
464.779	27602
464.820	23715
464.859	19568
464.888	18766
464.938	17397
464.956	17857
465.018	19777
465.023	19647
465.091	17517
465.098	17264
465.158	17502
465.177	17626
465.226	18402
465.257	18795
465.293	21504
465.336	24581
465.361	28237
465.416	36508
465.428	36323
465.495	35676
465.496	35704
465.563	31325
465.575	30525
465.631	33830
465.654	35372
465.698	26772
465.734	19360
465.765	18854
465.813	18009
465.833	17852
465.893	17533
465.900	17583
465.968	17692
465.972	17666
466.035	18405
466.052	18621
466.102	19702
466.131	20147
466.170	20041
466.210	19904
466.237	19821
466.290	19553
466.304	19608
466.369	19700
466.372	19774
466.439	20760
466.449	20879
466.506	21488
466.528	21673
466.573	27483
466.607	31757
466.641	40794
466.687	53263
466.708	58009
466.766	71026
466.775	67557
466.842	40302
466.845	38933
466.909	28855
466.925	26409
466.977	23961
467.004	22657
467.044	22299
467.083	21871
467.111	23203
467.163	25599
467.178	26301
467.242	28972
467.245	29070
467.312	29861
467.321	29908
467.379	27560
467.400	26616
467.446	27183
467.480	27499
467.559	27050
467.638	26356
467.717	30085
467.796	38881
467.875	50773
467.955	38159
468.034	39991
468.113	56659
468.192	76258
468.271	55258
468.350	67487
468.429	86635
468.508	89635
468.588	61702
468.667	43259
468.746	35666
468.825	32920
468.904	30865
468.983	32803
469.062	39695
469.141	44111
469.220	26526
469.299	26425
469.378	24305
469.456	25692
469.535	25360
469.614	23781
469.693	24487
469.772	27946
469.851	32025
469.930	29133
470.009	26742
470.088	27552
470.166	27094
470.245	31139
470.324	34856
470.403	33134
470.482	31380
470.560	30026
470.639	38071
470.718	48999
470.797	34658
470.875	31970
470.954	36040
471.033	35154
471.111	23597
471.190	22466
471.269	22168
471.347	21790
471.426	23674
471.505	22286
471.583	23223
471.662	22898
471.740	22147
471.819	21615
471.898	22344
471.976	22059
472.055	23351
472.133	27974
472.212	31670
472.290	26092
472.369	21866
472.447	21591
472.526	22305
472.604	24937
472.683	29454
472.761	32854
472.839	30800
472.918	28462
472.996	24525
473.075	25993
473.153	26225
473.231	26010
473.310	33362
473.388	34578
473.466	27796
473.545	38440
473.623	61903
473.701	63788
473.780	28967
473.858	25136
473.936	28078
474.014	28133
474.093	34009
474.171	39873
474.249	34796
474.327	27529
474.405	25180
474.484	29303
474.562	31756
474.640	27068
474.718	25776
474.796	24969
474.874	24036
474.952	23491
475.030	24388
475.108	24129
475.187	23611
475.265	27018
475.343	39652
475.421	43862
475.499	24266
475.577	24319
475.655	25835
475.733	34338
475.811	42052
475.889	39205
475.966	31676
476.044	24856
476.122	32142
476.200	39593
476.278	31676
476.356	23738
476.434	24942
476.512	30187
476.590	37949
476.667	33671
476.745	26172
476.823	29023
476.901	25257
476.979	23102
477.056	24000
477.134	24387
477.212	26757
477.290	28123
477.367	21968
477.445	21346
477.523	22138
477.601	23164
477.678	22805
477.756	23712
477.834	24098
477.911	22539
477.989	23295
478.066	23168
478.144	24534
478.222	31461
478.299	50788
478.377	50117
478.454	29010
478.532	23538
478.609	29733
478.687	33276
478.764	25332
478.842	29610
478.919	37558
478.997	32285
479.074	22656
479.152	23269
479.229	24228
479.307	22336
479.384	21008
479.461	20958
479.539	21953
479.616	23082
479.694	22724
479.771	24572
479.848	24090
479.926	26130
480.003	29935
480.080	24657
480.157	22396
480.235	25752
480.312	25405
480.389	25240
480.467	27701
480.544	30279
480.621	28429
480.698	27761
480.775	29901
480.853	28197
480.930	26048
481.007	26888
481.084	33830
481.161	50626
481.238	34898
481.315	23540
481.392	23795
481.470	24521
481.547	24423
481.624	25686
481.701	26004
481.778	26807
481.855	27451
481.932	31761
482.009	38739
482.086	36818
482.163	37242
482.240	50182
482.317	73730
482.393	58516
482.470	35217
482.547	34468
482.624	31290
482.701	32205
482.778	31386
482.855	30892
482.932	30887
483.009	33590
483.085	39812
483.162	52547
483.239	51988
483.316	41367
483.393	40326
483.469	36960
483.546	35502
483.623	33539
483.699	30121
483.776	29837
483.853	31752
483.930	36273
484.006	46381
484.083	59668
484.160	36734
484.236	39910
484.313	39215
484.389	38514
484.466	39403
484.543	45114
484.619	53377
484.696	55106
484.772	42849
484.849	37680
484.925	33821
485.002	31693
485.078	31940
485.155	31756
485.231	28660
485.308	27379
485.384	29642
485.461	34485
485.537	43886
485.614	46744
485.690	30867
485.766	32636
485.843	44804
485.919	98797
485.995	112248
486.072	33728
486.148	28818
486.224	27809
486.301	31512
486.377	35473
486.453	33016
486.530	32179
486.606	33498
486.682	35638
486.758	43063
486.835	51557
486.911	51788
486.987	84917
487.063	203333
487.139	365517
487.215	243006
487.292	88400
487.368	65005
487.444	80376
487.520	112875
487.596	164234
487.672	320005
487.748	956820
487.824	1556404
487.900	626185
487.976	186175
488.052	103569
488.128	82994
488.204	65045
488.280	50262
488.356	45422
488.432	58393
488.508	75765
488.584	53697
488.660	49804
488.736	48371
488.812	54565
488.888	69630
488.964	111379
489.039	333241
489.115	548394
489.191	294200
489.267	49871
489.343	34474
489.418	30553
489.494	28967
489.570	27462
489.646	30600
489.722	29641
489.797	28842
489.873	34242
489.949	50192
490.024	46496
490.100	29971
490.176	34047
490.251	59434
490.327	97297
490.403	43007
490.478	30042
490.554	27093
490.629	27144
490.705	28953
490.781	32398
490.856	31494
490.932	40498
491.007	48387
491.083	36987
491.158	30349
491.234	31890
491.309	42274
491.385	43962
491.460	32265
491.536	36286
491.611	40530
491.686	50354
491.762	79114
491.837	215129
491.913	351793
491.988	461258
492.063	639237
492.139	104886
492.214	38931
492.289	30429
492.365	32218
492.440	40603
492.515	36773
492.590	27415
492.666	26640
492.741	32145
492.816	34840
492.891	26117
492.967	28150
493.042	28033
493.117	25356
493.192	27950
493.267	35595
493.342	58579
493.418	63469
493.493	29421
493.568	24920
493.643	26646
493.718	31575
493.793	55635
493.868	94006
493.943	69870
494.018	36123
494.093	25260
494.168	25457
494.243	24167
494.318	23498
494.393	23984
494.468	24692
494.543	28773
494.618	40492
494.693	30649
494.768	25484
494.842	25572
494.917	26987
494.992	30245
495.067	27970
495.142	29260
495.217	32496
495.292	35423
495.366	39743
495.441	49559
495.516	63491
495.591	106085
495.665	438313
495.740	1111388
495.815	421440
495.890	55624
495.964	34891
496.039	35787
496.114	36650
496.188	53453
496.263	45061
496.338	28369
496.412	27512
496.487	34548
496.561	54495
496.636	57383
496.710	34301
496.785	38343
496.860	33144
496.934	29149
497.009	32538
497.083	28029
497.158	24965
497.232	29702
497.307	38729
497.381	28557
497.455	27478
497.530	30293
497.604	25828
497.679	27771
497.753	33331
497.827	42812
497.902	37481
497.976	37751
498.050	71794
498.125	254855
498.199	277701
498.273	104519
498.348	85680
498.422	63590
498.496	69542
498.570	66744
498.645	32360
498.719	28693
498.793	32667
498.867	43572
498.941	50709
499.016	102596
499.090	274743
499.164	107276
499.238	31700
499.312	37073
499.386	64021
499.460	43156
499.534	28537
499.609	30530
499.683	34833
499.757	34860
499.831	54801
499.905	174007
499.979	164330
500.053	45443
500.127	76450
500.201	99268
500.275	47507
500.349	37111
500.422	40826
500.496	77372
500.570	205971
500.644	212023
500.718	198212
500.792	66147
500.866	34819
500.940	34494
501.013	35178
501.087	45012
501.161	115973
501.235	115227
501.309	69212
501.382	157157
501.456	163994
501.530	69676
501.603	61939
501.677	36696
501.751	26712
501.825	30970
501.898	36049
501.972	70051
502.046	51093
502.119	33519
502.193	60489
502.266	86313
502.340	45601
502.413	40496
502.487	64345
502.561	44928
502.634	35432
502.708	46255
502.781	43742
502.855	33195
502.928	26421
503.002	26082
503.075	24786
503.149	25434
503.222	26367
503.295	26584
503.369	28823
503.442	33133
503.516	59428
503.589	119729
503.662	91616
503.736	59672
503.809	92121
503.882	106774
503.956	157309
504.029	255431
504.102	585703
504.175	839915
504.249	362357
504.322	141306
504.395	84569
504.468	59333
504.542	43803
504.615	36280
504.688	34370
504.761	33153
504.834	42048
504.907	66344
504.980	123828
505.053	52568
505.127	81483
505.200	66568
505.273	27566
505.346	24722
505.419	22125
505.492	22972
505.565	21134
505.638	21082
505.711	20354
505.784	18504
505.857	18769
505.930	22277
506.003	21439
506.076	22262
506.149	21108
506.221	21805
506.294	24544
506.367	38132
506.440	101499
506.513	75904
506.586	29588
506.659	25096
506.731	27190
506.804	36990
506.877	66079
506.950	30113
507.022	20690
507.095	22802
507.168	30539
507.241	29099
507.313	25597
507.386	34050
507.459	53128
507.531	33725
507.604	23590
507.677	23937
507.749	21652
507.822	33830
507.894	66055
507.967	64012
508.040	25615
508.112	21002
508.185	20627
508.257	33063
508.330	66617
508.402	25536
508.475	18882
508.547	18217
508.620	17991
508.692	20873
508.765	20383
508.837	18155
508.909	18134
508.982	21083
509.054	28058
509.127	24564
509.199	18175
509.271	17329
509.344	17788
509.416	18058
509.488	18459
509.560	21570
509.633	26958
509.705	34369
509.777	30676
509.849	59934
509.922	35224
509.994	18185
510.066	17788
510.138	16314
510.210	21228
510.283	19155
510.355	21545
510.427	21476
510.499	20820
510.571	21692
510.643	27076
510.715	75482
510.787	66687
510.859	26023
510.931	32413
511.003	75061
511.076	59549
511.148	19452
511.219	16877
511.291	20870
511.363	22781
511.435	17006
511.507	16194
511.579	17841
511.651	18131
511.723	17536
511.795	17662
511.867	18159
511.939	19178
512.010	25594
512.082	26224
512.154	24017
512.226	22911
512.298	32536
512.369	55288
512.441	36601
512.513	47322
512.585	32672
512.656	31737
512.728	44469
512.800	23817
512.871	21179
512.943	22108
513.015	21287
513.086	27147
513.158	34150
513.230	34580
513.301	62814
513.373	78174
513.444	36456
513.516	26701
513.588	27034
513.659	35768
513.731	49545
513.802	45720
513.874	117876
513.945	253078
514.016	66846
514.088	28365
514.159	37464
514.231	53399
514.302	57423
514.374	25176
514.445	21056
514.516	31386
514.588	23816
514.659	23195
514.730	31734
514.802	38746
514.873	27741
514.944	25915
515.016	31190
515.087	49352
515.158	40568
515.229	37115
515.301	19504
515.372	20967
515.443	19966
515.514	20496
515.585	22298
515.656	23822
515.728	22370
515.799	21720
515.870	27276
515.941	27473
516.012	25087
516.083	29932
516.154	39464
516.225	68910
516.296	62106
516.367	45109
516.438	47866
516.509	60134
516.580	87638
516.651	207102
516.722	768695
516.793	408366
516.864	94080
516.935	69492
517.006	60379
517.077	100239
517.148	285185
517.219	486137
517.289	724580
517.360	171839
517.431	58830
517.502	32260
517.573	32313
517.643	30225
517.714	31677
517.785	34690
517.856	36690
517.926	43494
517.997	49992
518.068	57293
518.138	70875
518.209	101389
518.280	308927
518.350	1097361
518.421	491142
518.492	113498
518.562	104013
518.633	131222
518.703	194619
518.774	402689
518.845	938779
518.915	899185
518.986	305493
519.056	157889
519.127	209392
519.197	243460
519.268	236325
519.338	95130
519.408	62757
519.479	131126
519.549	84726
519.620	45376
519.690	31927
519.760	31220
519.831	40970
519.901	39703
519.971	25695
520.042	25856
520.112	28582
520.182	51297
520.253	65263
520.323	26757
520.393	27457
520.463	38289
520.534	22258
520.604	27783
520.674	24573
520.744	26240
520.814	45228
520.885	56069
520.955	41227
521.025	103226
521.095	48402
521.165	25100
521.235	23203
521.305	23615
521.375	24750
521.445	33651
521.515	60447
521.585	77503
521.655	76789
521.725	49381
521.795	35237
521.865	21404
521.935	26900
522.005	23623
522.075	23091
522.145	26189
522.215	28842
522.285	33485
522.355	36701
522.424	49017
522.494	53487
522.564	60701
522.634	163923
522.704	543452
522.774	193479
522.843	42840
522.913	43590
522.983	62415
523.053	42916
523.122	40942
523.192	73028
523.262	305769
523.331	294666
523.401	47386
523.471	30317
523.540	33277
523.610	26911
523.680	24748
523.749	25239
523.819	27637
523.888	28706
523.958	24168
524.027	24852
524.097	25979
524.166	28814
524.236	38912
524.305	33456
524.375	25326
524.444	23064
524.514	26549
524.583	24446
524.653	28033
524.722	29975
524.791	25104
524.861	28710
524.930	28263
524.999	37282
525.069	54304
525.138	32405
525.207	32204
525.277	32684
525.346	37891
525.415	36940
525.484	42958
525.554	44907
525.623	53660
525.692	65474
525.761	72343
525.830	87399
525.900	112873
525.969	169766
526.038	318342
526.107	625344
526.176	1715624
526.245	1378552
526.314	464521
526.383	890819
526.452	1202265
526.522	1561940
526.591	1528873
526.660	489708
526.729	235963
526.797	217790
526.867	389713
526.935	1339556
527.004	2492909
527.073	1524514
527.142	263565
527.211	116020
527.280	98805
527.349	90113
527.418	50302
527.487	43785
527.555	37700
527.624	34219
527.693	31943
527.762	33434
527.831	31762
527.899	31579
527.968	32228
528.037	32523
528.106	43985
528.174	90401
528.243	55966
528.312	76375
528.380	122656
528.449	38689
528.518	27814
528.586	22961
528.655	24704
528.723	22647
528.792	23382
528.861	26364
528.929	22101
528.998	22692
529.066	21200
529.135	22777
529.203	21769
529.272	21586
529.340	24118
529.409	25408
529.477	23853
529.545	24283
529.614	26733
529.682	23483
529.751	25516
529.819	28514
529.887	26182
529.956	24431
530.024	27298
530.092	26815
530.161	37004
530.229	71587
530.297	38340
530.365	25898
530.434	25869
530.502	24128
530.570	24345
530.638	23496
530.707	32938
530.775	32948
530.843	23280
530.911	25783
530.979	25866
531.047	25873
531.115	25542
531.183	24608
531.252	24420
531.320	24715
531.388	24404
531.456	26359
531.524	25467
531.592	26981
531.660	30006
531.728	25829
531.796	27110
531.864	27772
531.932	28923
532.000	29516
532.067	31604
532.135	36981
532.203	42853
532.271	46931
532.339	82377
532.407	248795
532.475	142755
532.542	57021
532.610	58446
532.678	82366
532.746	305270
532.814	785469
532.881	235045
532.949	49067
533.017	37905
533.084	32497
533.152	30432
533.220	33052
533.287	45286
533.355	31734
533.423	29105
533.490	29602
533.558	29255
533.625	31168
533.693	31476
533.761	32729
533.828	35169
533.896	38222
533.963	79405
534.031	103788
534.098	152538
534.166	68175
534.233	39662
534.300	42719
534.368	44184
534.435	43545
534.503	46249
534.570	50982
534.637	57342
534.705	67293
534.772	84152
534.840	165504
534.907	712826
534.974	897484
535.041	129074
535.109	56967
535.176	43701
535.243	41502
535.310	44116
535.378	40700
535.445	36889
535.512	38085
535.579	37127
535.646	34798
535.714	36989
535.781	38171
535.848	39098
535.915	37563
535.982	35475
536.049	36250
536.116	39212
536.183	39526
536.250	39661
536.317	42220
536.384	51358
536.451	76184
536.518	81145
536.585	59133
536.652	66980
536.719	99356
536.786	82950
536.853	63193
536.920	82572
536.987	129699
537.053	136024
537.120	447171
537.187	382029
537.254	61462
537.321	46725
537.388	46642
537.454	40939
537.521	40238
537.588	39974
537.654	41039
537.721	43334
537.788	44654
537.855	40763
537.921	44575
537.988	44768
538.055	42145
538.121	43511
538.188	49587
538.254	74376
538.321	146451
538.388	91987
538.454	49367
538.521	44900
538.587	44153
538.654	43995
538.720	41724
538.787	42985
538.853	44555
538.920	49064
538.986	48089
539.053	42619
539.119	47630
539.185	49933
539.252	60920
539.318	98425
539.385	68177
539.451	53573
539.517	55568
539.583	64705
539.650	149355
539.716	394258
539.782	113786
539.849	53519
539.915	50059
539.981	54044
540.047	65788
540.114	57767
540.180	56482
540.246	59639
540.312	81156
540.378	145313
540.444	145494
540.510	163171
540.576	444140
540.643	140073
540.709	50993
540.775	47310
540.841	45318
540.907	48806
540.973	54171
541.039	72275
541.105	87554
541.171	55895
541.237	50929
541.303	51727
541.369	59171
541.435	78491
541.500	127833
541.566	85237
541.632	48968
541.698	44938
541.764	44261
541.830	43356
541.896	43019
541.961	45176
542.027	46099
542.093	49600
542.159	51858
542.224	54573
542.290	73605
542.356	124736
542.421	144299
542.487	69320
542.553	51062
542.618	50661
542.684	50954
542.750	53946
542.815	62908
542.881	100867
542.947	370844
543.012	272245
543.078	56613
543.143	47462
543.209	49734
543.274	53065
543.340	65555
543.405	159256
543.471	261307
543.536	64096
543.602	46266
543.667	44011
543.732	44697
543.798	42373
543.863	43486
543.928	43646
543.994	43116
544.059	45393
544.124	46890
544.190	48195
544.255	50123
544.320	52748
544.386	56814
544.451	73930
544.516	85226
544.581	88033
544.646	236471
544.712	370041
544.777	78685
544.842	52883
544.907	51192
544.972	49712
545.037	52266
545.102	54607
545.168	54637
545.233	56064
545.298	60875
545.363	64146
545.428	79529
545.493	145006
545.558	339916
545.623	130064
545.688	60140
545.753	56403
545.818	56457
545.883	57120
545.947	58342
546.012	62598
546.077	62403
546.142	67512
546.207	72094
546.272	90705
546.337	95537
546.401	77138
546.466	72709
546.531	72512
546.596	80811
546.661	85639
546.725	84736
546.790	86860
546.855	92257
546.919	99404
546.984	109350
547.049	117706
547.113	130028
547.178	142634
547.243	159623
547.307	182495
547.372	209573
547.436	206366
547.501	210409
547.565	228427
547.630	227176
547.695	217435
547.759	202957
547.823	204115
547.888	205346
547.952	212342
548.017	222467
548.081	237977
548.146	228882
548.210	228836
548.274	244964
548.339	238993
548.403	217238
548.468	204260
548.532	205392
548.596	209907
548.660	210125
548.725	230688
548.789	253961
548.853	242486
548.917	230152
548.982	224643
549.046	205130
549.110	185083
549.174	189790
549.238	217622
549.303	239921
549.367	246724
549.431	237248
549.495	221134
549.559	222178
549.623	253394
549.687	288817
549.751	319196
549.815	329826
549.879	323965
549.943	308695
550.007	326012
550.071	328129
550.135	325523
550.199	292136
550.263	274668
550.327	263530
550.391	272233
550.455	303116
550.519	311638
550.582	334705
550.646	410313
550.710	415520
550.774	373627
550.838	379758
550.901	392568
550.965	414766
551.029	441171
551.093	478535
551.156	539049
551.220	627880
551.284	688315
551.347	530835
551.411	434933
551.475	410466
551.538	402001
551.602	373098
551.666	351490
551.729	333629
551.793	322594
551.856	318268
551.920	312001
551.983	313152
552.047	305200
552.110	310846
552.174	315501
552.237	320533
552.301	298865
552.364	286609
552.428	275870
552.491	288789
552.554	294350
552.618	290031
552.681	294623
552.745	282846
552.808	298440
552.871	321931
552.934	307589
552.998	295035
553.061	287319
553.124	278730
553.187	276201
553.251	286250
553.314	285425
553.377	285852
553.440	307155
553.503	328721
553.567	336026
553.630	305579
553.693	302000
553.756	303816
553.819	298626
553.882	289008
553.945	288956
554.008	292901
554.071	292419
554.134	294404
554.197	278936
554.260	273600
554.323	281730
554.386	285481
554.449	293335
554.512	292437
554.575	281069
554.638	280007
554.701	277806
554.764	274261
554.827	265154
554.889	255824
554.952	241879
555.015	237640
555.078	241006
555.141	245294
555.203	242074
555.266	239482
555.329	240441
555.391	231791
555.454	233832
555.517	226080
555.580	216176
555.642	207121
555.705	202743
555.768	202227
555.830	199160
555.893	188199
555.955	184953
556.018	181888
556.080	185118
556.143	188706
556.206	186468
556.268	183720
556.330	182997
556.393	179218
556.455	170693
556.518	174871
556.580	172431
556.643	158266
556.705	157118
556.767	157185
556.830	156423
556.892	164163
556.955	202220
557.017	170331
557.079	148206
557.142	147571
557.204	159936
557.266	229548
557.328	199595
557.391	129840
557.453	124738
557.515	128743
557.577	143629
557.639	148678
557.701	128886
557.764	128876
557.826	133208
557.888	138718
557.950	146538
558.012	163823
558.074	216430
558.136	462508
558.198	1052468
558.260	407847
558.322	168958
558.384	163602
558.446	173624
558.508	193237
558.570	227710
558.632	325850
558.694	464989
558.756	538094
558.818	1258535
558.880	2424288
558.942	1201596
559.003	1152228
559.065	583792
559.127	232621
559.189	214497
559.251	239342
559.312	338113
559.374	724949
559.436	1882701
559.498	1064384
559.559	282382
559.621	224501
559.683	252363
559.744	395846
559.806	1078704
559.868	1535595
559.929	413241
559.991	254748
560.052	392907
560.114	1024406
560.176	686648
560.237	613745
560.299	966419
560.360	243347
560.422	102587
560.483	85563
560.545	79038
560.606	75276
560.667	70621
560.729	68954
560.790	66960
560.852	64859
560.913	65074
560.974	62998
561.036	62286
561.097	63654
561.158	62994
561.220	64890
561.281	65084
561.342	67404
561.403	76661
561.465	98401
561.526	206979
561.587	272900
561.648	89608
561.709	63725
561.771	60277
561.832	59768
561.893	59506
561.954	57973
562.015	58221
562.076	57280
562.137	56965
562.198	56058
562.259	57703
562.320	60642
562.381	65234
562.442	87540
562.503	72075
562.564	55710
562.625	53693
562.686	52444
562.747	53038
562.808	53743
562.869	52120
562.930	52259
562.991	51518
563.051	52086
563.112	50874
563.173	50956
563.234	50016
563.294	50552
563.355	51700
563.416	53094
563.477	51403
563.537	51263
563.598	51092
563.659	51587
563.720	50325
563.780	53575
563.841	55716
563.901	50200
563.962	49108
564.023	47921
564.083	48773
564.144	49546
564.204	48635
564.265	49087
564.325	48088
564.386	55036
564.446	51746
564.507	45268
564.567	45931
564.628	47286
564.688	48687
564.749	48540
564.809	47886
564.869	50205
564.930	48877
564.990	50422
565.050	49795
565.111	50227
565.171	48054
565.231	48537
565.292	48060
565.352	48775
565.412	50012
565.472	50676
565.532	53911
565.593	51016
565.653	48797
565.713	50987
565.773	54104
565.833	67548
565.893	82458
565.953	54992
566.013	47800
566.074	46765
566.134	50549
566.194	56406
566.254	65342
566.314	52066
566.374	46377
566.434	47164
566.494	45659
566.554	46014
566.614	47328
566.673	47955
566.733	48430
566.793	47654
566.853	47591
566.913	47868
566.973	46126
567.033	47492
567.092	45941
567.152	47005
567.212	47114
567.272	46798
567.331	46821
567.391	46079
567.451	47520
567.511	49846
567.570	49878
567.630	46487
567.690	45550
567.749	44684
567.809	46108
567.868	49331
567.928	47055
567.988	47300
568.047	46729
568.107	47110
568.166	46987
568.226	45384
568.285	46619
568.345	45563
568.404	46574
568.464	46073
568.523	46249
568.582	48569
568.642	50761
568.701	46651
568.761	45023
568.820	43875
568.879	44504
568.939	46895
568.998	46061
569.057	44874
569.116	45176
569.176	46279
569.235	44228
569.294	44770
569.353	46039
569.413	44361
569.472	44114
569.531	43855
569.590	42706
569.649	44044
569.708	42511
569.767	45084
569.827	46551
569.886	43669
569.945	42491
570.004	43786
570.063	45037
570.122	51894
570.181	52776
570.240	47448
570.299	48419
570.358	47540
570.417	46286
570.475	47162
570.534	49775
570.593	52168
570.652	50153
570.711	48433
570.770	48827
570.829	48926
570.887	54314
570.946	63588
571.005	49997
571.064	46426
571.122	46262
571.181	47890
571.240	46800
571.299	45285
571.357	44967
571.416	45073
571.475	46597
571.533	47449
571.592	48098
571.650	46526
571.709	48245
571.768	54755
571.826	55734
571.885	51068
571.943	46766
572.002	44874
572.060	43570
572.119	42579
572.177	42380
572.236	41943
572.294	43378
572.352	45422
572.411	46247
572.469	44789
572.528	43141
572.586	42483
572.644	42218
572.703	45117
572.761	41755
572.819	41052
572.877	41076
572.936	39863
572.994	40045
573.052	39553
573.110	42849
573.169	45117
573.227	44152
573.285	42444
573.343	41303
573.401	40717
573.459	40383
573.517	41813
573.576	43904
573.634	43908
573.692	43439
573.750	44909
573.808	41402
573.866	40260
573.924	41862
573.982	42306
574.040	40365
574.098	40308
574.155	40598
574.213	40204
574.271	40406
574.329	44481
574.387	42357
574.445	39010
574.503	37294
574.560	38143
574.618	38303
574.676	39619
574.734	38248
574.792	38668
574.849	37028
574.907	33657
574.965	34317
575.022	35027
575.080	35231
575.138	36433
575.195	37264
575.253	38432
575.311	41852
575.368	36334
575.426	33919
575.483	35321
575.541	36077
575.598	34761
575.656	35150
575.713	37952
575.771	38336
575.828	37356
575.886	34478
575.943	35807
576.001	34418
576.058	34177
576.115	35780
576.173	37753
576.230	42504
576.287	51623
576.345	42837
576.402	36424
576.459	36722
576.517	36229
576.574	34300
576.631	33560
576.688	33486
576.746	32851
576.803	32790
576.860	31690
576.917	33052
576.974	32473
577.031	33954
577.089	32648
577.146	32145
577.203	32243
577.260	32623
577.317	31855
577.374	32770
577.431	33699
577.488	33532
577.545	33035
577.602	31865
577.659	31130
577.716	31912
577.773	31680
577.830	31173
577.886	31978
577.943	30210
578.000	31505
578.057	32779
578.114	32578
578.171	31564
578.227	30901
578.284	29807
578.341	31342
578.398	31519
578.454	32105
578.511	32812
578.568	33592
578.625	30826
578.681	31482
578.738	32494
578.794	32561
578.851	34953
578.908	35978
578.964	40598
579.021	39707
579.077	37764
579.134	36164
579.190	34493
579.247	35530
579.303	33760
579.360	33708
579.416	35180
579.473	34972
579.529	34210
579.586	33068
579.642	33921
579.698	34866
579.755	34809
579.811	34187
579.867	33180
579.924	33692
579.980	33737
580.036	33697
580.093	34044
580.149	35214
580.205	34778
580.261	35058
580.317	35485
580.374	37076
580.430	38485
580.486	38240
580.542	35495
580.598	36999
580.619	37610
580.654	38714
580.692	38159
580.710	37953
580.765	38123
580.767	38171
580.823	37218
580.838	37538
580.879	38500
580.911	38308
580.935	38233
580.984	37346
580.991	37270
581.047	36963
581.057	36532
581.103	34774
581.130	34912
581.159	35111
581.203	34904
581.215	34890
581.270	34649
581.276	34493
581.326	33298
581.349	33629
581.382	34160
581.422	34596
581.438	34813
581.494	35511
581.494	35485
581.550	35375
581.567	35815
581.606	36789
581.640	36903
581.661	36997
581.713	35332
581.717	35227
581.773	34156
581.786	34276
581.829	34833
581.859	36120
581.885	37228
581.932	37295
581.940	37325
581.996	36816
582.004	36768
582.052	36479
582.077	36135
582.107	35872
582.150	35705
582.163	35650
582.219	35980
582.223	35906
582.274	35195
582.296	35036
582.330	34805
582.368	35877
582.386	36465
582.441	35556
582.441	35563
582.497	36183
582.514	35840
582.552	35404
582.587	35785
582.608	35944
582.659	35532
582.663	35500
582.719	37432
582.732	36918
582.774	35407
582.805	35552
582.830	35713
582.877	35313
582.885	35233
582.941	34905
582.950	35177
582.996	36491
583.023	36759
583.052	37186
583.095	35522
583.107	35064
583.162	36260
583.168	36234
583.218	35688
583.240	35753
583.273	36142
583.313	36169
583.328	36152
583.384	36831
583.385	36812
583.439	36153
583.458	36077
583.494	35860
583.531	35548
583.549	35536
583.603	36144
583.605	36142
583.660	36314
583.676	36134
583.715	36066
583.748	36732
583.770	37094
583.820	36481
583.825	36421
583.881	36645
583.893	36631
583.936	36365
583.965	35920
583.991	35681
584.038	36297
584.046	36389
584.101	36667
584.110	36607
584.156	36386
584.183	36698
584.211	36930
584.255	36781
584.266	36785
584.321	36650
584.328	36780
584.376	37862
584.400	37994
584.431	37930
584.472	37319
584.486	37191
584.541	39102
584.545	39134
584.596	39413
584.617	39559
584.651	40211
584.689	41310
584.706	41583
584.761	42739
584.762	42753
584.816	44049
584.834	44625
584.871	45775
584.906	47020
584.926	47832
584.978	50863
584.980	50988
585.035	53816
585.051	55531
585.090	60572
585.123	64693
585.145	67695
585.195	74689
585.200	75473
585.254	86182
585.267	89162
585.309	99974
585.340	109317
585.364	117054
585.412	134395
585.419	137750
585.473	170499
585.484	179960
585.528	233716
585.556	285766
585.583	386985
585.628	617572
585.637	700445
585.692	1366164
585.700	1480474
585.747	1881878
585.772	1706285
585.801	1186228
585.845	494424
585.856	398540
585.910	194746
585.917	175396
585.965	128005
585.989	110542
586.019	98093
586.061	85779
586.074	83064
586.128	75938
586.133	75364
586.183	72099
586.205	71125
586.237	69396
586.277	65500
586.292	64453
586.346	62657
586.349	62622
586.401	61948
586.421	61284
586.455	61162
586.493	61397
586.509	61664
586.564	63520
586.565	63618
586.618	71388
586.637	73112
586.672	78764
586.709	86328
586.727	90281
586.781	103655
586.781	103688
586.835	85330
586.853	79533
586.889	70537
586.925	64500
586.944	63219
586.996	61608
586.998	61621
587.052	61574
587.068	61783
587.106	62431
587.140	61977
587.161	62036
587.212	62735
587.215	62759
587.269	63373
587.284	63510
587.323	64354
587.356	64867
587.377	65200
587.427	66431
587.431	66537
587.485	66907
587.499	66981
587.539	67395
587.571	67893
587.593	68718
587.643	71334
587.648	71530
587.702	71522
587.715	71889
587.755	72870
587.786	73163
587.810	73229
587.858	72121
587.864	72174
587.917	74181
587.930	74357
587.971	73501
588.001	72657
588.025	72420
588.073	72116
588.079	72156
588.133	71743
588.145	72002
588.187	73314
588.217	73262
588.241	73203
588.288	73312
588.295	73667
588.348	77575
588.360	78072
588.402	77003
588.431	75635
588.456	74914
588.503	74505
588.510	74733
588.564	77143
588.575	77535
588.617	79557
588.646	80514
588.671	80756
588.718	81807
588.725	82276
588.778	86532
588.789	87691
588.832	101774
588.861	113522
588.886	144764
588.932	213449
588.939	221275
588.993	285710
589.004	284653
589.047	166248
589.075	102595
589.100	91610
589.147	80149
589.154	79788
589.207	77098
589.218	76541
589.261	77617
589.290	78450
589.314	78893
589.361	80013
589.368	80798
589.421	87707
589.433	89449
589.475	110835
589.504	127819
589.528	154133
589.576	212919
589.582	208561
589.635	134179
589.647	119759
589.689	93792
589.718	79654
589.742	79171
589.790	78489
589.795	78544
589.849	78428
589.861	78500
589.902	80935
589.932	81927
589.955	80905
590.004	78337
590.009	78410
590.062	79088
590.075	79245
590.115	79464
590.146	79474
590.168	80184
590.218	81381
590.222	81611
590.275	83955
590.289	84404
590.328	84621
590.360	84452
590.381	85040
590.431	86279
590.435	86408
590.488	86966
590.503	87213
590.541	89681
590.574	91622
590.594	91986
590.645	91975
590.647	92143
590.700	94194
590.716	94718
590.753	96319
590.787	97838
590.806	98861
590.859	100962
590.859	101104
590.912	102168
590.930	102485
590.965	103574
591.001	104428
591.018	104880
591.071	105722
591.072	105605
591.124	105054
591.143	104549
591.177	105575
591.214	106991
591.230	108153
591.283	111548
591.285	111523
591.336	112499
591.356	113041
591.389	112663
591.427	111130
591.442	110069
591.495	105804
591.498	105374
591.547	106479
591.569	106926
591.600	107343
591.640	107491
591.653	107993
591.706	109338
591.711	109361
591.759	111420
591.782	112223
591.811	114475
591.853	117662
591.864	117934
591.917	118031
591.924	117886
591.969	117752
591.995	117448
592.022	118622
592.066	120220
592.075	120672
592.127	122322
592.137	122452
592.180	124336
592.208	125287
592.233	126084
592.279	127020
592.285	127550
592.338	130424
592.350	130856
592.390	129711
592.421	128531
592.443	129555
592.491	131166
592.495	131500
592.548	133246
592.562	133515
592.600	134807
592.633	135517
592.653	135629
592.704	134576
592.705	135383
592.775	137208
592.846	141415
592.916	146899
592.987	148374
593.058	146011
593.128	141799
593.199	143796
593.270	144428
593.341	147686
593.411	152254
593.482	157927
593.553	159513
593.623	159286
593.694	165036
593.764	166263
593.835	166258
593.906	166908
593.976	169376
594.047	175795
594.117	183441
594.188	185750
594.258	182610
594.329	182410
594.399	187450
594.470	191820
594.540	199113
594.611	203137
594.681	203023
594.751	200831
594.822	209740
594.892	217880
594.963	220355
595.033	226670
595.103	233204
595.174	233859
595.244	241972
595.314	248745
595.384	251051
595.455	257867
595.525	263762
595.595	276748
595.665	277502
595.736	268443
595.806	273692
595.876	277394
595.946	277941
596.016	289347
596.087	298728
596.157	297758
596.227	301836
596.297	315817
596.367	335120
596.437	352870
596.507	349935
596.577	352199
596.647	362359
596.717	380315
596.787	387703
596.857	382960
596.927	386047
596.997	387550
597.067	393180
597.137	398778
597.207	401914
597.277	407526
597.347	387091
597.417	376021
597.487	381455
597.557	391312
597.626	397223
597.696	405296
597.766	400030
597.836	375984
597.906	356215
597.975	347931
598.045	356641
598.115	368220
598.185	396460
598.254	443389
598.324	482119
598.394	493732
598.464	477083
598.533	463276
598.603	434379
598.672	419972
598.742	431003
598.812	429783
598.881	441124
598.951	438776
599.020	445148
599.090	461606
599.159	470391
599.229	452846
599.299	439983
599.368	453872
599.437	445056
599.507	408756
599.576	395496
599.646	387740
599.715	385168
599.785	381485
599.854	370122
599.924	360363
599.993	359395
600.062	369028
600.132	377216
600.201	402286
600.270	471578
600.340	495271
600.409	482715
600.478	475424
600.547	492358
600.617	442625
600.686	352052
600.755	319361
600.824	304406
600.894	294304
600.963	293327
601.032	288700
601.101	278385
601.170	265517
601.239	259489
601.308	257846
601.378	258391
601.447	256344
601.516	259441
601.585	260989
601.654	268160
601.723	265762
601.792	271715
601.861	281246
601.930	293204
601.999	301027
602.068	294258
602.137	302671
602.206	306201
602.275	307446
602.343	320210
602.412	320793
602.481	313617
602.550	314267
602.619	323346
602.688	327283
602.756	325652
602.825	329886
602.894	337427
602.963	346016
603.032	349858
603.100	351451
603.169	352993
603.238	354352
603.307	356675
603.375	362639
603.444	370761
603.513	376805
603.581	381143
603.650	387952
603.719	382129
603.787	393117
603.856	405802
603.924	415773
603.993	432004
604.061	451122
604.130	470634
604.198	479739
604.267	488066
604.335	492229
604.404	502621
604.472	509623
604.541	512993
604.609	517797
604.678	515808
604.746	519357
604.815	538063
604.883	545447
604.951	544802
605.020	556853
605.088	568881
605.156	582268
605.225	592231
605.293	591989
605.361	593149
605.429	602823
605.498	613762
605.566	629949
605.634	660990
605.702	686026
605.771	703047
605.839	705544
605.907	689153
605.975	666584
606.043	655477
606.111	652889
606.180	651814
606.248	645407
606.316	640227
606.384	639158
606.452	655496
606.520	690381
606.588	698281
606.656	697055
606.724	679773
606.792	642025
606.860	578674
606.928	528263
606.996	506496
607.064	497189
607.132	510956
607.200	540571
607.267	561703
607.335	574331
607.403	588258
607.471	567376
607.539	544862
607.607	554037
607.674	486681
607.742	487939
607.810	489899
607.878	484145
607.946	494656
608.013	517875
608.081	525742
608.149	532310
608.216	553229
608.284	569359
608.352	571454
608.419	562647
608.487	551600
608.555	541432
608.622	558568
608.690	598428
608.757	658549
608.825	672050
608.893	658386
608.960	617412
609.028	588860
609.095	589128
609.163	587572
609.230	524066
609.298	481811
609.365	511117
609.432	552030
609.500	601751
609.567	685252
609.635	784339
609.702	822595
609.769	787492
609.837	611569
609.904	531945
609.971	550838
610.039	613967
610.106	791910
610.173	1425927
610.241	2858538
610.308	1826467
610.375	740301
610.442	600104
610.509	558477
610.577	552497
610.644	560981
610.711	577631
610.778	590502
610.845	613090
610.912	650191
610.980	673187
611.047	676316
611.114	660542
611.181	640715
611.248	639587
611.315	674795
611.382	690375
611.449	716659
611.516	725125
611.583	718080
611.650	722492
611.717	732092
611.784	749630
611.851	783595
611.918	827019
611.984	959271
612.051	1279547
612.118	2184644
612.185	3919014
612.252	3064488
612.319	1317506
612.386	1016413
612.452	902276
612.519	838203
612.586	814792
612.653	821093
612.719	854292
612.786	813682
612.853	758929
612.919	744683
612.986	750257
613.053	707674
613.120	667004
613.186	641330
613.253	641809
613.319	645950
613.386	650958
613.453	662620
613.519	670627
613.586	682444
613.652	714363
613.719	682754
613.785	688717
613.852	672469
613.918	665771
613.985	670030
614.051	700162
614.118	697594
614.184	671700
614.250	662477
614.317	680203
614.383	669426
614.449	684202
614.516	680336
614.582	682606
614.648	666256
614.715	661854
614.781	645943
614.847	646913
614.914	644090
614.980	624800
615.046	628089
615.112	648890
615.179	649566
615.245	659786
615.311	651997
615.377	659268
615.443	667304
615.509	680224
615.575	704108
615.642	701375
615.708	719520
615.774	752198
615.840	797213
615.906	852248
615.972	1021618
616.038	1458469
616.104	2616123
616.170	4230901
616.236	3862753
616.302	1898940
616.368	1452311
616.434	1045216
616.500	914137
616.565	1026467
616.631	1321395
616.697	1087642
616.763	1078184
616.829	1620959
616.895	2813195
616.961	2711020
617.026	1288535
617.092	836032
617.158	737883
617.224	703135
617.289	645055
617.355	609843
617.421	598549
617.487	592279
617.552	561762
617.618	555316
617.684	554294
617.749	556728
617.815	530729
617.880	522451
617.946	518940
618.012	535585
618.077	544352
618.143	518076
618.208	522562
618.274	563259
618.339	566796
618.405	467435
618.470	463591
618.536	471510
618.601	455134
618.667	425287
618.732	402966
618.798	396847
618.863	394869
618.928	393841
618.994	400998
619.059	405824
619.124	435092
619.190	405967
619.255	390896
619.320	389210
619.386	393143
619.451	390361
619.516	373288
619.581	378551
619.647	396560
619.712	394264
619.777	376719
619.842	381738
619.907	384837
619.972	393999
620.038	392482
620.103	377853
620.168	376299
620.233	384922
620.298	385357
620.363	390582
620.428	401854
620.493	411516
620.558	415840
620.623	419914
620.688	419883
620.753	415115
620.818	424565
620.883	432736
620.948	427903
621.013	423737
621.078	417168
621.143	420735
621.207	424283
621.272	421349
621.337	406646
621.402	402251
621.467	396657
621.532	398271
621.596	400241
621.661	386287
621.726	383423
621.791	388640
621.855	393417
621.920	390198
621.985	390639
622.049	397307
622.114	400496
622.179	405392
622.243	414484
622.308	431180
622.373	441223
622.437	432463
622.502	410273
622.566	406935
622.631	407179
622.695	416302
622.760	412010
622.824	413217
622.889	420183
622.953	426908
623.018	477569
623.082	477671
623.147	439917
623.211	433224
623.276	431801
623.340	413022
623.404	400922
623.469	397997
623.533	405447
623.597	397036
623.662	394602
623.726	364871
623.790	340054
623.854	332450
623.919	338656
623.983	346133
624.047	353869
624.111	356240
624.176	360648
624.240	364811
624.304	374306
624.368	360271
624.432	360255
624.496	372811
624.560	400200
624.625	408162
624.689	392867
624.753	411886
624.817	389287
624.881	382089
624.945	340778
625.009	330869
625.073	341212
625.137	359179
625.201	387629
625.265	387193
625.329	353690
625.393	361240
625.456	361438
625.520	371601
625.584	380400
625.648	388507
625.712	397205
625.776	398164
625.839	376111
625.903	316766
625.967	291222
626.031	316514
626.095	379495
626.158	347837
626.222	272594
626.286	254815
626.349	244671
626.413	230455
626.477	233972
626.540	235164
626.604	230051
626.668	225072
626.731	221502
626.795	222832
626.858	222130
626.922	222114
626.986	219553
627.049	220914
627.113	229177
627.176	222087
627.240	215085
627.303	216716
627.366	212275
627.430	220578
627.493	215628
627.557	210618
627.620	215121
627.684	224755
627.747	226249
627.810	210246
627.874	187708
627.937	182216
628.000	188919
628.064	184265
628.127	164551
628.190	162498
628.253	159121
628.317	153425
628.380	144232
628.443	140989
628.506	141910
628.569	136559
628.632	129778
628.696	130276
628.759	128545
628.822	123608
628.885	121413
628.948	119860
629.011	119286
629.074	117242
629.137	111702
629.200	110204
629.263	108974
629.326	107798
629.389	110898
629.452	106034
629.515	105050
629.578	104376
629.641	105357
629.704	108607
629.767	109143
629.830	103417
629.892	100892
629.955	100768
630.018	106146
630.081	110441
630.144	119755
630.207	105395
630.269	105604
630.332	97740
630.395	98549
630.458	94214
630.520	91121
630.583	93317
630.646	94013
630.708	95231
630.771	97159
630.834	102623
630.896	100551
630.959	100047
631.021	97218
631.084	98870
631.146	99384
631.209	101159
631.272	100216
631.334	104254
631.397	106712
631.459	109736
631.522	118126
631.584	122628
631.646	130510
631.709	140896
631.771	150211
631.834	134923
631.896	124662
631.958	113997
632.021	108718
632.083	102409
632.145	101677
632.208	100763
632.270	99773
632.332	95211
632.395	93430
632.457	94494
632.519	92384
632.581	94126
632.643	90811
632.706	92093
632.768	89256
632.830	91177
632.892	94575
632.954	93257
633.016	95023
633.078	93359
633.141	94554
633.203	93526
633.265	92421
633.327	93769
633.389	96398
633.451	100224
633.513	106139
633.575	104394
633.637	106609
633.698	109361
633.760	106846
633.822	109606
633.884	115544
633.946	119009
634.008	123944
634.070	131730
634.132	142593
634.193	158227
634.255	172747
634.317	177872
634.379	174123
634.441	151933
634.502	135478
634.564	122210
634.626	111169
634.687	103548
634.749	100235
634.811	97466
634.873	96705
634.934	96147
634.996	96132
635.057	96219
635.119	97313
635.181	101226
635.242	103724
635.304	100774
635.365	103909
635.427	101443
635.488	103323
635.550	102584
635.611	103946
635.673	105088
635.734	116033
635.796	125179
635.857	138419
635.918	150554
635.980	169327
636.041	183645
636.102	197482
636.164	198998
636.225	189532
636.286	162771
636.348	140671
636.409	124921
636.470	114339
636.531	106099
636.593	99628
636.654	95330
636.715	91238
636.776	89616
636.838	86142
636.899	84520
636.960	81344
637.021	80772
637.082	78330
637.143	77162
637.204	75338
637.265	74706
637.326	77309
637.387	79499
637.448	77395
637.509	77472
637.570	77282
637.631	75006
637.692	71464
637.753	71422
637.814	70829
637.875	70769
637.936	70584
637.997	69812
638.058	70894
638.119	69679
638.179	69907
638.240	68599
638.301	68771
638.362	66725
638.423	65185
638.483	66213
638.544	62131
638.605	64291
638.666	63502
638.726	64534
638.787	62940
638.848	63952
638.908	60352
638.969	60312
639.030	60059
639.090	59987
639.151	62064
639.211	67906
639.272	73867
639.332	96218
639.393	75698
639.453	75272
639.514	77132
639.574	64180
639.635	57909
639.695	59243
639.756	58357
639.816	60141
639.877	65735
639.937	85327
639.997	98718
640.058	62714
640.118	56936
640.178	59333
640.239	57231
640.299	58811
640.359	59600
640.420	65728
640.480	75511
640.540	93110
640.600	94073
640.661	82011
640.721	80497
640.781	90836
640.841	81341
640.901	62123
640.961	62528
641.021	67870
641.082	79910
641.142	80219
641.202	62651
641.262	53795
641.322	55010
641.382	52808
641.442	53174
641.502	52568
641.562	54176
641.622	57372
641.682	64242
641.742	77134
641.802	68967
641.861	58961
641.921	55792
641.981	56773
642.041	56556
642.101	62592
642.161	53021
642.221	49917
642.280	49679
642.340	48886
642.400	49498
642.460	52678
642.519	53670
642.579	53698
642.639	53766
642.698	52364
642.758	56778
642.818	55865
642.877	54849
642.937	57157
642.997	60569
643.056	72917
643.116	58636
643.175	56248
643.235	56567
643.294	58699
643.354	62306
643.414	67657
643.473	79307
643.532	95866
643.592	128652
643.651	196210
643.711	330508
643.770	633282
643.830	1424047
643.889	2362369
643.948	842129
644.008	220971
644.067	127403
644.126	94000
644.186	77108
644.245	67954
644.304	61507
644.363	60421
644.423	56774
644.482	59194
644.541	61403
644.600	65000
644.659	82189
644.719	105157
644.778	158669
644.837	277213
644.896	570246
644.955	1205660
645.014	414505
645.073	111033
645.132	79964
645.191	70846
645.250	66866
645.309	69271
645.368	78829
645.427	110556
645.486	207202
645.545	360572
645.604	101480
645.663	61088
645.722	58739
645.781	63054
645.840	71193
645.898	85461
645.957	118040
646.016	180847
646.075	314906
646.134	606427
646.192	1467110
646.251	1870552
646.310	457211
646.369	155748
646.427	122633
646.486	88822
646.545	66674
646.603	59696
646.662	54320
646.721	54039
646.779	53912
646.838	58228
646.896	71911
646.955	101155
647.014	166536
647.072	330577
647.131	869954
647.189	406687
647.248	74379
647.306	52101
647.365	47840
647.423	41288
647.481	42306
647.540	39475
647.598	40229
647.657	39229
647.715	38130
647.773	36844
647.832	36281
647.890	32754
647.948	32697
648.007	34440
648.065	32237
648.123	32679
648.181	34767
648.240	32106
648.298	29699
648.356	30765
648.414	30438
648.472	30632
648.531	29949
648.589	29986
648.647	29482
648.705	30300
648.763	31488
648.821	33100
648.879	34490
648.937	39728
648.995	47032
649.053	61054
649.111	91201
649.169	149719
649.227	271110
649.285	575196
649.343	1430104
649.401	720865
649.459	171022
649.516	94212
649.574	57623
649.632	59325
649.690	63003
649.748	78406
649.806	120487
649.863	231641
649.921	651421
649.979	414356
650.037	62831
650.094	36693
650.152	34335
650.210	30471
650.268	30509
650.325	31141
650.383	37976
650.440	25294
650.498	23957
650.556	23610
650.613	22654
650.671	23698
650.728	25457
650.786	28281
650.843	43517
650.901	32362
650.958	21664
651.016	20750
651.073	20517
651.131	19347
651.188	18854
651.246	19908
651.303	18499
651.360	18885
651.418	18934
651.475	19149
651.532	18447
651.590	18815
651.647	18096
651.704	17960
651.762	17957
651.819	19631
651.876	18047
651.933	16378
651.990	17682
652.048	15884
652.105	16206
652.162	17110
652.219	16306
652.276	16490
652.333	16504
652.390	15674
652.448	16475
652.505	17374
652.562	16225
652.619	16206
652.676	15987
652.733	18089
652.790	15583
652.847	14340
652.904	15778
652.961	14198
653.017	14093
653.074	16664
653.131	15808
653.188	14618
653.245	15160
653.302	15836
653.359	15305
653.415	15879
653.472	14489
653.529	15453
653.586	14963
653.642	16209
653.699	16316
653.756	14161
653.813	15192
653.869	16994
653.926	16522
653.983	14793
654.039	16610
654.096	14522
654.152	15900
654.209	12858
654.266	14482
654.322	13255
654.379	15333
654.435	15532
654.492	15809
654.548	20263
654.605	25478
654.661	19054
654.717	14492
654.774	14097
654.830	14464
654.887	14883
654.943	15856
655.000	19039
655.056	16768
655.112	14811
655.168	14598
655.225	15228
655.281	15197
655.337	14717
655.394	14588
655.450	14859
655.506	13609
655.562	13534
655.618	14340
655.675	12491
655.731	12619
655.787	12825
655.843	13893
655.899	13082
655.955	14928
656.011	14094
656.067	13628
656.123	13444
656.179	13360
656.235	15427
656.291	13186
656.347	15164
656.403	13692
656.459	13595
656.515	13575
656.571	13948
656.627	13143
656.683	14729
656.739	13763
656.795	13977
656.850	15024
656.906	15903
656.962	16502
657.018	15802
657.074	19249
657.129	27552
657.185	44330
657.241	102280
657.297	54159
657.352	17349
657.408	13331
657.464	14634
657.519	12809
657.575	11965
657.630	12636
657.686	12812
657.742	12140
657.797	11975
657.853	12691
657.908	13999
657.964	12284
658.019	12311
658.075	12522
658.130	12149
658.186	11038
658.241	12765
658.297	11017
658.352	11927
658.407	12275
658.463	11392
658.518	12320
658.573	12668
658.629	10850
658.684	11084
658.739	12577
658.795	11841
658.850	13133
658.905	11278
658.960	12170
659.016	11124
659.071	11470
659.126	12994
659.181	14210
659.236	22219
659.291	22792
659.346	15240
659.401	13560
659.457	12506
659.512	11177
659.567	12780
659.622	11337
659.677	11872
659.732	10732
659.787	11558
659.842	9931
659.897	12283
659.952	11176
660.007	12042
660.061	10908
660.116	10396
660.171	10472
660.226	10426
660.281	12297
660.336	10249
660.391	11201
660.445	10344
660.500	11157
660.555	11101
660.610	10458
660.664	11145
660.719	10638
660.774	10977
660.828	10622
660.883	11694
660.938	12157
660.992	9128
661.047	10746
661.101	10880
661.156	10287
661.211	10138
661.265	10424
661.320	10137
661.374	11035
661.429	10451
661.483	11024
661.538	11006
661.592	11546
661.647	13314
661.701	16817
661.755	12059
661.810	10779
661.864	10025
661.919	9226
661.973	10706
662.027	10918
662.081	10483
662.136	9361
662.190	10625
662.244	10433
662.299	10670
662.353	10696
662.407	10595
662.461	9341
662.515	10059
662.569	8840
662.624	9852
662.678	9690
662.732	10786
662.786	10320
662.840	9593
662.894	10926
662.948	9986
663.002	9512
663.056	10613
663.110	9888
663.164	10224
663.218	10952
663.272	11594
663.326	12168
663.380	11988
663.434	11017
663.488	10524
663.542	11108
663.595	11235
663.649	10384
663.703	11044
663.757	11394
663.811	10562
663.864	10686
663.918	11043
663.972	10569
664.026	10526
664.079	10329
664.133	10181
664.187	11246
664.240	10592
664.294	11055
664.348	11859
664.401	10858
664.455	10613
664.508	9731
664.562	9605
664.615	10416
664.669	10377
664.722	9789
664.776	9911
664.829	9441
664.883	10119
664.936	10570
664.990	10219
665.043	10027
665.097	10536
665.150	11416
665.203	10101
665.257	10393
665.310	11595
665.363	11167
665.417	11452
665.470	10789
665.523	12258
665.576	11601
665.630	12537
665.683	11649
665.736	11868
665.789	11294
665.842	10829
665.895	11529
665.949	12254
666.002	11099
666.055	10645
666.108	11928
666.161	12063
666.214	13187
666.267	12929
666.320	14270
666.373	12569
666.426	12454
666.479	11848
666.532	12591
666.585	12970
666.638	13003
666.691	12742
666.744	12504
666.796	11257
666.849	11930
666.902	11802
666.955	11822
667.008	11457
667.060	11220
667.113	11957
667.166	12029
667.219	12597
667.271	12491
667.324	11911
667.377	11539
667.430	11720
667.482	11252
667.535	12309
667.587	11800
667.640	13749
667.693	15715
667.745	24339
667.798	24360
667.850	13552
667.903	11771
667.955	12173
668.008	12071
668.060	12727
668.113	11936
668.165	12050
668.218	10747
668.270	11326
668.322	11331
668.375	10962
668.427	11081
668.479	9799
668.532	11971
668.584	11206
668.636	9936
668.689	11613
668.741	11267
668.793	11302
668.845	11105
668.898	11182
668.950	11082
669.002	12182
669.054	10355
669.106	11092
669.158	10474
669.211	10179
669.263	10712
669.315	11220
669.367	11581
669.419	9567
669.471	10902
669.523	10586
669.575	10846
669.627	10607
669.679	9918
669.731	10050
669.783	10264
669.835	9931
669.886	10336
669.938	10993
669.990	10043
670.042	9864
670.094	9881
670.146	10500
670.197	9704
670.249	10267
670.301	9549
670.353	10563
670.404	10659
670.456	9795
670.508	10933
670.560	11548
670.611	11453
670.663	12702
670.715	19888
670.766	24774
670.818	13799
670.869	12491
670.921	12358
670.972	13830
671.024	12017
671.075	10838
671.127	12343
671.178	13653
671.230	14015
671.281	15704
671.333	18315
671.384	19923
671.436	28114
671.487	41034
671.538	58775
671.590	95103
671.641	157373
671.692	284216
671.744	517323
671.795	368710
671.846	139987
671.897	67612
671.949	42926
672.000	31172
672.051	23235
672.102	19904
672.153	16783
672.204	15649
672.256	14948
672.307	14033
672.358	12672
672.409	12134
672.460	11783
672.511	11695
672.562	10083
672.613	9856
672.664	9989
672.715	10032
672.766	9430
672.817	8694
672.868	8835
672.919	9406
672.970	8816
673.021	8780
673.071	7769
673.122	8594
673.173	7910
673.224	8633
673.275	8676
673.326	8681
673.376	8157
673.427	7781
673.478	8784
673.528	8867
673.579	8213
673.630	8590
673.680	8822
673.731	7558
673.782	7921
673.832	8448
673.883	8367
673.934	8164
673.984	8702
674.035	9079
674.085	8475
674.136	8684
674.186	8530
674.237	9205
674.287	9641
674.338	10425
674.388	10087
674.438	10340
674.489	10397
674.539	11540
674.589	10376
674.640	10721
674.690	9785
674.740	9911
674.791	9622
674.841	9678
674.891	8244
674.942	9587
674.992	8650
675.042	8236
675.092	7443
675.142	6951
675.193	7560
675.243	7825
675.293	8702
675.343	7687
675.393	8108
675.443	8828
675.493	7759
675.543	8048
675.593	8211
675.643	7956
675.693	8079
675.743	7509
675.793	7590
675.843	6520
675.893	6846
675.943	6432
675.993	7068
676.043	6342
676.093	6513
676.142	6887
676.192	7011
676.242	5982
676.292	6329
676.341	5953
676.391	6478
676.441	4876
676.491	6718
676.540	6179
676.590	5689
676.640	6431
676.689	6032
676.739	5648
676.789	5506
676.838	5881
676.888	5311
676.937	5834
676.987	6302
677.037	6249
677.086	5357
677.136	5579
677.185	5576
677.235	5682
677.284	6048
677.333	5894
677.383	5985
677.432	5599
677.482	5695
677.531	6272
677.580	5548
677.630	5650
677.679	5420
677.728	6136
677.778	5536
677.827	5560
677.876	5198
677.925	5862
677.975	6784
678.024	7297
678.073	6904
678.122	6891
678.171	7188
678.220	7976
678.269	9720
678.319	10848
678.368	12082
678.417	9457
678.466	8554
678.515	6914
678.564	5954
678.613	6294
678.662	5646
678.711	6152
678.760	6211
678.809	6557
678.857	6713
678.906	7749
678.955	6351
679.004	6693
679.053	7743
679.102	6816
679.151	6079
679.199	5296
679.248	5574
679.297	6311
679.346	5312
679.394	4597
679.443	4495
679.492	6002
679.540	5103
679.589	4749
679.638	5300
679.686	6673
679.735	7665
679.784	8313
679.832	11416
679.881	7974
679.929	6498
679.978	5469
680.026	5597
680.075	5887
680.123	5155
680.172	4886
680.220	5207
680.268	4680
680.317	4535
680.365	5241
680.414	4309
680.462	4958
680.510	5419
680.559	5709
680.607	4563
680.655	5265
680.703	5487
680.752	5541
680.800	5087
680.848	5026
680.896	4422
680.945	4826
680.993	5334
681.041	4436
681.089	4432
681.137	5018
681.185	4485
681.233	5600
681.258	4991
681.281	4382
681.329	4399
681.377	3980
681.380	4078
681.425	5282
681.473	5754
681.502	5538
681.521	5326
681.569	6143
681.617	5607
681.624	5623
681.665	5455
681.713	5693
681.745	5741
681.761	5724
681.809	5782
681.857	6249
681.867	6268
681.904	6193
681.952	5785
681.989	5890
682.000	5873
682.048	6264
682.096	6838
682.111	6526
682.143	5757
682.191	6367
682.233	6637
682.239	6646
682.286	6335
682.334	6136
682.354	6122
682.382	6016
682.430	6666
682.476	6732
682.477	6705
682.525	6020
682.572	6465
682.598	6731
682.620	6917
682.667	6640
682.715	6610
682.720	6725
682.763	7523
682.810	8728
682.841	8468
682.857	8225
682.905	6326
682.952	6696
682.963	6902
683.000	7513
683.047	7519
683.085	7665
683.095	7688
683.142	7250
683.190	7330
683.206	7267
683.237	7069
683.284	7292
683.328	7639
683.332	7640
683.379	7370
683.426	7024
683.449	7262
683.473	7505
683.521	7393
683.568	7876
683.571	7885
683.615	7592
683.662	8459
683.693	8180
683.709	7974
683.757	7465
683.804	8775
683.814	8597
683.851	7996
683.898	8908
683.936	9028
683.945	9032
683.992	8908
684.039	9858
684.057	10093
684.086	10418
684.133	10277
684.179	9554
684.180	9494
684.227	9323
684.274	10145
684.300	10249
684.321	10303
684.368	9463
684.415	9711
684.422	9645
684.462	8973
684.509	8985
684.543	9214
684.556	9358
684.603	9262
684.649	9469
684.665	9336
684.696	8991
684.743	9684
684.786	9655
684.790	9633
684.837	9442
684.883	9146
684.908	9576
684.930	9977
684.977	10363
685.023	10033
685.029	10051
685.070	10051
685.117	10094
685.150	9805
685.164	9679
685.210	10150
685.257	9965
685.272	10205
685.303	10820
685.350	11338
685.393	11933
685.396	11977
685.443	11920
685.490	14003
685.514	13579
685.536	12655
685.583	11928
685.629	11511
685.636	11456
685.675	11539
685.722	11603
685.757	11453
685.768	11390
685.815	11198
685.861	11247
685.878	11286
685.908	11247
685.954	10912
686.000	10864
686.000	10862
686.047	10888
686.093	11456
686.121	11737
686.139	11794
686.185	11463
686.232	11258
686.242	11145
686.278	10655
686.324	11484
686.363	11228
686.370	11190
686.416	11222
686.463	11334
686.484	11206
686.509	11035
686.555	11369
686.601	11014
686.606	10968
686.647	10604
686.693	11494
686.727	11011
686.739	10841
686.785	11242
686.831	11073
686.848	11059
686.877	10992
686.923	10683
686.969	11224
686.969	11227
687.015	11655
687.061	12494
687.090	12515
687.107	12374
687.153	12212
687.199	11606
687.211	11490
687.245	11366
687.291	11630
687.332	12562
687.336	12660
687.382	12257
687.428	12711
687.453	12581
687.474	12476
687.520	13477
687.565	13021
687.574	13179
687.611	14335
687.657	15178
687.695	16221
687.702	16587
687.748	19709
687.794	23711
687.816	23384
687.839	21057
687.885	18125
687.931	16030
687.937	15692
687.976	14937
688.022	14475
688.058	14155
688.067	14210
688.113	13953
688.158	13744
688.179	13436
688.204	13130
688.249	13494
688.295	13527
688.300	13584
688.340	14002
688.386	13811
688.421	13389
688.431	13360
688.477	13618
688.522	14963
688.542	14918
688.567	14848
688.613	15358
688.658	15558
688.663	15557
688.703	15063
688.749	14055
688.784	14366
688.794	14523
688.839	14314
688.884	14387
688.905	14226
688.930	14142
688.975	14012
689.020	14002
689.026	14054
689.065	14637
689.110	14305
689.146	14588
689.155	14663
689.201	14924
689.246	15182
689.267	15254
689.291	15085
689.336	14748
689.381	13982
689.388	13885
689.426	13947
689.471	14212
689.509	14880
689.516	14997
689.561	14472
689.606	15079
689.630	14872
689.651	14638
689.696	14543
689.741	14724
689.750	14657
689.785	14734
689.830	15246
689.871	14764
689.875	14679
689.920	14753
689.965	14259
689.992	13944
690.010	14027
690.054	14430
690.099	14832
690.112	14977
690.144	15238
690.189	14543
690.233	15115
690.233	15135
690.278	15047
690.323	15013
690.354	15094
690.367	15091
690.412	14722
690.457	14524
690.474	14456
690.501	14471
690.546	14319
690.590	14345
690.595	14259
690.635	13737
690.680	13986
690.716	13933
690.724	13946
690.769	14074
690.813	14307
690.836	14046
690.857	14075
690.902	14450
690.946	15001
690.957	15093
690.991	15179
691.035	15576
691.077	15501
691.080	15525
691.124	15374
691.168	15643
691.198	15888
691.213	15924
691.257	15498
691.301	15458
691.318	15340
691.346	15316
691.390	15168
691.434	15369
691.439	15366
691.478	15866
691.522	16013
691.559	16240
691.567	16411
691.611	17658
691.655	18338
691.680	18944
691.699	18645
691.743	18000
691.787	17109
691.800	16581
691.831	16057
691.875	16184
691.919	16322
691.921	16289
691.964	16091
692.008	16037
692.041	15897
692.052	15896
692.096	16076
692.139	15912
692.162	15962
692.183	15903
692.227	15544
692.271	15236
692.282	15056
692.315	15136
692.359	15737
692.402	16027
692.403	16055
692.447	16204
692.490	16289
692.523	16135
692.534	16105
692.578	16199
692.622	16010
692.643	15971
692.666	15981
692.709	15978
692.753	15892
692.763	15922
692.797	16282
692.840	16166
692.884	16437
692.884	16468
692.928	16380
692.971	16373
693.004	16182
693.015	16169
693.059	16194
693.102	16594
693.124	16412
693.146	16368
693.189	16410
693.233	16596
693.245	16647
693.276	17001
693.320	17728
693.363	17314
693.365	17298
693.407	17288
693.450	16966
693.485	16849
693.493	16879
693.537	16470
693.580	16464
693.605	16283
693.624	16229
693.667	16308
693.710	16104
693.725	16094
693.753	16149
693.797	15851
693.840	15796
693.845	15740
693.883	15833
693.926	16026
693.966	16235
693.970	16311
694.013	16720
694.056	16802
694.086	17144
694.099	17255
694.142	17123
694.185	17048
694.206	17116
694.229	17596
694.272	18137
694.315	18934
694.326	19038
694.358	20115
694.401	22022
694.444	23425
694.446	23456
694.487	23353
694.530	22752
694.566	22586
694.573	22420
694.616	21070
694.659	19354
694.686	18640
694.702	18746
694.745	18546
694.787	18269
694.806	18127
694.830	18201
694.873	18332
694.916	18235
694.926	18215
694.959	19031
695.002	20060
695.044	21006
695.046	21014
695.087	21527
695.130	21609
695.166	21848
695.172	21879
695.215	21378
695.258	21247
695.286	21048
695.301	21006
695.343	20531
695.386	20405
695.406	20125
695.428	20691
695.471	22150
695.514	23499
695.526	23795
695.556	25199
695.599	27406
695.641	28997
695.646	29147
695.684	27688
695.726	26107
695.766	24269
695.769	24277
695.811	23828
695.854	23204
695.886	22922
695.896	23152
695.938	23722
695.981	24271
696.005	24496
696.023	25022
696.065	26237
696.108	27481
696.125	27955
696.150	28285
696.192	28701
696.235	29181
696.245	29206
696.277	29141
696.319	28864
696.361	28765
696.365	28687
696.404	28480
696.446	28109
696.485	27922
696.488	27998
696.530	27930
696.572	27835
696.604	27731
696.614	27707
696.656	27398
696.698	27163
696.724	26941
696.740	27103
696.783	27249
696.825	27531
696.844	27514
696.867	27802
696.909	28343
696.951	28811
696.964	28955
696.992	29419
697.034	29616
697.076	30184
697.083	30188
697.118	30766
697.160	31353
697.202	31901
697.203	31841
697.244	31304
697.286	30810
697.323	30094
697.327	30211
697.369	30679
697.411	31249
697.442	31583
697.453	31833
697.494	32564
697.536	33206
697.562	33555
697.578	33745
697.620	33972
697.661	34390
697.682	34455
697.703	35470
697.744	37273
697.786	39239
697.801	39814
697.828	39654
697.869	39238
697.911	38825
697.921	38636
697.952	37078
697.994	34906
698.035	32730
698.040	32389
698.077	32970
698.118	33518
698.160	34088
698.160	34009
698.201	34488
698.243	34920
698.279	35202
698.284	35353
698.325	35988
698.367	36605
698.399	36991
698.408	37188
698.449	37698
698.491	38207
698.518	38431
698.532	38495
698.573	38459
698.614	38380
698.638	38249
698.656	38324
698.697	38302
698.738	38251
698.757	38139
698.779	38522
698.820	39076
698.862	39626
698.877	39737
698.903	39444
698.944	38813
698.985	38183
698.996	37916
699.026	37997
699.067	37980
699.116	37867
699.235	37418
699.354	37101
699.474	35430
699.593	35477
699.713	35713
699.832	37812
699.951	40987
700.070	38037
700.190	33772
700.309	33473
700.428	33677
700.547	32682
700.667	32469
700.786	33654
700.905	31019
701.024	33099
701.143	31513
701.262	33330
701.381	33953
701.500	37004
701.619	40035
701.738	35101
701.857	32531
701.976	31279
702.095	33977
702.214	37325
702.333	36726
702.452	36698
702.571	34340
702.690	32814
702.809	34014
702.928	32490
703.047	30316
703.165	30604
703.284	31114
703.403	30839
703.522	30495
703.640	29670
703.759	33671
703.878	32407
703.997	29780
704.115	30805
704.234	30713
704.353	31902
704.471	28373
704.590	27176
704.708	27148
704.827	26056
704.946	26969
705.064	27041
705.183	27015
705.301	27618
705.420	26876
705.538	26896
705.656	24498
705.775	24840
705.893	27890
706.012	26847
706.130	25231
706.249	25996
706.367	25254
706.485	26212
706.604	25032
706.722	28736
706.840	37222
706.958	51274
707.077	34580
707.195	24789
707.313	24216
707.431	21887
707.549	22061
707.668	21399
707.786	25347
707.904	23097
708.022	23841
708.140	22813
708.258	23706
708.376	26210
708.494	22658
708.612	25331
708.730	28541
708.848	27212
708.966	28731
709.084	27833
709.202	24794
709.320	22224
709.438	22710
709.556	22792
709.674	20474
709.791	20559
709.909	20344
710.027	20951
710.145	20846
710.263	20789
710.380	21396
710.498	19074
710.616	20628
710.733	19904
710.851	20145
710.969	20895
711.086	19849
711.204	20871
711.322	19683
711.439	20680
711.557	18728
711.674	19092
711.792	19404
711.909	19541
712.027	19167
712.144	18912
712.262	18656
712.379	20799
712.497	20536
712.614	19603
712.732	21319
712.849	20225
712.966	24665
713.084	32510
713.201	21817
713.318	23026
713.436	23261
713.553	23969
713.670	27087
713.787	25412
713.905	23242
714.022	25657
714.139	28407
714.256	41557
714.373	67486
714.490	139429
714.608	405395
714.725	1574180
714.842	1377027
714.959	150216
715.076	58140
715.193	39387
715.310	34666
715.427	25757
715.544	24944
715.661	24719
715.778	21084
715.895	22293
716.011	22077
716.128	21744
716.245	21575
716.362	30131
716.479	26817
716.596	18914
716.713	18899
716.829	16905
716.946	16467
717.063	17064
717.180	15660
717.296	15576
717.413	16462
717.530	17211
717.646	17574
717.763	16046
717.880	15044
717.996	16323
718.113	18139
718.229	17103
718.346	15211
718.462	18099
718.579	28076
718.695	59538
718.812	29346
718.928	17486
719.045	15439
719.161	16611
719.277	16482
719.394	17206
719.510	17313
719.626	21951
719.743	31225
719.859	57395
719.975	137150
720.092	585861
720.208	1168124
720.324	135740
720.440	35285
720.557	30695
720.673	45513
720.789	34821
720.905	23578
721.021	17318
721.137	15591
721.253	14769
721.369	14315
721.486	15220
721.602	15003
721.718	13665
721.834	13770
721.950	15071
722.066	14008
722.181	13319
722.297	15273
722.413	14312
722.529	12431
722.645	12678
722.761	12433
722.877	14028
722.993	17920
723.108	27617
723.224	20717
723.340	14496
723.456	13129
723.571	12625
723.687	11558
723.803	12011
723.918	14105
724.034	13409
724.150	11812
724.265	11716
724.381	12812
724.497	13754
724.612	10989
724.728	12083
724.843	10960
724.959	11736
725.074	13354
725.190	13437
725.305	10639
725.421	12011
725.536	10922
725.651	11594
725.767	10949
725.882	10280
725.997	11160
726.113	12924
726.228	10904
726.343	10656
726.459	10052
726.574	11741
726.689	10279
726.804	11267
726.920	10801
727.035	10336
727.150	10335
727.265	10157
727.380	10838
727.495	10697
727.610	9919
727.725	10529
727.841	10989
727.956	11657
728.071	11081
728.186	10185
728.301	10230
728.416	12668
728.531	11326
728.645	9813
728.760	12218
728.875	14434
728.990	11610
729.105	10859
729.220	13979
729.335	14401
729.449	11042
729.564	10299
729.679	9672
729.794	11106
729.908	10842
730.023	10894
730.138	11064
730.253	11899
730.367	11018
730.482	11368
730.596	12014
730.711	16074
730.826	19927
730.940	23391
731.055	16711
731.169	15629
731.284	14722
731.398	15640
731.513	17251
731.627	19129
731.742	23781
731.856	29201
731.970	33941
732.085	49196
732.199	76589
732.313	150424
732.428	414851
732.542	1125088
732.656	591972
732.771	113815
732.885	56094
732.999	42348
733.113	38791
733.227	34340
733.342	31597
733.456	30019
733.570	27609
733.684	26840
733.798	25519
733.912	25021
734.026	24144
734.140	25319
734.254	23863
734.368	24590
734.482	24742
734.596	23781
734.710	21500
734.824	21647
734.938	22691
735.052	23049
735.166	23126
735.280	21986
735.393	20790
735.507	22198
735.621	20270
735.735	20906
735.849	20729
735.962	19000
736.076	20283
736.190	19733
736.303	20698
736.417	21032
736.531	19386
736.644	19794
736.758	18346
736.872	18860
736.985	19325
737.099	18562
737.212	18434
737.326	17695
737.439	19464
737.553	18397
737.666	18737
737.780	17625
737.893	18351
738.007	18200
738.120	18490
738.233	17290
738.347	17271
738.460	17182
738.573	20515
738.687	19196
738.800	19840
738.913	25903
739.026	19217
739.140	17044
739.253	17040
739.366	15948
739.479	14907
739.592	16800
739.705	15478
739.818	16958
739.932	14748
740.045	17037
740.158	16266
740.271	16849
740.384	15902
740.497	14489
740.610	16243
740.723	15403
740.836	15713
740.949	17826
741.062	26303
741.174	19967
741.287	15224
741.400	15562
741.513	14541
741.626	15830
741.739	15015
741.851	15561
741.964	15719
742.077	14424
742.189	12784
742.302	14657
742.415	13524
742.527	13479
742.640	13484
742.753	12977
742.865	13741
742.978	13909
743.090	13626
743.203	14791
743.316	12476
743.428	13367
743.541	12828
743.653	11922
743.766	14524
743.878	13859
743.990	12666
744.103	15406
744.215	13893
744.327	14478
744.440	19541
744.552	28545
744.664	16097
744.777	15036
744.889	12970
745.001	12991
745.113	14399
745.226	11869
745.338	11828
745.450	14191
745.562	12217
745.674	12294
745.786	13533
745.898	12179
746.010	11717
746.122	12862
746.234	12837
746.347	12573
746.459	12166
746.570	10296
746.682	12974
746.794	13406
746.906	11873
747.018	11366
747.130	13029
747.242	11001
747.354	11585
747.466	11566
747.577	11075
747.689	11321
747.801	11803
747.913	10420
748.024	10792
748.136	11034
748.248	10070
748.359	11942
748.471	11295
748.583	10115
748.694	10258
748.806	12408
748.918	10210
749.029	11301
749.141	13231
749.252	13392
749.364	16747
749.475	31960
749.587	16119
749.698	10342
749.809	10699
749.921	10083
750.032	10244
750.144	9358
750.255	8813
750.366	10579
750.478	9425
750.589	9859
750.700	10576
750.811	11980
750.923	14739
751.034	36661
751.145	34306
751.256	10501
751.367	9125
751.479	9697
751.590	7955
751.701	9486
751.812	8680
751.923	8825
752.034	11573
752.145	10887
752.256	8917
752.367	8570
752.478	8646
752.589	9577
752.700	9678
752.811	8719
752.922	9447
753.032	13002
753.143	13261
753.254	9521
753.365	11412
753.476	11911
753.586	9296
753.697	8530
753.808	7816
753.919	8881
754.029	8130
754.140	8927
754.251	8009
754.361	8792
754.472	9639
754.582	9359
754.693	9130
754.804	10037
754.914	6807
755.025	7158
755.135	8036
755.246	8391
755.356	7236
755.466	7718
755.577	7542
755.687	8132
755.798	7210
755.908	8138
756.018	7719
756.129	8298
756.239	9337
756.349	9639
756.460	11562
756.570	12927
756.680	9796
756.790	9938
756.900	10798
757.011	7710
757.121	7414
757.231	8876
757.341	7232
757.451	7100
757.561	6961
757.671	8584
757.781	7730
757.891	7722
758.001	7567
758.111	8804
758.221	10840
758.331	14464
758.441	12927
758.551	19892
758.661	17409
758.771	12684
758.880	10608
758.990	10028
759.100	10125
759.210	10346
759.320	10537
759.429	11214
759.539	12490
759.649	14626
759.758	17374
759.868	18790
759.978	18343
760.087	20228
760.197	19906
760.307	19835
760.416	17527
760.526	15830
760.635	16274
760.745	18201
760.854	20295
760.964	24540
761.073	25231
761.182	21325
761.292	18548
761.401	14711
761.511	12117
761.620	11192
761.729	9391
761.839	9047
761.948	10230
762.057	11617
762.166	9628
762.276	7778
762.385	9469
762.494	9286
762.603	8256
762.712	8050
762.822	7467
762.931	7332
763.040	5823
763.149	6622
763.258	6955
763.367	6750
763.476	5550
763.585	6044
763.694	6396
763.803	5772
763.912	6416
764.021	6754
764.130	6132
764.238	7180
764.347	7332
764.456	8256
764.565	6755
764.674	5756
764.783	6056
764.891	5996
765.000	6794
765.109	6435
765.217	6157
765.326	7276
765.435	6495
765.543	6461
765.652	5569
765.761	5039
765.869	5620
765.978	6213
766.086	8256
766.195	7408
766.303	9456
766.412	22684
766.520	13962
766.629	5418
766.737	6230
766.846	5702
766.954	4055
767.062	6380
767.171	5736
767.279	7135
767.387	4976
767.496	5329
767.604	4435
767.712	5676
767.820	4760
767.928	5340
768.037	4865
768.145	5654
768.253	5627
768.361	4546
768.469	4305
768.577	4410
768.685	5577
768.793	5680
768.901	4706
769.009	5882
769.117	5564
769.225	5302
769.333	6095
769.441	6150
769.549	6338
769.657	5960
769.765	8494
769.873	14519
769.981	7174
770.088	5642
770.196	5847
770.304	6615
770.412	7093
770.519	7424
770.627	6691
770.735	7015
770.842	7193
770.950	7519
771.058	9769
771.165	9361
771.273	9974
771.380	11089
771.488	14800
771.595	15274
771.703	13283
771.810	13110
771.918	12964
772.025	17205
772.133	18336
772.240	16639
772.348	19778
772.455	18568
772.562	17002
772.670	16265
772.777	17633
772.884	16151
772.991	15380
773.099	17226
773.206	15653
773.313	16672
773.420	15398
773.528	15824
773.635	14021
773.742	16160
773.849	14485
773.956	16378
774.063	15096
774.170	15084
774.277	15702
774.384	15038
774.491	14374
774.598	15739
774.705	16361
774.812	19612
774.919	14919
775.026	14669
775.133	14813
775.239	15157
775.346	12891
775.453	13251
775.560	13146
775.667	14694
775.773	11988
775.880	12501
775.987	12329
776.093	13730
776.200	14633
776.307	11169
776.413	12512
776.520	15397
776.627	12354
776.733	11810
776.840	10052
776.946	15327
777.053	12219
777.159	12540
777.266	10308
777.372	12302
777.478	13199
777.585	12266
777.691	11032
777.798	14064
777.904	13423
778.010	19025
778.117	16079
778.223	11305
778.329	11145
778.435	10114
778.542	12966
778.648	10978
778.754	10110
778.860	11378
778.966	11015
779.072	10302
779.178	11091
779.284	10323
779.391	10513
779.497	10568
779.603	11643
779.708	8847
779.815	8863
779.920	11536
780.026	8776
780.132	10519
780.238	8735
780.344	9573
780.450	12955
780.556	7580
780.661	9642
780.767	11851
780.873	7847
780.979	8587
781.085	9504
781.190	8768
781.296	7859
781.402	10112
781.507	9399
781.613	7190
781.719	9411
781.824	10391
781.930	8908
782.035	9486
782.141	9661
782.246	7259
782.352	7643
782.457	8602
782.563	9421
782.668	8815
782.773	7412
782.879	7001
782.984	9843
783.090	10910
783.195	17659
783.300	12547
783.405	7793
783.511	6695
783.616	7836
783.721	7748
783.826	8305
783.932	7237
784.037	8147
784.142	8424
784.247	7308
784.352	8037
784.457	6528
784.562	8953
784.667	8779
784.772	5907
784.877	5192
784.982	9358
785.087	8208
785.192	6116
785.297	7068
785.402	8520
785.507	7866
785.611	7236
785.716	5713
785.821	7386
785.926	6909
786.031	6615
786.135	7462
786.240	7269
786.345	5613
786.450	6161
786.554	6605
786.659	6958
786.763	6168
786.868	7255
786.973	7258
787.077	6305
787.182	5231
787.286	7121
787.391	7681
787.495	4726
787.600	5700
787.704	6856
787.809	7116
787.913	5926
788.017	7809
788.122	6740
788.226	5363
788.330	4336
788.435	6004
788.539	7242
788.643	5096
788.747	5135
788.852	6184
788.956	5827
789.060	6787
789.164	6590
789.268	6096
789.372	6667
789.476	5310
789.580	5519
789.684	5106
789.788	7001
789.892	5701
789.996	5331
790.100	4778
790.204	6308
790.308	6659
790.412	4932
790.516	4345
790.620	5023
790.724	7496
790.828	5121
790.931	3694
791.035	5755
791.139	5256
791.242	5599
791.346	5094
791.450	5724
791.554	4531
791.657	3338
791.761	5068
791.864	6531
791.968	5577
792.072	5863
792.175	4334
792.279	4537
792.382	5169
792.486	3711
792.589	4524
792.693	5900
792.796	3845
792.899	5478
793.003	5228
793.106	4580
793.209	4979
793.313	5523
793.416	3139
793.519	6655
793.623	12263
793.726	17456
793.829	6586
793.932	4200
794.035	3388
794.138	7106
794.242	5739
794.345	4777
794.448	6511
794.551	12200
794.654	10620
794.757	6163
794.860	4901
794.963	4911
795.066	4340
795.169	5170
795.272	4500
795.375	5559
795.477	3559
795.580	4755
795.683	3397
795.786	6242
795.889	3784
795.991	5519
796.094	4571
796.197	4119
796.300	5040
796.402	5050
796.505	3751
796.608	3453
796.710	4549
796.813	5243
796.915	6819
797.018	5432
797.120	5319
797.223	3785
797.326	6117
797.428	4027
797.530	4265
797.633	5137
797.735	6603
797.838	6371
797.940	6152
798.042	4525
798.145	4291
798.247	4496
798.349	2977
798.452	5749
798.554	5295
798.656	6297
798.758	7830
798.860	6019
798.962	4327
799.065	4150
799.167	3006
799.269	5297
799.371	7256
799.473	10240
799.575	8133
799.677	5990
799.779	8294
799.881	12248
799.983	8560
800.085	4880
800.187	4277
800.289	3304
800.390	2688
800.492	5478
800.594	4468
800.696	2798
800.798	3499
800.899	4420
801.001	3827
801.103	5452
801.205	4014
801.306	5348
801.408	4563
801.509	4282
801.611	4024
801.713	3240
801.814	2938
801.916	3822
802.017	2344
802.119	2675
802.220	3020
802.322	2102
802.423	3825
802.525	1902
802.626	3382
802.727	4485
802.829	4944
802.930	2460
803.031	4929
803.133	3760
803.234	3889
803.335	4107
803.436	2408
803.538	3279
803.639	1825
803.740	3562
803.841	2728
803.942	3559
804.043	3678
804.144	3008
804.245	3800
804.346	3379
804.447	4376
804.548	7938
804.649	8890
804.750	3692
804.851	2772
804.952	3104
805.053	3562
805.154	2720
805.255	3642
805.355	3080
805.456	2693
805.557	2548
805.658	1654
805.758	3920
805.859	2954
805.960	3428
806.061	2539
806.161	2570
806.262	2692
806.362	1992
806.463	2165
806.564	4049
806.664	3218
806.765	2282
806.865	2481
806.966	2960
807.066	1966
807.166	3260
807.267	3184
807.367	2570
807.468	2570
807.568	1458
807.668	3683
807.769	3884
807.869	2732
807.969	2941
808.069	3178
808.170	2614
808.270	2985
808.370	4602
808.470	7544
808.570	4577
808.670	1885
808.770	2393
808.870	1634
808.970	3097
809.070	1126
809.170	2006
809.271	2872
809.370	2601
809.470	3010
809.570	1650
809.670	2696
809.770	2612
809.870	3267
809.970	2958
810.070	1728
810.169	3324
810.269	1204
810.369	2886
810.469	2626
810.568	2590
810.668	1750
810.768	2440
810.867	1889
810.967	1897
811.066	2019
811.166	2004
811.265	3385
811.365	2522
811.464	2133
811.564	3421
811.663	2972
811.763	1012
811.862	2715
811.962	3376
812.061	2991
812.160	2784
812.260	2518
812.359	2713
812.458	1418
812.557	3334
812.657	1792
812.756	3226
812.855	2246
812.954	2444
813.053	2977
813.153	2155
813.252	1279
813.351	2753
813.450	2526
813.549	2489
813.648	2427
813.747	2640
813.846	3014
813.945	2779
814.044	2926
814.143	2488
814.242	2863
814.341	2279
814.439	3744
814.538	4204
814.637	3142
814.736	3600
814.835	3681
814.933	3746
815.032	4572
815.131	6004
815.229	11479
815.328	14683
815.427	11189
815.525	10606
815.624	9365
815.722	8802
815.821	10080
815.919	10288
816.018	9483
816.116	10822
816.215	9836
816.313	11212
816.412	13180
816.510	13639
816.609	13580
816.707	15451
816.805	13673
816.904	13718
817.002	14805
817.100	16110
817.198	15228
817.296	14025
817.395	14289
817.493	14451
817.591	12769
817.689	12237
817.787	11312
817.885	11785
817.983	11170
818.081	12087
818.179	11141
818.277	12736
818.375	11150
818.473	10713
818.571	10418
818.669	10961
818.767	13022
818.865	10019
818.963	8940
819.061	10426
819.158	10120
819.256	12053
819.354	9492
819.452	11498
819.549	10255
819.647	12151
819.745	9028
819.842	10874
819.940	12051
820.038	9860
820.135	9063
820.233	11531
820.330	9300
820.428	9012
820.525	10789
820.623	8930
820.720	9568
820.818	10539
820.915	9291
821.012	9289
821.110	7615
821.207	9584
821.304	7681
821.402	9629
821.499	9758
821.596	8664
821.693	9208
821.791	11595
821.888	13338
821.985	23857
822.082	18340
822.179	10714
822.276	8885
822.373	7650
822.470	8210
822.567	9583
822.664	6672
822.761	9548
822.858	8618
822.955	8042
823.052	7357
823.149	8517
823.246	8904
823.343	6093
823.440	7316
823.536	8890
823.633	7800
823.730	7341
823.827	8275
823.923	7665
824.020	7308
824.117	8029
824.213	8413
824.310	7214
824.407	6398
824.503	9022
824.600	7650
824.696	6032
824.793	9964
824.889	8864
824.986	6963
825.082	4448
825.179	6447
825.275	9171
825.371	8410
825.468	6174
825.564	3953
825.660	8170
825.757	9447
825.853	7343
825.949	4911
826.045	6147
826.142	7061
826.238	8238
826.334	7214
826.430	6564
826.526	5319
826.622	5401
826.718	7932
826.814	7418
826.910	6742
827.006	3680
827.102	4933
827.198	7048
827.294	7361
827.390	8296
827.486	5728
827.582	4629
827.678	4742
827.774	9180
827.869	5045
827.965	6140
828.061	5081
828.157	7868
828.252	7460
828.348	5897
828.444	5625
828.539	5495
828.635	6393
828.731	6931
828.826	5318
828.922	6927
829.017	7807
829.113	8308
829.208	6803
829.304	8044
829.399	10357
829.495	7465
829.590	7032
829.685	5476
829.781	6646
829.876	7156
829.971	4164
830.066	4008
830.162	5625
830.257	8963
830.352	5360
830.447	6078
830.543	5593
830.638	6643
830.733	8820
830.828	6694
830.923	6415
831.018	6868
831.113	7276
831.208	5022
831.303	4916
831.398	4231
831.493	5051
831.588	8600
831.683	5042
831.778	4527
831.873	4987
831.967	7498
832.062	6958
832.157	5010
832.252	6229
832.346	5765
832.441	8592
832.536	9901
832.631	20792
832.725	15763
832.820	5954
832.914	5855
833.009	4502
833.104	6194
833.198	7506
833.293	6385
833.387	6808
833.482	6767
833.576	5113
833.670	7452
833.765	8197
833.859	9552
833.954	6609
834.048	5624
834.142	4491
834.237	3531
834.331	5885
834.425	5213
834.519	4324
834.613	5112
834.708	3907
834.802	4963
834.896	5327
834.990	4201
835.084	4517
835.178	4170
835.272	3987
835.366	6137
835.460	6350
835.554	4519
835.648	4412
835.742	3260
835.836	4140
835.930	4035
836.024	4455
836.117	4863
836.211	3985
836.305	4060
836.399	4267
836.493	3940
836.586	5101
836.680	4347
836.774	3164
836.867	3795
836.961	3639
837.055	3230
837.148	3188
837.242	3957
837.335	3590
837.429	3160
837.522	2466
837.616	3428
837.709	3273
837.803	3222
837.896	4399
837.989	4137
838.083	3189
838.176	2941
838.269	2414
838.363	5015
838.456	4542
838.549	8593
838.642	11663
838.735	20230
838.829	8986
838.922	3530
839.015	3562
839.108	2652
839.201	3829
839.294	3762
839.387	4014
839.480	2704
839.573	2541
839.666	2470
839.759	3001
839.852	2952
839.945	4155
840.038	3012
840.131	2857
840.223	3270
840.316	4077
840.409	3286
840.502	3571
840.594	4439
840.687	2104
840.780	2498
840.873	1635
840.965	3473
841.058	4150
841.150	4330
841.243	2531
841.336	2872
841.428	2436
841.521	3183
841.613	3047
841.706	3530
841.798	2671
841.890	3975
841.983	2301
842.075	3197
842.167	3245
842.260	3329
842.352	4107
842.444	3555
842.537	2925
842.629	3396
842.721	2702
842.813	2661
842.905	968
842.997	3223
843.090	3258
843.182	1899
843.274	1738
843.366	5168
843.458	5612
843.550	5508
843.642	2315
843.734	3242
843.826	2604
843.918	3370
844.009	3711
844.101	1824
844.193	2778
844.285	2772
844.377	3148
844.469	2954
844.560	1328
844.652	2509
844.744	2535
844.835	1906
844.927	2724
845.019	3741
845.110	2511
845.202	4043
845.293	2277
845.385	1374
845.476	2375
845.568	3332
845.659	3081
845.751	3020
845.842	2042
845.934	2293
846.025	2239
846.116	2948
846.208	2618
846.299	2235
846.390	2104
846.482	3184
846.573	4522
846.664	4765
846.755	6867
846.846	6412
846.937	1499
847.029	1984
847.120	2073
847.211	2129
847.302	3724
847.393	2841
847.484	3086
847.575	987
847.666	2143
847.757	2025
847.847	2376
847.938	3426
848.029	3505
848.120	2922
848.211	2037
848.302	1362
848.392	2018
848.483	3240
848.574	2303
848.664	3477
848.755	3063
848.846	2882
848.936	3150
849.027	3739
849.118	3999
849.208	5732
849.299	9330
849.389	16274
849.480	32399
849.570	67227
849.661	128132
849.751	201275
849.841	77681
849.932	14935
850.022	7178
850.112	5792
850.203	4709
850.293	3361
850.383	3678
850.474	3231
850.564	3053
850.654	2711
850.744	2213
850.834	2973
850.924	3185
851.014	3802
851.104	2919
851.194	3144
851.284	5143
851.374	5619
851.464	3973
851.554	2967
851.644	2578
851.734	4286
851.824	2358
851.914	3165
852.004	3487
852.094	2759
852.183	2630
852.273	2957
852.363	2932
852.452	4096
852.542	4476
852.632	2929
852.721	3620
852.811	3346
852.901	6124
852.990	5935
853.080	6606
853.169	6965
853.259	6861
853.348	8428
853.438	11397
853.527	15830
853.617	23479
853.706	39509
853.795	69681
853.885	132977
853.974	231685
854.063	394873
854.152	498851
854.242	250670
854.331	83487
854.420	38256
854.509	23849
854.598	17975
854.687	12928
854.777	10718
854.866	7641
854.955	7471
855.044	5816
855.133	5777
855.222	5382
855.311	4498
855.400	4106
855.488	3825
855.577	3135
855.666	3128
855.755	3581
855.844	3318
855.933	2438
856.021	3256
856.110	3324
856.199	2617
856.288	1622
856.376	2581
856.465	2019
856.554	2672
856.642	2470
856.731	3831
856.819	2666
856.908	2909
856.996	2662
857.085	2174
857.173	1983
857.262	2124
857.350	1837
857.438	1289
857.527	2063
857.615	2056
857.703	2710
857.792	2225
857.880	2188
857.968	2527
858.056	2686
858.145	3113
858.233	3244
858.321	1823
858.409	3100
858.497	2650
858.585	2207
858.673	1800
858.761	1468
858.849	1523
858.937	1689
859.025	2274
859.113	2912
859.201	2744
859.289	2673
859.377	2126
859.465	1847
859.552	2149
859.640	1849
859.728	2208
859.816	2794
859.903	2339
859.991	1043
860.079	3079
860.166	1865
860.254	2195
860.342	2393
860.429	2678
860.517	1912
860.604	2144
860.692	1840
860.779	1890
860.867	2479
860.954	2758
861.042	4437
861.129	5191
861.216	2703
861.304	2566
861.391	2273
861.478	2256
861.565	2439
861.653	3163
861.740	1771
861.827	1956
861.914	2851
862.001	2877
862.089	2984
862.176	3000
862.263	1884
862.350	2925
862.437	1911
862.524	2063
862.611	1800
862.698	2490
862.785	2481
862.871	4408
862.958	3065
863.045	2038
863.132	2695
863.219	2433
863.306	2122
863.392	2713
863.479	2665
863.566	3450
863.652	2905
863.739	2213
863.826	2876
863.912	3172
863.999	2732
864.086	3189
864.172	4159
864.259	4041
864.345	3503
864.432	4043
864.518	3529
864.604	4363
864.691	4654
864.777	5238
864.863	6509
864.950	7875
865.036	11601
865.122	18394
865.209	18510
865.295	16664
865.381	17262
865.467	17302
865.553	21992
865.639	28994
865.726	44296
865.812	79085
865.898	135039
865.984	202977
866.070	333097
866.156	328375
866.242	128172
866.328	47244
866.414	28086
866.499	21254
866.585	19079
866.671	16027
866.757	15616
866.843	14961
866.928	13057
867.014	12125
867.100	12859
867.186	12901
867.271	11858
867.357	14252
867.442	12280
867.528	11640
867.614	9746
867.699	10583
867.785	10407
867.870	10003
867.956	11296
868.041	10260
868.127	10729
868.212	10397
868.297	10563
868.383	12662
868.468	12875
868.553	17345
868.639	18992
868.724	31528
868.809	27912
868.894	12291
868.979	8688
869.065	9724
869.150	7889
869.235	9059
869.320	8693
869.405	8294
869.490	9252
869.575	8071
869.660	7533
869.745	10075
869.830	9281
869.915	8791
870.000	8372
870.085	8037
870.169	10653
870.254	10061
870.339	6256
870.424	7386
870.509	7906
870.593	10393
870.678	9635
870.763	7465
870.847	7696
870.932	9132
871.016	8122
871.101	6151
871.186	8081
871.270	9659
871.355	6391
871.439	6854
871.523	8265
871.608	6077
871.692	6672
871.777	8372
871.861	8155
871.945	7252
872.030	8370
872.114	7711
872.198	6817
872.282	6065
872.367	6435
872.451	7659
872.535	6719
872.619	6973
872.703	6325
872.787	8517
872.871	6539
872.955	5493
873.039	4613
873.123	6915
873.207	8132
873.291	5245
873.375	5306
873.459	7756
873.543	5814
873.627	5305
873.711	5490
873.794	8118
873.878	6428
873.962	4892
874.045	5117
874.129	6411
874.137	6354
874.213	5788
874.245	5409
874.296	4806
874.352	4949
874.380	5014
874.460	4807
874.464	4800
874.547	4796
874.568	5210
874.631	6419
874.676	6151
874.714	5930
874.784	6481
874.798	6589
874.881	5774
874.892	5627
874.965	4663
874.999	5388
875.048	6365
875.107	6115
875.131	6017
875.215	4805
875.215	4805
875.298	4602
875.323	5006
875.381	5992
875.430	7146
875.465	7927
875.538	5729
875.548	5424
875.631	4933
875.646	4731
875.714	3799
875.753	4213
875.798	4705
875.861	5241
875.881	5394
875.964	4932
875.968	4942
876.047	5229
876.076	5522
876.130	6094
876.183	6204
876.213	6254
876.291	7405
876.296	7464
876.379	5500
876.398	5243
876.462	4484
876.506	3987
876.545	3597
876.613	4372
876.628	4549
876.711	5061
876.721	5170
876.794	6136
876.828	6028
876.877	5568
876.935	4602
876.960	4328
877.043	4597
877.043	4600
877.125	5266
877.150	5624
877.208	6396
877.258	5049
877.291	4127
877.365	3510
877.374	3443
877.456	3800
877.472	3734
877.539	3699
877.579	4853
877.622	5936
877.687	5410
877.704	5246
877.787	5007
877.794	5025
877.869	5560
877.901	5440
877.952	4825
878.008	3886
878.034	3567
878.115	4310
878.117	4330
878.199	4261
878.222	4618
878.282	5452
878.329	5816
878.364	6052
878.437	5482
878.447	5316
878.529	3665
878.544	3509
878.611	3615
878.651	4316
878.694	5149
878.758	5228
878.776	5155
878.858	5559
878.865	5528
878.941	4572
878.972	4052
879.023	3788
879.078	4954
879.105	5611
879.185	6591
879.187	6596
879.269	6230
879.292	5976
879.351	5246
879.399	4495
879.433	3946
879.506	4421
879.516	4561
879.598	4144
879.613	4204
879.680	4278
879.720	4693
879.762	5015
879.827	4280
879.844	4074
879.926	4108
879.933	4118
880.007	4590
880.040	4446
880.089	4103
880.147	5055
880.171	5746
880.253	7455
880.254	7457
880.335	6562
880.360	6887
880.417	8830
880.467	10937
880.499	12215
880.574	14195
880.580	14130
880.662	8158
880.680	7233
880.744	4745
880.787	4306
880.825	4164
880.893	4364
880.907	4479
880.989	3641
881.000	3772
881.070	4901
881.106	4723
881.152	4169
881.213	4057
881.233	3989
881.315	3764
881.319	3758
881.396	4350
881.426	4409
881.478	4468
881.532	5324
881.559	5448
881.639	4323
881.641	4314
881.722	3918
881.745	4206
881.803	5145
881.852	5373
881.885	5270
881.958	4707
881.966	4698
882.047	6610
882.064	6580
882.129	6888
882.171	7791
882.210	10034
882.277	14390
882.291	14291
882.372	9600
882.383	9186
882.454	6862
882.489	5978
882.535	5599
882.596	4884
882.616	4807
882.697	4415
882.702	4393
882.778	3561
882.808	3352
882.859	3362
882.914	3471
882.940	3707
883.020	4608
883.021	4615
883.102	4873
883.127	4905
883.183	5424
883.233	5431
883.264	4813
883.339	3752
883.345	3736
883.426	3028
883.445	3200
883.507	4250
883.551	4623
883.587	5104
883.657	6192
883.668	6393
883.749	7100
883.763	7168
883.830	5110
883.869	4089
883.910	3745
883.975	3516
883.991	3733
884.072	4339
884.081	4476
884.152	5356
884.187	5642
884.233	6107
884.292	6116
884.314	5550
884.394	3499
884.398	3419
884.475	2717
884.504	2425
884.555	2816
884.610	3147
884.636	3456
884.716	4558
884.716	4570
884.797	5766
884.821	5885
884.877	5233
884.927	4738
884.958	4439
885.033	3748
885.038	3711
885.118	2920
885.139	2825
885.199	3378
885.244	3854
885.279	4208
885.350	4783
885.359	4900
885.439	5825
885.456	5868
885.520	4953
885.561	4625
885.600	4164
885.667	3409
885.680	3517
885.760	4062
885.773	4165
885.840	3412
885.878	2972
885.920	3329
885.984	3813
886.000	3935
886.080	4566
886.089	4634
886.160	4424
886.195	4227
886.240	4429
886.300	4734
886.320	4922
886.400	5864
886.406	5901
886.480	5393
886.511	5291
886.560	6432
886.616	7319
886.640	6788
886.720	5214
886.722	5168
886.800	4543
886.827	4313
886.879	4426
886.932	4475
886.959	4801
887.038	5879
887.039	5872
887.119	4399
887.143	3983
887.198	4224
887.248	4498
887.278	4688
887.354	4933
887.358	4910
887.437	4315
887.459	4192
887.517	4376
887.564	4329
887.596	4104
887.669	3701
887.676	3661
887.755	3223
887.774	3110
887.835	3361
887.880	3529
887.914	3764
887.985	4109
887.994	4199
888.073	5236
888.090	5355
888.153	5921
888.195	6365
888.232	5566
888.300	4219
888.311	4245
888.391	4228
888.405	4238
888.470	3895
888.510	3581
888.549	3514
888.615	3646
888.628	3848
888.708	4878
888.720	5024
888.787	5250
888.825	5369
888.866	4442
888.930	3036
888.945	3230
889.024	4282
889.035	4411
889.103	4957
889.140	5215
889.182	4671
889.245	3898
889.261	3936
889.340	4113
889.349	4124
889.419	4034
889.454	3988
889.498	3961
889.559	3932
889.577	4130
889.656	4974
889.664	5052
889.735	4843
889.768	4729
889.814	4637
889.873	4491
889.978	5328
890.083	3891
890.187	4133
890.292	4562
890.397	4431
890.501	3517
890.606	3308
890.710	4351
890.815	5234
890.919	4557
891.024	3990
891.128	4315
891.233	3729
891.337	5253
891.442	4191
891.546	4429
891.650	2597
891.755	3463
891.859	5383
891.963	5498
892.068	3826
892.172	2910
892.276	3593
892.380	3130
892.484	4639
892.589	5521
892.693	3989
892.797	3753
892.901	3477
893.005	3455
893.109	5390
893.213	5106
893.317	4192
893.421	2718
893.525	3281
893.629	2502
893.733	4077
893.837	4177
893.941	4063
894.045	3709
894.148	3407
894.252	3782
894.356	5296
894.460	6984
894.564	3842
894.667	4685
894.771	3310
894.875	2631
894.978	2426
895.082	3129
895.186	4399
895.289	3795
895.393	3354
895.496	4634
895.600	2896
895.703	2455
895.807	4164
895.910	4719
896.014	3964
896.117	3375
896.221	4106
896.324	4103
896.427	3547
896.531	3230
896.634	4214
896.737	3390
896.840	4179
896.944	4784
897.047	4749
897.150	4528
897.253	3636
897.356	3772
897.460	3533
897.563	3690
897.666	4374
897.769	4256
897.872	2998
897.975	3668
898.078	3177
898.181	2878
898.284	3066
898.387	4834
898.490	5122
898.593	4530
898.695	3109
898.798	2969
898.901	2666
899.004	3016
899.107	3034
899.209	3651
899.312	5270
899.415	4048
899.518	3039
899.620	3226
899.723	3808
899.826	8713
899.928	12177
900.031	5080
900.133	5125
900.236	3759
900.338	2346
900.441	3415
900.543	4023
900.646	3266
900.748	3335
900.851	4571
900.953	3898
901.055	3432
901.158	4917
901.260	4102
901.362	2380
901.465	2172
901.567	3279
901.669	4385
901.771	3045
901.873	2731
901.976	3493
902.078	3057
902.180	3154
902.282	2717
902.384	3315
902.486	4577
902.588	4809
902.690	2413
902.792	2949
902.894	3435
902.996	3743
903.098	3087
903.200	2863
903.302	2854
903.404	2343
903.505	2203
903.607	2991
903.709	4094
903.811	4030
903.913	3626
904.014	2930
904.116	2635
904.218	2341
904.319	2519
904.421	5058
904.523	3483
904.624	2507
904.726	3106
904.827	2295
904.929	2571
905.030	2949
905.132	4603
905.233	3533
905.335	3187
905.436	2605
905.537	1828
905.639	3191
905.740	2273
905.841	3412
905.943	3908
906.044	3242
906.145	3410
906.247	2563
906.348	3528
906.449	3230
906.550	4206
906.651	2404
906.752	3019
906.854	3119
906.955	3235
907.056	3785
907.157	3867
907.258	4252
907.359	3065
907.460	2587
907.561	1863
907.662	2599
907.762	3190
907.863	4337
907.964	3969
908.065	2589
908.166	2954
908.267	3544
908.367	2245
908.468	1868
908.569	4509
908.670	5253
908.770	6512
908.871	6127
908.971	5476
909.072	3484
909.173	3346
909.273	2635
909.374	4689
909.474	3490
909.575	3759
909.675	3273
909.776	4182
909.876	3323
909.977	3994
910.077	4447
910.177	4613
910.278	3226
910.378	3150
910.478	3356
910.579	4771
910.679	4553
910.779	3772
910.879	3879
910.980	3511
911.080	4045
911.180	2900
911.280	3047
911.380	2874
911.480	3046
911.580	3436
911.680	4045
911.780	5735
911.880	5883
911.980	3257
912.080	3673
912.180	3798
912.280	3118
912.380	3389
912.480	2773
912.580	2672
912.679	3140
912.779	4154
912.879	2386
912.979	3517
913.078	3245
913.178	3153
913.278	3976
913.377	3306
913.477	2417
913.577	3024
913.676	4171
913.776	4634
913.875	3576
913.975	4506
914.074	2856
914.174	2697
914.273	2789
914.373	3890
914.472	2940
914.572	2605
914.671	3678
914.770	3431
914.870	3290
914.969	2938
915.068	2851
915.167	4184
915.267	2614
915.366	3334
915.465	2700
915.564	4162
915.663	4071
915.763	3757
915.862	4022
915.961	3960
916.060	2523
916.159	2312
916.258	2311
916.357	3790
916.456	3300
916.555	3921
916.654	3466
916.752	4129
916.851	3939
916.950	2714
917.049	2388
917.148	2387
917.247	3297
917.345	2789
917.444	2553
917.543	3094
917.642	2819
917.740	4143
917.839	4730
917.937	4110
918.036	3715
918.135	2966
918.233	2455
918.332	3545
918.430	2234
918.529	3928
918.627	3557
918.726	3747
918.824	3795
918.923	3196
919.021	3315
919.119	3355
919.218	2974
919.316	3271
919.414	3942
919.512	4592
919.611	4459
919.709	3468
919.807	4377
919.905	5709
920.003	3807
920.102	4918
920.200	4103
920.298	4961
920.396	4648
920.494	3929
920.592	3629
920.690	4836
920.788	3439
920.886	5376
920.984	5262
921.082	5226
921.180	5325
921.277	5777
921.375	6169
921.473	7639
921.571	7088
921.669	7039
921.766	6629
921.864	6977
921.962	7152
922.060	7057
922.157	6118
922.255	7382
922.352	7125
922.450	7395
922.548	6793
922.645	9075
922.743	11107
922.840	16185
922.938	17873
923.035	15088
923.133	15675
923.230	17570
923.327	21372
923.425	18768
923.522	18838
923.619	17241
923.717	15502
923.814	15779
923.911	15361
924.008	16654
924.106	14280
924.203	15229
924.300	16290
924.397	15623
924.494	15251
924.591	15304
924.688	15480
924.786	15271
924.883	14843
924.979	15213
925.077	15367
925.173	13884
925.270	13773
925.367	15192
925.464	14883
925.561	16230
925.658	17141
925.755	14250
925.852	17289
925.948	15600
926.045	14857
926.142	14505
926.239	15624
926.335	12487
926.432	15141
926.529	14250
926.625	15937
926.722	12915
926.818	13514
926.915	15081
927.011	13796
927.108	13186
927.204	13221
927.301	12506
927.397	14513
927.494	14856
927.590	11674
927.687	10978
927.783	15966
927.879	15872
927.976	13472
928.072	12280
928.168	13342
928.264	13283
928.361	11995
928.457	15129
928.553	12467
928.649	13093
928.745	13469
928.841	11089
928.937	12103
929.033	12945
929.129	11432
929.225	14057
929.321	11801
929.417	10947
929.513	13970
929.609	11520
929.705	10745
929.801	13890
929.897	10629
929.993	11603
930.089	12409
930.184	10729
930.280	11971
930.376	14738
930.471	11002
930.567	9820
930.663	11125
930.758	10511
930.854	11015
930.950	11259
931.045	10167
931.141	10031
931.236	12992
931.332	11549
931.427	8949
931.523	13392
931.618	12000
931.714	8562
931.809	9353
931.905	12403
932.000	9152
932.095	8501
932.191	13086
932.286	13337
932.381	11717
932.476	9000
932.572	10388
932.667	8640
932.762	9154
932.857	10980
932.952	12030
933.047	10053
933.142	9145
933.237	10025
933.332	11524
933.427	11681
933.522	10941
933.617	8563
933.712	9608
933.807	11152
933.902	12438
933.997	11804
934.092	9335
934.187	9141
934.282	10576
934.376	9852
934.471	11241
934.566	9481
934.661	8850
934.755	10684
934.850	11051
934.945	9779
935.039	8951
935.134	7636
935.228	9328
935.323	13396
935.417	8602
935.512	6327
935.606	7951
935.701	9638
935.795	11116
935.890	9430
935.984	8504
936.079	6329
936.173	9472
936.267	9040
936.362	7583
936.456	8896
936.550	12777
936.644	9624
936.738	7211
936.833	8728
936.927	6171
937.021	7714
937.115	9172
937.209	10292
937.303	8742
937.397	6866
937.491	8189
937.585	9122
937.679	9296
937.773	7755
937.867	6778
937.961	7320
938.055	10723
938.149	9908
938.243	6337
938.337	5567
938.430	7715
938.524	9379
938.618	8290
938.712	7368
938.805	7158
938.899	9036
938.993	10568
939.086	6718
939.180	5383
939.274	6564
939.367	8507
939.461	9703
939.554	7748
939.648	6823
939.741	6855
939.835	7387
939.928	10347
940.022	9185
940.115	7055
940.208	8681
940.302	10128
940.395	10383
940.488	6836
940.582	6643
940.675	5700
940.768	6878
940.861	8392
940.954	9947
941.048	6119
941.141	5981
941.234	6876
941.327	6849
941.420	7942
941.513	8613
941.606	7061
941.699	6823
941.792	8807
941.885	8268
941.978	7575
942.071	8069
942.164	6237
942.257	5817
942.349	6694
942.442	8045
942.535	5310
942.628	5338
942.721	6708
942.813	6249
942.906	7866
942.999	7090
943.091	5174
943.184	5776
943.277	6440
943.369	5357
943.462	4124
943.554	6458
943.647	6495
943.739	6982
943.832	7935
943.924	4410
944.017	4335
944.109	5409
944.201	5698
944.294	6131
944.386	6158
944.478	6103
944.571	4970
944.663	6019
944.755	5786
944.847	6680
944.940	6165
945.032	4445
945.124	4690
945.216	6943
945.308	6623
945.400	6914
945.492	5019
945.584	7465
945.676	6953
945.768	5209
945.860	7434
945.952	8120
946.044	5998
946.136	5755
946.228	5485
946.320	5525
946.412	5972
946.503	6518
946.595	7632
946.687	5670
946.779	3660
946.870	4713
946.962	5171
947.054	5382
947.145	6513
947.237	5205
947.329	5299
947.420	5787
947.512	4871
947.603	4213
947.695	3710
947.786	4777
947.878	4520
947.969	5850
948.061	5736
948.152	5662
948.243	3542
948.335	4552
948.426	3842
948.517	5458
948.609	6326
948.700	5393
948.791	4899
948.882	3634
948.973	4406
949.065	4671
949.156	5165
949.247	3005
949.338	4342
949.429	3193
949.520	4269
949.611	5093
949.702	5480
949.793	4155
949.884	4622
949.975	4591
950.066	3012
950.157	4047
950.247	3941
950.338	4107
950.429	3177
950.520	4219
950.611	3615
950.701	4142
950.792	6408
950.883	5061
950.973	4578
951.064	5347
951.155	5828
951.245	5408
951.336	5722
951.427	5449
951.517	6707
951.608	4878
951.698	3546
951.788	3217
951.879	3602
951.969	4092
952.060	3950
952.150	4632
952.240	6419
952.331	4358
952.421	4883
952.511	2615
952.602	2833
952.692	2738
952.782	3638
952.872	3659
952.962	4811
953.052	3844
953.143	3554
953.233	4347
953.323	4366
953.413	4224
953.503	5616
953.593	4653
953.683	4104
953.773	2989
953.863	3215
953.953	3459
954.042	4558
954.132	4779
954.222	5268
954.312	4123
954.402	4094
954.492	4067
954.581	4268
954.671	4352
954.761	3028
954.850	4953
954.940	2962
955.030	2441
955.119	2992
955.209	4109
955.298	3997
955.388	4515
955.477	5064
955.567	2670
955.656	3731
955.746	3520
955.835	3575
955.925	2826
956.014	3922
956.103	4323
956.193	5308
956.282	4550
956.371	3552
956.461	2714
956.550	3560
956.639	3425
956.728	3768
956.817	3810
956.906	3615
956.995	5992
957.085	3008
957.174	3306
957.263	3423
957.352	3590
957.441	3660
957.530	3844
957.619	3257
957.708	2639
957.796	3084
957.885	3592
957.974	3499
958.063	4469
958.152	2077
958.241	2241
958.329	2108
958.418	2045
958.507	3351
958.596	4710
958.684	3027
958.773	3193
958.861	3021
958.950	2835
959.039	1601
959.127	3216
959.216	3994
959.304	2417
959.393	2825
959.481	4604
959.570	2838
959.658	2246
959.746	2383
959.835	3408
959.923	3303
960.011	2758
960.100	3386
960.188	3493
960.276	2812
960.365	3163
960.453	2779
960.541	1929
960.629	2471
960.717	2479
960.805	1580
960.893	2719
960.981	2953
961.069	4718
961.158	3960
961.245	5263
961.333	4212
961.421	3119
961.509	3576
961.597	3550
961.685	2196
961.773	3651
961.861	2554
961.949	3994
962.036	2455
962.124	3193
962.212	2657
962.299	2732
962.387	2405
962.475	3404
962.562	2705
962.650	4621
962.738	3266
962.825	2159
962.913	2791
963.000	2883
963.088	3454
963.175	2993
963.263	2123
963.350	2898
963.438	2788
963.525	2293
963.612	3648
963.700	4248
963.787	7479
963.874	4319
963.962	2561
964.049	2402
964.136	2760
964.223	1590
964.310	2545
964.398	3112
964.485	2562
964.572	2957
964.659	4273
964.746	3413
964.833	2425
964.920	2044
965.007	2604
965.094	2101
965.181	3585
965.268	3517
965.355	2942
965.441	3507
965.528	2101
965.615	4079
965.702	3035
965.789	2554
965.875	4004
965.962	3860
966.049	2136
966.136	4246
966.222	4474
966.309	4981
966.395	3965
966.482	4293
966.569	3490
966.655	3282
966.742	3129
966.828	2062
966.915	2668
967.001	3605
967.087	2138
967.174	2034
967.260	3266
967.347	3619
967.433	4767
967.519	5384
967.605	4643
967.692	3378
967.778	2380
967.864	2226
967.950	2055
968.036	2291
968.123	2317
968.209	2788
968.295	1588
968.381	4090
968.467	2496
968.553	1388
968.639	3075
968.725	3599
968.811	6137
968.897	5453
968.983	2317
969.069	1615
969.154	2712
969.240	1986
969.326	2352
969.412	2637
969.497	2367
969.583	1892
969.669	3649
969.755	3646
969.840	3208
969.926	5252
970.012	6430
970.097	10644
970.183	9268
970.268	4656
970.354	3717
970.439	2343
970.525	5250
970.610	2714
970.696	4216
970.781	2381
970.866	1463
970.952	2393
971.037	1518
971.122	2584
971.208	3204
971.293	3082
971.378	1456
971.463	2191
971.549	2769
971.634	2370
971.719	2471
971.804	2792
971.889	2799
971.974	1477
972.059	2095
972.144	2909
972.229	2388
972.314	1850
972.399	3109
972.484	2026
972.569	2132
972.654	2180
972.739	3074
972.824	2552
972.908	1832
972.993	1782
973.078	1718
973.163	2439
973.247	2265
973.332	1064
973.417	2918
973.501	1423
973.586	3253
973.671	2970
973.755	3740
973.840	4251
973.924	4336
974.009	3831
974.093	4228
974.178	3894
974.262	4123
974.346	3165
974.431	2623
974.515	1842
974.600	3431
974.684	3693
974.768	2177
974.852	2753
974.937	2063
975.021	3924
975.105	2224
975.189	2177
975.273	2662
975.358	2233
975.442	1696
975.526	3413
975.610	1820
975.694	1763
975.778	3199
975.862	2522
975.946	1066
976.030	3539
976.114	1331
976.198	2568
976.281	2808
976.365	2976
976.449	2367
976.533	2583
976.617	1808
976.700	2385
976.784	1141
976.868	1712
976.951	2524
977.035	1983
977.119	2029
977.202	2128
977.286	2454
977.369	3998
977.453	5788
977.536	5046
977.620	2789
977.703	3971
977.787	2140
977.870	3811
977.953	4038
978.037	2167
978.120	3260
978.203	2598
978.287	3968
978.370	3830
978.453	2105
978.536	2051
978.620	3427
978.703	3179
978.786	2136
978.869	1615
978.952	1598
979.035	2853
979.118	3310
979.201	1612
979.284	2289
979.367	2401
979.450	2278
979.533	2058
979.616	2031
979.699	1723
979.782	2994
979.865	2426
979.948	2332
980.030	1299
980.113	2436
980.196	2103
980.279	2862
980.361	1870
980.444	2866
980.526	3169
980.609	4490
980.692	5713
980.774	4828
980.857	2466
980.939	3382
981.022	3417
981.104	3071
981.187	3108
981.269	3135
981.352	3406
981.434	2247
981.516	2772
981.599	3449
981.681	2588
981.763	2360
981.846	2278
981.928	2475
982.010	1828
982.092	1886
982.174	3211
982.256	3404
982.339	2574
982.421	2647
982.503	2814
982.585	1806
982.667	2321
982.749	3334
982.831	3150
982.913	1694
982.995	4541
983.077	2077
983.158	4444
983.240	2376
983.322	3398
983.404	7066
983.486	5142
983.568	4917
983.649	3260
983.731	3734
983.813	3277
983.894	3785
983.976	3219
984.058	3735
984.139	3965
984.221	2271
984.302	4003
984.384	2779
984.465	2249
984.547	3759
984.628	2379
984.710	4268
984.791	3410
984.872	3086
984.954	3463
985.035	3424
985.116	2668
985.198	2289
985.279	5065
985.360	3508
985.441	2911
985.522	4219
985.604	3467
985.685	2206
985.766	4764
985.847	4611
985.928	3051
986.009	3987
986.090	3627
986.171	4757
986.252	3369
986.333	3401
986.414	2467
986.495	3898
986.576	3352
986.656	4076
986.737	5028
986.818	4217
986.899	3805
986.980	3789
987.060	3434
987.141	3921
987.222	5329
987.302	5581
987.383	5320
987.464	4486
987.544	5670
987.625	4673
987.705	6014
987.786	6502
987.866	3833
987.947	4519
988.027	4757
988.108	3645
988.188	4409
988.268	3630
988.349	4738
988.429	4162
988.509	4059
988.589	3672
988.670	3062
988.750	5462
988.830	3682
988.910	5551
988.990	4695
989.070	4140
989.151	4908
989.231	4344
989.311	4266
989.391	3736
989.471	3205
989.551	3959
989.631	4509
989.711	4394
989.791	3696
989.870	3067
989.950	4201
990.030	3086
990.110	4448
990.190	2736
990.269	3366
990.349	3759
990.429	4355
990.509	4242
990.588	2345
990.668	3314
990.747	3298
990.827	2229
990.907	3942
990.986	3410
991.066	3243
991.145	2673
991.225	3872
991.304	2998
991.383	3166
991.463	3316
991.542	3912
991.622	2297
991.701	2522
991.780	2101
991.859	2510
991.939	1990
992.018	2627
992.097	3502
992.176	2712
992.256	2479
992.335	3207
992.414	3716
992.493	2263
992.572	1887
992.651	3705
992.730	2537
992.809	1979
992.888	1816
992.967	3195
993.046	2686
993.125	998
993.203	2083
993.282	2871
993.361	2526
993.440	2605
993.519	1884
993.597	2280
993.676	1541
993.755	2985
993.834	1827
993.912	1343
993.991	2265
994.069	1698
994.148	1711
994.226	1641
994.305	1235
994.384	1010
994.462	3053
994.540	649
994.619	1578
994.697	2747
994.776	2234
994.854	2319
994.932	1387
995.011	1860
995.089	819
995.167	1185
995.245	1378
995.324	945
995.402	1835
995.480	1608
995.558	1690
995.636	1631
995.714	1177
995.792	2916
995.870	893
995.948	777
996.026	1250
996.104	1160
996.182	1827
996.260	661
996.338	1179
996.416	1057
996.494	1404
996.572	1854
996.649	1441
996.727	761
996.805	2479
996.883	1655
996.960	1833
997.038	1793
997.116	1723
997.193	875
997.271	972
997.348	305
997.426	1458
997.504	1073
997.581	1809
997.658	2319
997.736	-99
997.813	-288
997.891	1149
997.968	686
998.046	1216
998.123	451
998.200	2208
998.277	1446
998.355	919
998.432	-200
998.509	120
998.586	1343
998.663	1221
998.741	145
998.818	193
998.895	343
998.972	1578
999.049	1021
999.126	818
999.203	838
999.280	411
999.357	812
999.434	801
999.511	1142
999.587	1393
999.664	-340
999.741	827
999.818	699
999.895	257
999.971	-171
1000.048	297
1000.125	1293
1000.202	543
1000.278	1367
1000.355	722
1000.431	-70
1000.508	-159
1000.584	191
1000.661	370
1000.738	-561
1000.814	758
1000.890	689
1000.967	639
1001.043	1737
1001.120	-346
1001.196	828
1001.272	-374
1001.349	142
1001.425	1066
1001.501	815
1001.577	684
1001.654	579
1001.730	-383
1001.806	105
1001.882	-411
1001.958	991
1002.034	970
1002.110	-80
1002.186	-27
1002.262	-184
1002.338	303
1002.414	1313
1002.490	688
1002.566	-22
1002.642	-373
1002.718	686
1002.794	-16
1002.870	90
1002.945	90
1003.021	253
1003.097	-629
1003.173	464
1003.248	-1051
1003.324	-24
1003.400	109
1003.475	-664
1003.551	57
1003.626	19
1003.702	-906
1003.777	-938
1003.853	-725
1003.928	-497
1004.004	-406
1004.079	787
1004.155	885
1004.230	-596
1004.305	1029
1004.381	-143
1004.456	-459
1004.531	52
1004.607	-469
1004.682	-122
1004.757	-312
1004.832	-297
1004.907	-793
1004.982	18
1005.057	-478
1005.133	-914
1005.208	-844
1005.283	-597
1005.358	133
1005.433	-388
1005.508	549
1005.583	-260
1005.657	59
1005.732	-153
1005.807	-937
1005.882	-1163
1005.957	-699
1006.032	795
1006.106	-604
1006.181	-126
1006.256	-733
1006.331	-1044
1006.405	-1793
1006.480	99
1006.554	-828
1006.629	381
1006.704	-456
1006.778	-98
1006.853	-373
1006.927	-388
1007.002	-692
1007.076	-839
1007.150	-451
1007.225	140
1007.299	56
1007.373	-859
1007.448	-302
1007.522	743
1007.596	-531
1007.671	-259
1007.745	-540
1007.819	-1620
1007.893	-687
1007.967	-701
1008.041	-1186
1008.115	455
1008.190	-645
1008.264	231
1008.338	-962
1008.412	-1693
1008.486	-877
1008.560	-757
1008.633	-985
1008.707	-607
1008.781	-28
1008.855	-661
1008.929	-588
1009.003	-977
1009.076	-1939
1009.150	-780
1009.224	-529
1009.298	-850
1009.371	-770
1009.445	-74
1009.519	-397
1009.592	-1238
1009.666	-1279
1009.739	-317
1009.813	-1303
1009.886	-708
1009.960	-1344
1010.033	-1133
1010.107	-551
1010.180	-1298
1010.253	-1149
1010.327	-1445
1010.400	-1214
1010.473	-759
1010.547	-92
1010.620	-714
1010.693	-839
1010.766	-1437
1010.840	-1177
1010.913	-1066
1010.986	-1559
1011.059	-1200
1011.132	-1712
1011.205	-673
1011.278	-1582
1011.351	-1745
1011.424	-570
1011.497	-1370
1011.570	-614
1011.643	-1049
1011.716	-1268
1011.789	-353
1011.862	-419
1011.934	-833
1012.007	-1933
1012.080	-245
1012.153	-838
1012.225	45
1012.298	-1785
1012.371	-1428
1012.443	-642
1012.516	-2136
1012.588	-909
1012.661	-748
1012.733	-877
1012.806	259
1012.879	-1665
1012.951	-996
1013.023	-254
1013.096	-689
1013.168	-1100
1013.241	-104
1013.313	-1297
1013.385	-1062
1013.458	-1105
1013.530	-954
1013.602	-1691
1013.674	-327
1013.746	-1414
1013.819	-1853
1013.891	-381
1013.963	-1301
1014.035	-1858
1014.107	-1310
1014.179	-1446
1014.251	-1317
1014.323	-782
1014.395	-193
1014.467	-1326
1014.539	-1574
1014.611	-1380
1014.683	-1371
1014.754	-893
1014.826	-1315
1014.898	-1619
1014.970	-1589
1015.042	12
1015.113	-1312
1015.185	-1250
1015.257	-2011
1015.328	-1125
1015.400	-821
1015.471	-2073
1015.543	-2174
1015.615	-1318
1015.686	-1392
1015.757	-2172
1015.829	-1550
1015.901	-1313
1015.972	-1764
1016.043	-1312
1016.115	-643
1016.186	-1496
1016.257	-1388
1016.328	-1184
1016.400	-266
1016.471	-1443
1016.542	-991
1016.613	-1682
1016.685	-1388
1016.756	-1402
1016.827	-1036
1016.898	-1882
1016.969	-1290
1017.040	-915
1017.111	-2288
1017.182	-2222
1017.253	-960
1017.324	-1599
1017.395	-1715
1017.466	-1736
1017.537	-1503
1017.608	-2031
1017.678	-1497
1017.749	-1255
1017.820	-1107
1017.891	-2000
1017.961	-1573
1018.032	-758
1018.103	-1352
1018.173	-1879
1018.244	-2250
1018.315	-1802
1018.385	-959
1018.456	-2195
1018.526	-1349
1018.597	-1896
1018.667	-827
1018.738	-1479
1018.808	-1986
1018.878	-1882
1018.949	-1896
1019.019	-2001
1019.089	-1973
1019.160	-2095
1019.230	-1342
1019.300	-1797
1019.371	-1825
1019.441	-1354
1019.511	-1267
1019.581	-1680
1019.651	-2249
1019.721	-1407
1019.791	-1461
1019.861	-1723
1019.931	-1883
1020.001	-1750
1020.071	-1230
1020.141	-1656
1020.211	-1591
1020.281	-2599
1020.351	-1819
1020.421	-1896
1020.491	-1458
1020.560	-2170
1020.630	-1842
1020.700	-1814
1020.770	-2380
1020.839	-1825
1020.909	-1905
1020.979	-1953
1021.048	-2011
1021.118	-1988
1021.187	-1462
1021.257	-1619
1021.326	-1196
1021.396	-1959
1021.465	-1397
1021.535	-1408
1021.604	-2084
1021.674	-2386
1021.743	-734
1021.812	-1468
1021.882	-1448
1021.951	-1382
1022.020	-1432
1022.089	-1470
1022.159	-1759
1022.228	-1505
1022.297	-1069
1022.366	-2240
1022.435	-1800
1022.504	-2110
1022.573	-2473
1022.642	-1424
1022.711	-1892
1022.781	-1705
1022.849	-1541
1022.918	-1366
1022.987	-2321
1023.056	-2059
1023.125	-1066
1023.194	-1290
1023.263	-857
1023.331	-1329
1023.400	-2087
1023.469	-2131
1023.538	-2063
1023.606	-1813
1023.675	-1878
1023.744	-2080
1023.812	-1750
1023.881	-1784
1023.949	-1254
1024.018	-2020
1024.086	-1894
1024.155	-1319
1024.223	-2073
1024.292	-2329
1024.360	-1490
1024.429	-2809
1024.497	-2249
1024.565	-1625
1024.634	-1811
1024.702	-1774
1024.770	-1761
1024.838	-2106
1024.907	-1780
1024.975	-1877
1025.043	-1691
1025.111	-2621
1025.179	-1702
1025.247	-1890
1025.315	-1860
1025.383	-1449
1025.451	-2091
1025.519	-2681
1025.587	-2099
1025.655	-2194
1025.723	-2234
1025.791	-1916
1025.859	-1914
1025.927	-923
1025.995	-1975
1026.062	-2316
1026.130	-1851
1026.198	-1514
1026.266	-2049
1026.333	-2228
1026.401	-1191
1026.469	-1901
1026.536	-2008
1026.604	-1840
1026.671	-2284
1026.739	-1582
1026.806	-1894
1026.874	-1778
1026.941	-1756
1027.009	-1638
1027.076	-2223
1027.144	-1294
1027.211	-1320
1027.278	-2776
1027.345	-1539
1027.413	-1522
1027.480	-1688
1027.547	-2203
1027.614	-2425
1027.682	-1430
1027.749	-1924
1027.816	-2696
1027.883	-1116
1027.950	-1775
1028.017	-2039
1028.084	-2552
1028.151	-2828
1028.218	-2101
1028.285	-1541
1028.352	-2369
1028.419	-2251
1028.486	-2577
1028.553	-1636
1028.619	-1057
1028.686	-1379
1028.753	-2198
1028.820	-1472
1028.886	-1613
1028.953	-1433
1029.020	-2487
1029.086	-2316
1029.153	-2261
1029.220	-2068
1029.286	-2346
1029.353	-1791
1029.419	-2366
1029.486	-2084
1029.552	-1977
1029.619	-1946
1029.685	-2475
1029.751	-2134
1029.818	-1512
1029.884	-2133
1029.951	-1407
1030.017	-1382
1030.083	-1645
1030.149	-2095
1030.216	-2511
1030.282	-1300
1030.348	-1803
1030.414	-2362
1030.480	-1958
1030.546	-1946
1030.612	-1539
1030.678	-1758
1030.744	-1867
1030.810	-2097
1030.876	-2239
1030.942	-1005
1031.008	-1735
1031.074	-2235
1031.140	-2256
1031.206	-1636
1031.272	-2549
1031.337	-1701
1031.403	-1554
1031.469	-1923
1031.534	-2115
1031.600	-1885
1031.666	-1618
1031.731	-2062
1031.797	-1429
1031.863	-1438
1031.928	-1931
1031.994	-1828
1032.059	-1986
1032.125	-391
1032.190	-1910
1032.256	-2005
1032.321	-1456
1032.386	-1455
1032.452	-1665
1032.517	-1681
1032.582	-2074
1032.647	-822
1032.713	-1333
1032.778	-1254
1032.843	-1321
1032.908	-1801
1032.974	-1827
1033.039	-2398
1033.104	-416
1033.169	-1656
1033.234	-1145
1033.299	-1645
1033.364	-706
1033.429	-1466
1033.494	165
1033.559	-1597
1033.624	-1383
1033.688	-1740
1033.753	-2244
1033.818	-944
1033.883	-1449
1033.948	-698
1034.013	-394
1034.077	574
1034.142	2187
1034.207	2979
1034.271	5836
1034.336	8693
1034.400	5124
1034.465	2230
1034.530	256
1034.594	-652
1034.658	-1116
1034.723	-1698
1034.787	-1411
1034.852	-1644
1034.916	-1917
1034.981	-1580
1035.045	-1440
1035.109	-1386
1035.173	-1182
1035.238	-2082
1035.302	-2070
1035.366	-1481
1035.430	-1597
1035.495	-2216
1035.559	-914
1035.623	-2284
1035.687	-1191
1035.751	-2441
1035.815	-1620
1035.879	-1627
1035.943	-1896
1036.007	-1653
1036.071	-1257
1036.135	-2101
1036.198	-2532
1036.262	-2259
1036.326	-1778
1036.390	-1982
1036.454	-1573
1036.517	-1852
1036.581	-595
1036.645	-1393
1036.709	-1115
1036.772	-1810
1036.836	-1638
1036.900	-1737
1036.963	-2172
1037.026	-1550
1037.090	-1970
1037.154	-1162
1037.217	-1163
1037.280	-1953
1037.344	-2148
1037.407	-1332
1037.471	-1801
1037.534	-1802
1037.597	-1612
1037.661	-1135
1037.724	-1922
1037.787	-2181
1037.850	-1947
1037.913	-1659
1037.977	-1646
1038.040	-2263
1038.103	-2426
1038.166	-1390
1038.229	-1694
1038.292	-2579
1038.355	-2261
1038.418	-1499
1038.481	-1626
1038.544	-1991
1038.607	-1944
1038.670	-2340
1038.732	-1995
1038.795	-2094
1038.858	-2551
1038.921	-1577
1038.984	-2221
1039.046	-1547
1039.109	-2329
1039.172	-1840
1039.234	-1611
1039.297	-1958
1039.360	-1448
1039.422	-2469
1039.485	-2516
1039.547	-2315
1039.610	-1768
1039.672	-1770
1039.734	-2088
1039.797	-2802
1039.859	-2028
1039.922	-2517
1039.984	-1438
1040.046	-2387
1040.109	-2097
1040.171	-1557
1040.233	-1240
1040.295	-1581
1040.358	-2142
1040.420	-1889
1040.482	-2289
1040.544	-1874
1040.606	-2107
1040.668	-2360
1040.730	-1915
1040.792	-2311
1040.854	-2513
1040.916	-2320
1040.978	-2430
1041.040	-1181
1041.102	-1970
1041.164	-2905
1041.225	-1685
1041.287	-2170
1041.349	-2283
1041.411	-1394
1041.472	-2461
1041.534	-1696
1041.596	-2096
1041.657	-1635
1041.719	-2028
1041.781	-2134
1041.842	-2493
1041.904	-1877
1041.965	-2455
1042.027	-1596
1042.088	-2322
1042.150	-2449
1042.211	-1842
1042.272	-1348
1042.334	-2166
1042.395	-1531
1042.456	-2335
1042.518	-2132
1042.579	-1271
1042.640	-1771
1042.701	-2867
1042.763	-2002
1042.824	-1656
1042.885	-2360
1042.946	-1709
1043.007	-2315
1043.068	-2771
1043.129	-2121
1043.190	-1939
1043.251	-2110
1043.312	-1766
1043.373	-2242
1043.434	-1690
1043.495	-2653
1043.556	-2255
1043.616	-2109
1043.677	-2156
1043.738	-2424
1043.799	-1440
1043.859	-1931
1043.920	-2085
1043.981	-1527
1044.041	-1542
1044.102	-2010
1044.162	-2370
1044.223	-2128
1044.284	-2340
1044.344	-1496
1044.405	-1786
1044.465	-1273
1044.525	-1679
1044.586	-1820
1044.646	-1592
1044.707	-1200
1044.767	-2123
1044.827	-1820
1044.887	-1288
1044.948	-1550
1045.008	-2062
1045.068	-1528
1045.128	-1436
1045.188	-1634
1045.249	-1186
1045.309	-1976
1045.369	-2058
1045.429	-1554
1045.489	-924
1045.549	-1713
1045.609	-1837
1045.669	-1563
1045.729	-2017
1045.789	-1644
1045.848	-2024
1045.908	-1195
1045.968	-1540
1046.028	-2202
1046.088	-1732
1046.147	-985
1046.207	-903
1046.267	-1052
1046.326	-1667
1046.386	-995
1046.446	-789
1046.505	-613
1046.565	-1117
1046.624	-1647
1046.684	-461
1046.743	-1715
1046.803	-561
1046.862	922
1046.922	0
