'Start Wavelength	183.907
'End Wavelength	1046.922
'Gate Delay	5.000
'Gate Width (ms)	1.050
'Laser Output Level	0.000
'X Position	0.000
'Y Position	0.000
'Z Position	0.000
'Grid Point Number	1.000
'Shot Number	100.000
183.907	485.000
183.977	-67.000
184.047	126
184.116	-99
184.186	454
184.256	686
184.325	-213
184.395	-317
184.465	1394
184.534	150
184.604	-144
184.674	-271
184.743	-627
184.813	451
184.883	322
184.952	312
185.022	-14
185.092	-159
185.161	185
185.231	-175
185.301	189
185.370	591
185.440	-9
185.509	354
185.579	184
185.649	41
185.718	11
185.788	661
185.857	-44
185.927	-494
185.996	-152
186.066	-330
186.136	-699
186.205	-934
186.275	641
186.344	-162
186.414	493
186.483	-856
186.553	1309
186.622	590
186.692	169
186.761	536
186.831	356
186.900	-267
186.970	370
187.039	428
187.109	549
187.178	717
187.248	75
187.317	526
187.387	-889
187.456	582
187.526	221
187.595	-317
187.664	-267
187.734	217
187.803	585
187.873	108
187.942	1053
188.012	42
188.081	-319
188.150	266
188.220	-53
188.289	754
188.358	104
188.428	431
188.497	-250
188.567	495
188.636	294
188.705	32
188.775	153
188.844	-252
188.913	822
188.983	-36
189.052	617
189.121	635
189.191	65
189.260	331
189.329	582
189.399	-70
189.468	216
189.537	128
189.606	903
189.676	662
189.745	353
189.814	284
189.883	624
189.953	131
190.022	452
190.091	736
190.161	541
190.230	-117
190.299	102
190.368	575
190.437	1052
190.507	-330
190.576	473
190.645	-322
190.714	9
190.783	379
190.853	879
190.922	506
190.991	31
191.060	687
191.129	-305
191.198	961
191.268	101
191.337	-228
191.406	422
191.475	-201
191.544	-190
191.613	95
191.682	-138
191.752	180
191.821	290
191.890	-103
191.959	-181
192.028	-111
192.097	672
192.166	365
192.235	-311
192.304	441
192.373	97
192.442	804
192.511	710
192.580	467
192.650	597
192.719	-49
192.788	1064
192.857	-286
192.926	-263
192.995	509
193.064	1248
193.133	280
193.202	393
193.271	837
193.340	-305
193.409	550
193.478	1287
193.547	1084
193.615	1197
193.684	1085
193.753	604
193.822	1086
193.891	-12
193.960	530
194.029	305
194.098	-235
194.167	-219
194.236	882
194.305	377
194.374	720
194.443	384
194.512	106
194.580	110
194.649	572
194.718	62
194.787	490
194.856	-359
194.925	230
194.994	36
195.062	428
195.131	1083
195.200	177
195.269	624
195.338	286
195.407	539
195.475	785
195.544	435
195.613	-82
195.682	443
195.751	372
195.819	-326
195.888	-22
195.957	1408
196.026	868
196.094	140
196.163	-169
196.232	54
196.301	163
196.369	107
196.438	427
196.507	726
196.576	266
196.644	401
196.713	612
196.782	-176
196.850	1094
196.919	-150
196.988	-132
197.056	67
197.125	-14
197.194	426
197.262	242
197.331	354
197.400	-42
197.468	508
197.537	485
197.606	-44
197.674	582
197.743	762
197.812	-178
197.880	760
197.949	438
198.017	873
198.086	322
198.155	278
198.223	717
198.292	1044
198.360	610
198.429	258
198.497	823
198.566	687
198.635	1071
198.703	558
198.772	888
198.840	680
198.909	1295
198.977	210
199.046	738
199.114	598
199.183	387
199.251	651
199.320	203
199.388	-420
199.457	757
199.525	371
199.594	317
199.662	362
199.731	535
199.799	772
199.867	405
199.936	763
200.004	1034
200.073	593
200.141	-396
200.210	47
200.278	676
200.346	551
200.415	244
200.483	-96
200.552	719
200.620	527
200.688	124
200.757	69
200.825	-16
200.893	279
200.962	631
201.030	852
201.098	642
201.167	37
201.235	337
201.303	569
201.372	1048
201.440	844
201.508	1123
201.577	758
201.645	988
201.713	379
201.781	96
201.850	1533
201.918	-6
201.986	-34
202.055	1001
202.123	149
202.191	-37
202.259	-54
202.327	308
202.396	-187
202.464	859
202.532	1152
202.600	1392
202.669	636
202.737	246
202.805	11
202.873	638
202.941	375
203.009	643
203.078	972
203.146	1239
203.214	-246
203.282	-121
203.350	861
203.418	-380
203.487	1416
203.555	831
203.623	271
203.691	320
203.759	-831
203.827	-90
203.895	538
203.963	-34
204.031	-46
204.099	-366
204.168	359
204.236	17
204.304	337
204.372	473
204.440	487
204.508	3
204.576	314
204.644	-143
204.712	111
204.780	520
204.848	614
204.916	-45
204.984	163
205.052	993
205.120	-207
205.188	279
205.256	494
205.324	-92
205.392	392
205.460	362
205.528	646
205.596	539
205.664	143
205.732	194
205.799	675
205.867	1413
205.935	1248
206.003	537
206.071	257
206.139	-145
206.207	234
206.275	135
206.343	53
206.411	359
206.478	399
206.546	446
206.614	934
206.682	615
206.750	457
206.818	1086
206.885	1065
206.953	-315
207.021	1116
207.089	774
207.157	555
207.225	771
207.292	-198
207.360	281
207.428	410
207.496	869
207.563	376
207.631	882
207.699	1041
207.767	183
207.834	856
207.902	880
207.970	512
208.038	638
208.105	721
208.173	167
208.241	741
208.309	757
208.376	704
208.444	857
208.512	670
208.579	-364
208.647	1220
208.715	1132
208.782	594
208.850	357
208.918	183
208.985	688
209.053	1023
209.120	293
209.188	-278
209.256	558
209.323	-140
209.391	354
209.459	1515
209.526	1091
209.594	-353
209.661	1078
209.729	393
209.796	915
209.864	-75
209.932	-1085
209.999	757
210.067	871
210.134	1117
210.202	77
210.269	1646
210.337	1494
210.404	353
210.472	159
210.539	502
210.607	273
210.674	116
210.742	480
210.809	781
210.877	571
210.944	1019
211.012	-204
211.079	2177
211.146	532
211.214	838
211.281	1243
211.349	1353
211.416	1683
211.484	980
211.551	103
211.618	152
211.686	651
211.753	-403
211.821	518
211.888	780
211.955	894
212.023	496
212.090	877
212.157	519
212.225	115
212.292	1362
212.359	1952
212.427	4529
212.494	2614
212.561	1270
212.629	1398
212.696	392
212.763	1191
212.831	293
212.898	1816
212.965	879
213.032	333
213.100	895
213.167	366
213.234	2334
213.301	1173
213.369	1093
213.436	0
213.503	586
213.570	1614
213.638	323
213.705	346
213.772	117
213.839	300
213.906	1248
213.973	475
214.041	244
214.108	998
214.175	908
214.242	46
214.309	1205
214.376	827
214.444	466
214.511	599
214.578	1013
214.645	1012
214.712	911
214.779	619
214.846	819
214.913	955
214.980	1317
215.048	1782
215.115	2395
215.182	851
215.249	1389
215.316	472
215.383	1500
215.450	729
215.517	850
215.584	1027
215.651	471
215.718	313
215.785	1005
215.852	526
215.919	1510
215.986	371
216.053	-330
216.120	437
216.187	1018
216.254	1377
216.321	833
216.388	619
216.455	1608
216.522	976
216.589	848
216.656	1625
216.722	419
216.789	1016
216.856	1153
216.923	731
216.990	1140
217.057	1174
217.124	1700
217.191	1828
217.258	2108
217.324	2230
217.391	2415
217.458	1949
217.525	1178
217.592	1160
217.659	145
217.725	1166
217.792	1070
217.859	1918
217.926	459
217.993	344
218.059	903
218.126	692
218.193	649
218.260	667
218.327	762
218.393	829
218.460	696
218.527	628
218.594	253
218.660	263
218.727	1696
218.794	273
218.860	1277
218.927	-114
218.994	614
219.061	-204
219.127	744
219.194	753
219.261	340
219.327	138
219.394	1039
219.461	-233
219.527	623
219.594	1220
219.661	643
219.727	-143
219.794	976
219.860	439
219.927	583
219.994	1217
220.060	1960
220.127	2660
220.193	1938
220.260	1241
220.326	2334
220.393	2701
220.460	3773
220.526	2250
220.593	1654
220.659	2326
220.726	1774
220.792	3269
220.859	3722
220.925	4970
220.992	7361
221.058	5514
221.125	4790
221.191	2755
221.258	1306
221.324	1469
221.391	970
221.457	808
221.524	881
221.590	1488
221.657	3139
221.723	2222
221.789	1652
221.856	2556
221.922	524
221.989	1351
222.055	443
222.121	-366
222.188	2102
222.254	758
222.321	312
222.387	271
222.453	276
222.520	501
222.586	-24
222.652	299
222.719	686
222.785	-96
222.851	755
222.918	737
222.984	-236
223.050	173
223.116	-819
223.183	946
223.249	368
223.315	456
223.382	1270
223.448	4
223.514	-217
223.580	697
223.647	-85
223.713	-434
223.779	-24
223.845	288
223.911	762
223.978	-354
224.044	637
224.110	-60
224.176	53
224.242	885
224.309	-166
224.375	616
224.441	882
224.507	23
224.573	-284
224.639	1185
224.705	329
224.772	264
224.838	-600
224.904	1351
224.970	265
225.036	536
225.102	-231
225.168	1294
225.234	1357
225.300	-24
225.366	1030
225.432	761
225.499	869
225.565	911
225.631	65
225.697	627
225.763	976
225.829	900
225.895	659
225.961	1300
226.027	1024
226.093	866
226.159	2578
226.225	2581
226.291	6485
226.357	11159
226.423	6107
226.489	2833
226.554	960
226.620	1854
226.686	2303
226.752	4130
226.818	6036
226.884	11913
226.950	11911
227.016	4772
227.082	3492
227.148	2023
227.214	1839
227.279	1666
227.345	1918
227.411	1895
227.477	2132
227.543	4510
227.609	4086
227.674	2576
227.740	945
227.806	1168
227.872	1202
227.938	1361
228.003	1379
228.069	270
228.135	484
228.201	509
228.267	338
228.332	825
228.398	-189
228.464	145
228.530	315
228.595	399
228.661	263
228.727	-107
228.792	2145
228.858	39
228.924	-1258
228.990	1869
229.055	-201
229.121	895
229.187	447
229.252	-587
229.318	-80
229.384	59
229.449	979
229.515	-727
229.581	-165
229.646	1753
229.712	452
229.777	774
229.843	338
229.909	1200
229.974	1830
230.040	1035
230.105	672
230.171	463
230.236	2076
230.302	1685
230.368	895
230.433	463
230.499	1690
230.564	1530
230.630	110
230.695	1045
230.761	1725
230.826	-189
230.892	1678
230.957	-110
231.023	736
231.088	757
231.154	193
231.219	1352
231.284	267
231.350	1297
231.415	-166
231.481	1148
231.546	386
231.612	668
231.677	247
231.742	-354
231.808	1722
231.873	-456
231.939	-925
232.004	1566
232.069	1905
232.135	162
232.200	-175
232.265	932
232.331	-63
232.396	254
232.461	711
232.527	200
232.592	295
232.657	395
232.723	690
232.788	291
232.853	1386
232.918	144
232.984	-67
233.049	423
233.114	-205
233.179	971
233.245	1714
233.310	2226
233.375	-451
233.440	1273
233.506	497
233.571	-108
233.636	83
233.701	196
233.766	197
233.832	656
233.897	-105
233.962	-778
234.027	925
234.092	809
234.157	758
234.222	669
234.288	897
234.353	2585
234.418	2894
234.483	1600
234.548	1961
234.613	1003
234.678	1141
234.743	90
234.808	3384
234.873	972
234.938	1741
235.004	972
235.069	406
235.134	762
235.199	1285
235.264	552
235.329	21
235.394	862
235.459	1879
235.524	-227
235.589	1114
235.654	1003
235.719	-156
235.784	1774
235.849	1247
235.913	878
235.978	790
236.043	2008
236.108	629
236.173	-146
236.238	1413
236.303	232
236.368	787
236.433	1757
236.498	1534
236.563	2542
236.627	4771
236.692	15635
236.757	14559
236.822	5464
236.887	2687
236.952	3911
237.017	1384
237.081	3401
237.146	2349
237.211	7581
237.276	14688
237.341	24261
237.405	12112
237.470	4872
237.535	3237
237.600	2665
237.664	1867
237.729	1202
237.794	1355
237.859	5155
237.923	3404
237.988	998
238.053	2184
238.118	1384
238.182	3797
238.247	4122
238.312	692
238.376	1389
238.441	-716
238.506	1199
238.570	-218
238.635	1556
238.700	359
238.764	375
238.829	1403
238.893	1143
238.958	2044
239.023	1204
239.087	1157
239.152	1156
239.216	-724
239.281	1421
239.346	1156
239.410	1254
239.475	427
239.539	3427
239.604	2281
239.668	2299
239.733	2032
239.797	3973
239.862	8886
239.926	6644
239.991	3383
240.055	1157
240.120	386
240.184	1190
240.249	287
240.313	783
240.378	807
240.442	2148
240.507	3326
240.571	1091
240.635	368
240.700	2171
240.764	1346
240.829	445
240.893	-276
240.957	1188
241.022	1473
241.086	4103
241.151	253
241.215	41
241.279	1985
241.344	1197
241.408	1606
241.472	140
241.537	2006
241.601	2154
241.665	-274
241.730	1040
241.794	1879
241.858	774
241.922	617
241.987	741
242.051	522
242.115	24
242.179	855
242.244	234
242.308	1461
242.372	841
242.436	1404
242.501	790
242.565	-67
242.629	103
242.693	1626
242.757	-135
242.822	581
242.886	1070
242.950	1235
243.014	535
243.078	748
243.142	945
243.206	747
243.271	1165
243.335	503
243.399	2645
243.463	5626
243.527	19132
243.591	6200
243.655	2203
243.719	673
243.783	2281
243.847	2060
243.911	4078
243.975	2290
244.040	1500
244.104	2068
244.168	1285
244.232	1438
244.296	1911
244.360	3238
244.424	1105
244.488	1554
244.552	1827
244.615	-230
244.679	546
244.743	602
244.807	-321
244.871	743
244.935	1068
244.999	-173
245.063	1064
245.127	1505
245.191	2034
245.255	1599
245.319	2022
245.383	-511
245.446	1151
245.510	-518
245.574	642
245.638	1118
245.702	332
245.766	2131
245.829	2964
245.893	387
245.957	670
246.021	1095
246.085	907
246.149	495
246.212	3730
246.276	3707
246.340	2341
246.404	1786
246.467	2002
246.531	867
246.595	1796
246.659	2671
246.722	722
246.786	1083
246.850	1895
246.913	2374
246.977	264
247.041	797
247.104	1037
247.168	1831
247.232	2299
247.295	5735
247.359	3284
247.423	929
247.486	2525
247.550	2535
247.614	506
247.677	1756
247.741	1161
247.804	334
247.868	958
247.932	1386
247.995	6597
248.059	1871
248.122	-538
248.186	1769
248.249	2177
248.313	8276
248.376	10018
248.440	5508
248.503	1412
248.567	3101
248.630	2159
248.694	4236
248.757	6130
248.821	10482
248.884	7421
248.948	4169
249.011	7772
249.075	10557
249.138	11205
249.202	5150
249.265	2827
249.328	2999
249.392	1344
249.455	2541
249.519	1459
249.582	2264
249.645	3649
249.709	2746
249.772	2182
249.835	1615
249.899	2075
249.962	1967
250.025	1368
250.089	2948
250.152	5516
250.215	2881
250.279	2070
250.342	3021
250.405	2817
250.468	2360
250.532	3225
250.595	5116
250.658	14993
250.721	29514
250.785	10577
250.848	5096
250.911	2487
250.974	2778
251.038	3045
251.101	6795
251.164	3787
251.227	4292
251.290	4310
251.354	6721
251.417	22688
251.480	25443
251.543	17142
251.606	41939
251.669	35665
251.732	13037
251.795	10397
251.859	11494
251.922	26985
251.985	17703
252.048	6980
252.111	4529
252.174	1618
252.237	6253
252.300	12834
252.363	14723
252.426	35130
252.489	15454
252.552	6904
252.615	4765
252.678	5414
252.741	10240
252.804	13335
252.867	35669
252.930	20778
252.993	10427
253.056	5981
253.119	3929
253.182	3251
253.245	5767
253.308	4519
253.371	2704
253.434	3337
253.497	3172
253.559	5660
253.622	4199
253.685	3698
253.748	4599
253.811	2120
253.874	3502
253.937	1994
254.000	1973
254.062	3675
254.125	6160
254.188	6675
254.251	4513
254.314	2253
254.376	3930
254.439	5219
254.502	3305
254.565	2753
254.628	7606
254.690	4171
254.753	1491
254.816	1809
254.878	3047
254.941	2969
255.004	4342
255.067	2201
255.129	2009
255.192	1110
255.255	48
255.317	698
255.380	1223
255.443	-56
255.505	862
255.568	227
255.631	398
255.693	902
255.756	39
255.819	1667
255.881	540
255.944	1024
256.006	1125
256.069	1217
256.132	616
256.194	662
256.257	3026
256.319	1777
256.382	1667
256.444	2107
256.507	1782
256.569	859
256.632	1545
256.694	2062
256.757	8517
256.819	28753
256.882	11634
256.944	4277
257.007	2884
257.069	2133
257.132	2194
257.194	2758
257.257	712
257.319	1358
257.381	1734
257.444	6256
257.506	28084
257.569	35370
257.631	11577
257.693	6062
257.756	2873
257.818	2196
257.880	1123
257.943	2125
258.005	486
258.067	1489
258.130	636
258.192	1689
258.254	1924
258.317	1659
258.379	1003
258.441	3166
258.503	4123
258.566	3373
258.628	5551
258.690	615
258.753	1802
258.815	2507
258.877	1338
258.939	939
259.001	2113
259.064	843
259.126	631
259.188	1652
259.250	2091
259.312	717
259.375	1808
259.437	1417
259.499	1159
259.561	1498
259.623	1675
259.685	458
259.747	730
259.809	3235
259.872	6626
259.934	11021
259.996	12331
260.058	3719
260.120	713
260.182	1215
260.244	827
260.306	436
260.368	1118
260.430	910
260.492	2774
260.554	5210
260.616	1734
260.678	4815
260.740	7186
260.802	1077
260.864	1880
260.926	881
260.988	1972
261.050	1244
261.112	4242
261.174	10347
261.236	7020
261.298	1266
261.359	2218
261.421	5024
261.483	636
261.545	2075
261.607	-240
261.669	970
261.731	1589
261.793	4052
261.854	1372
261.916	1461
261.978	906
262.040	1140
262.102	1068
262.164	812
262.225	1917
262.287	688
262.349	2459
262.411	2723
262.472	2089
262.534	1162
262.596	2980
262.658	1219
262.719	-475
262.781	1785
262.843	2534
262.904	1862
262.966	1848
263.028	1623
263.090	8370
263.151	27621
263.213	10060
263.275	4159
263.336	2138
263.398	1907
263.459	57
263.521	1175
263.583	2923
263.644	2805
263.706	1547
263.767	435
263.829	557
263.891	320
263.952	357
264.014	615
264.075	1617
264.137	6240
264.198	2715
264.260	-184
264.321	883
264.383	2050
264.444	9344
264.506	3230
264.567	1435
264.629	3252
264.690	7931
264.752	2388
264.813	1272
264.875	1270
264.936	1214
264.998	697
265.059	1322
265.120	1507
265.182	2294
265.243	13868
265.305	18022
265.366	3289
265.427	1831
265.489	2250
265.550	766
265.611	918
265.673	913
265.734	892
265.795	1382
265.857	578
265.918	927
265.979	4177
266.040	23231
266.102	23308
266.163	6968
266.224	2908
266.286	2640
266.347	88
266.408	422
266.469	612
266.530	739
266.592	469
266.653	1417
266.714	2660
266.775	279
266.836	541
266.898	121
266.959	1926
267.020	1229
267.081	1709
267.142	712
267.203	624
267.264	-15
267.326	2438
267.387	601
267.448	740
267.509	1041
267.570	614
267.631	282
267.692	357
267.753	438
267.814	159
267.875	643
267.936	4084
267.997	2385
268.058	2194
268.119	1344
268.180	823
268.241	-89
268.302	366
268.363	558
268.424	493
268.485	1170
268.546	364
268.607	536
268.668	63
268.729	863
268.790	-220
268.851	267
268.912	1794
268.972	2922
269.033	267
269.094	-122
269.155	912
269.216	828
269.277	721
269.338	96
269.398	434
269.459	538
269.520	1073
269.581	1435
269.642	2153
269.702	1039
269.763	969
269.824	1122
269.885	-321
269.945	1959
270.006	818
270.067	1063
270.128	287
270.188	-76
270.249	-258
270.310	-570
270.370	935
270.431	-80
270.492	-189
270.553	-391
270.613	954
270.674	4422
270.734	2343
270.795	449
270.856	664
270.916	357
270.977	888
271.038	776
271.098	801
271.159	1631
271.219	1021
271.280	1044
271.340	219
271.401	252
271.462	2005
271.522	620
271.583	540
271.643	397
271.704	686
271.764	660
271.825	1918
271.885	8484
271.946	13437
272.006	4119
272.066	4809
272.127	9393
272.187	4811
272.248	2970
272.308	1486
272.369	6574
272.429	4211
272.489	2253
272.550	3514
272.610	3369
272.671	2091
272.731	2167
272.791	2422
272.852	1789
272.912	1679
272.972	1336
273.033	631
273.093	712
273.153	2394
273.214	1782
273.274	1344
273.334	6019
273.394	12624
273.455	5136
273.515	5017
273.575	10339
273.635	4786
273.696	5389
273.756	10058
273.816	5093
273.876	3479
273.936	4116
273.997	8919
274.057	3775
274.117	2408
274.177	3186
274.237	11019
274.297	11222
274.358	5923
274.418	7209
274.478	6789
274.538	2237
274.598	491
274.658	4853
274.718	6025
274.778	2880
274.838	1307
274.898	2117
274.958	7861
275.018	8044
275.078	6744
275.138	2519
275.198	-9
275.258	770
275.318	1463
275.378	2594
275.438	3333
275.498	1627
275.558	3695
275.618	8194
275.678	7186
275.738	3386
275.798	3254
275.858	2504
275.918	1479
275.978	1072
276.038	1627
276.098	941
276.157	1527
276.217	7418
276.277	3396
276.337	2165
276.397	700
276.457	1664
276.517	1310
276.576	708
276.636	933
276.696	1689
276.756	3532
276.815	3020
276.875	1190
276.935	1815
276.995	1916
277.055	1087
277.114	1029
277.174	1350
277.234	5784
277.293	3380
277.353	1270
277.413	1260
277.472	794
277.532	1717
277.592	1820
277.651	9544
277.711	21667
277.771	6812
277.830	19794
277.890	18780
277.950	10620
278.009	34871
278.069	14745
278.128	12439
278.188	21620
278.248	8509
278.307	22107
278.367	15865
278.426	4395
278.486	2658
278.545	1936
278.605	2043
278.664	1893
278.724	1374
278.783	3223
278.843	11625
278.902	3021
278.962	1922
279.021	2383
279.081	4674
279.140	4849
279.199	3353
279.259	3027
279.318	4695
279.378	6030
279.437	8961
279.496	23554
279.556	80784
279.615	79865
279.675	22953
279.734	11257
279.793	11335
279.853	16898
279.912	7540
279.971	4796
280.031	4118
280.090	6793
280.149	11452
280.208	13128
280.268	56871
280.327	69139
280.386	17803
280.445	9844
280.505	8400
280.564	4740
280.623	3932
280.682	4868
280.742	7046
280.801	2352
280.860	2744
280.919	1385
280.978	2729
281.037	1922
281.097	1246
281.156	1836
281.215	1619
281.274	1752
281.333	6860
281.392	5960
281.451	1438
281.510	821
281.569	1376
281.628	840
281.688	981
281.747	1880
281.806	1377
281.865	1448
281.924	884
281.983	1315
282.042	150
282.101	1051
282.160	1254
282.219	810
282.278	779
282.337	3431
282.396	2999
282.454	208
282.513	1311
282.572	6155
282.631	3250
282.690	1186
282.749	518
282.808	1086
282.867	1558
282.926	1529
282.985	1340
283.043	535
283.102	1247
283.161	982
283.220	3578
283.279	7929
283.338	3640
283.396	1976
283.455	1679
283.514	831
283.573	2034
283.631	2406
283.690	1979
283.749	2160
283.808	2630
283.866	4235
283.925	1398
283.984	2442
284.043	2259
284.101	2755
284.160	2446
284.219	3546
284.277	3610
284.336	3792
284.395	10206
284.453	9355
284.512	5659
284.570	5941
284.629	7068
284.688	7301
284.746	10146
284.805	10876
284.863	14660
284.922	18188
284.981	23030
285.039	30503
285.098	46878
285.156	71531
285.215	63368
285.273	57085
285.332	74784
285.390	57302
285.449	38332
285.507	27080
285.566	19585
285.624	15541
285.683	13066
285.741	9564
285.799	8773
285.858	7466
285.916	5835
285.975	5623
286.033	4709
286.091	3817
286.150	3429
286.208	3649
286.267	3538
286.325	3470
286.383	3464
286.442	3702
286.500	2253
286.558	2056
286.616	1729
286.675	3001
286.733	2389
286.791	1839
286.850	2337
286.908	2478
286.966	4632
287.024	1520
287.083	1850
287.141	1575
287.199	1639
287.257	1143
287.315	2865
287.374	2065
287.432	3648
287.490	3605
287.548	2163
287.606	1540
287.664	1319
287.723	1767
287.781	3331
287.839	1639
287.897	2471
287.955	3239
288.013	4487
288.071	9165
288.129	31724
288.187	98122
288.245	52245
288.303	15306
288.361	7546
288.419	5128
288.477	3805
288.535	2550
288.593	2772
288.651	2043
288.709	757
288.767	885
288.825	828
288.883	1247
288.941	854
288.999	825
289.057	447
289.115	549
289.173	168
289.231	1095
289.289	240
289.346	537
289.404	1385
289.462	1826
289.520	1114
289.578	799
289.636	758
289.694	890
289.751	759
289.809	-137
289.867	1150
289.925	533
289.983	905
290.040	638
290.098	275
290.156	829
290.214	965
290.271	576
290.329	1088
290.387	636
290.444	159
290.502	741
290.560	539
290.617	296
290.675	752
290.733	501
290.790	925
290.848	275
290.906	462
290.963	7
291.021	478
291.078	940
291.136	228
291.194	3909
291.251	8604
291.309	2741
291.366	1114
291.424	461
291.481	281
291.539	774
291.596	1473
291.654	1024
291.711	641
291.769	504
291.826	1441
291.884	1994
291.941	199
291.999	499
292.056	1545
292.114	372
292.171	633
292.228	1019
292.286	451
292.343	2169
292.401	1927
292.458	1578
292.515	340
292.573	1660
292.630	685
292.687	834
292.745	868
292.802	283
292.859	5426
292.917	7780
292.974	5037
293.031	1778
293.089	887
293.146	842
293.203	991
293.260	471
293.318	473
293.375	2480
293.432	1696
293.489	1139
293.546	1177
293.604	613
293.661	4068
293.718	12340
293.775	7529
293.832	3408
293.889	4103
293.947	2397
294.004	2004
294.061	1459
294.118	2950
294.175	8421
294.232	15766
294.289	7039
294.346	2469
294.403	2478
294.460	1183
294.517	1099
294.574	1105
294.631	652
294.688	1625
294.745	2827
294.802	13093
294.859	20742
294.916	7031
294.973	2228
295.030	1360
295.087	1509
295.144	1151
295.201	1371
295.258	874
295.315	1313
295.372	4123
295.429	9564
295.486	4475
295.542	3244
295.599	7772
295.656	16885
295.713	8906
295.770	10807
295.827	4195
295.883	2260
295.940	1922
295.997	2639
296.054	3497
296.111	594
296.167	1588
296.224	986
296.281	526
296.338	-613
296.394	-15
296.451	1290
296.508	3187
296.564	9257
296.621	5556
296.678	8897
296.734	16070
296.791	6232
296.848	2998
296.904	2307
296.961	5456
297.018	9794
297.074	8162
297.131	3853
297.187	2045
297.244	2397
297.301	8583
297.357	17735
297.414	6715
297.470	3118
297.527	1588
297.583	1544
297.640	1331
297.696	1695
297.753	578
297.809	763
297.866	552
297.922	655
297.979	573
298.035	-97
298.092	1589
298.148	5668
298.204	6930
298.261	2537
298.317	4317
298.374	12646
298.430	7405
298.486	3160
298.543	2102
298.599	1543
298.656	1792
298.712	3660
298.768	12315
298.824	10918
298.881	2753
298.937	2018
298.993	1298
299.050	1489
299.106	489
299.162	1364
299.218	2438
299.275	1574
299.331	886
299.387	3356
299.443	10575
299.500	17361
299.556	11219
299.612	4675
299.668	3842
299.724	7980
299.780	11346
299.837	4593
299.893	3948
299.949	12169
300.005	16946
300.061	12351
300.117	22487
300.173	11284
300.229	3744
300.285	4293
300.341	4577
300.397	2555
300.453	1177
300.510	1270
300.566	2226
300.622	3821
300.678	14695
300.734	24592
300.790	14249
300.845	13207
300.901	10561
300.957	17990
301.013	11695
301.069	4488
301.125	2346
301.181	2758
301.237	2267
301.293	694
301.349	1304
301.405	333
301.461	1081
301.516	1327
301.572	2209
301.628	1538
301.684	1894
301.740	4072
301.796	6699
301.851	4165
301.907	6683
301.963	6575
302.019	7782
302.074	27169
302.130	29751
302.186	14676
302.242	5006
302.297	3834
302.353	3842
302.409	5654
302.464	6073
302.520	4933
302.576	9824
302.631	13687
302.687	7067
302.743	2164
302.798	2252
302.854	1762
302.910	2351
302.965	1204
303.021	3329
303.076	3622
303.132	4079
303.187	4921
303.243	2869
303.299	1613
303.354	1276
303.410	1517
303.465	1083
303.521	1272
303.576	1234
303.632	1279
303.687	3263
303.743	8956
303.798	9190
303.853	3743
303.909	2172
303.964	1595
304.020	1895
304.075	4218
304.130	3905
304.186	5475
304.241	6855
304.297	5556
304.352	2011
304.358	1998
304.407	1892
304.449	1309
304.463	1115
304.518	1386
304.539	1503
304.573	1683
304.629	1198
304.630	1216
304.684	2138
304.720	5128
304.739	6603
304.794	11254
304.811	9817
304.850	6293
304.902	2862
304.905	2644
304.960	1737
304.992	1789
305.015	1851
305.071	948
305.083	1171
305.126	1896
305.173	963
305.181	829
305.236	1352
305.264	1275
305.292	1164
305.347	1178
305.354	1312
305.402	2223
305.445	2093
305.457	2030
305.512	1918
305.535	2251
305.567	2766
305.622	1877
305.626	1997
305.678	5057
305.716	10228
305.733	11889
305.788	14589
305.807	12481
305.843	8950
305.897	11017
305.898	11033
305.953	11353
305.988	7406
306.008	5305
306.063	3401
306.078	3032
306.118	2184
306.168	1674
306.173	1643
306.228	1106
306.259	1187
306.283	1337
306.338	1890
306.349	1994
306.393	2199
306.440	2040
306.448	2028
306.503	2749
306.530	2621
306.558	3248
306.613	7431
306.620	7942
306.668	10820
306.711	12520
306.723	12288
306.778	9996
306.801	7635
306.833	5457
306.888	3136
306.892	3036
306.943	2159
306.982	2026
306.997	2021
307.052	1659
307.072	1953
307.107	2708
307.162	3092
307.163	3102
307.217	4841
307.253	5927
307.272	6110
307.327	6739
307.343	6312
307.381	5111
307.434	3696
307.436	3813
307.491	8265
307.524	12405
307.546	13199
307.600	12770
307.614	11449
307.655	7331
307.704	4164
307.710	4117
307.765	4874
307.795	6164
307.819	7565
307.874	12599
307.885	12847
307.929	11164
307.975	9150
307.984	9440
308.038	12693
308.065	15389
308.093	26970
308.148	55320
308.156	61614
308.202	93253
308.246	115549
308.257	112166
308.312	63622
308.336	43138
308.366	31476
308.421	18957
308.426	17832
308.475	11964
308.517	9175
308.530	8732
308.585	7544
308.607	7238
308.639	7405
308.694	8016
308.697	8098
308.748	13501
308.787	18862
308.803	18743
308.857	15604
308.877	13643
308.912	12262
308.967	12170
308.967	12176
309.021	18494
309.058	23441
309.076	28589
309.130	46430
309.148	52925
309.185	86851
309.238	143921
309.239	144453
309.293	157464
309.328	152754
309.348	135347
309.402	74567
309.418	58313
309.457	42790
309.508	27783
309.511	27582
309.566	27298
309.598	28333
309.620	34239
309.674	52184
309.688	57100
309.729	55485
309.778	47506
309.783	46314
309.837	29706
309.868	21023
309.892	20502
309.946	21303
309.959	21971
310.001	25172
310.049	28264
310.055	27356
310.109	17024
310.139	11183
310.163	9226
310.218	6064
310.229	5533
310.272	5172
310.319	4776
310.326	4656
310.381	4082
310.409	3769
310.435	3762
310.489	3494
310.499	3517
310.543	3324
310.589	2914
310.598	3014
310.652	3867
310.679	4198
310.706	3799
310.760	2837
310.769	2695
310.814	2589
310.859	2579
310.868	2581
310.923	2423
310.948	2436
310.977	2928
311.031	3826
311.038	3936
311.085	3413
311.128	2780
311.139	2874
311.193	3549
311.218	3809
311.247	3267
311.301	2232
311.308	2085
311.356	2545
311.398	3086
311.410	3051
311.464	2792
311.488	2621
311.518	2547
311.572	2551
311.578	2543
311.626	2900
311.668	3172
311.680	3363
311.734	4209
311.758	4565
311.788	4438
311.842	4191
311.847	4158
311.896	5722
311.937	7070
311.950	6873
312.004	5926
312.027	5485
312.058	4674
312.112	3232
312.117	3085
312.165	3051
312.207	3020
312.297	5609
312.386	3575
312.476	3638
312.566	5140
312.656	2976
312.745	2875
312.835	3541
312.925	3639
313.015	3584
313.104	3913
313.194	4000
313.284	3626
313.374	5238
313.463	4142
313.553	3588
313.643	2916
313.732	3979
313.822	3510
313.912	3380
314.001	3968
314.091	5446
314.180	5552
314.270	5620
314.360	5070
314.449	3596
314.539	3625
314.628	4505
314.718	4555
314.808	5377
314.897	3617
314.987	4213
315.076	4446
315.166	5609
315.255	4998
315.345	5391
315.434	4146
315.524	4992
315.613	4924
315.703	6843
315.792	12784
315.881	40002
315.971	12361
316.060	8824
316.150	10832
316.239	11372
316.328	5210
316.418	4174
316.507	4117
316.597	5271
316.686	4655
316.775	6772
316.865	12262
316.954	4270
317.043	3155
317.133	3552
317.222	3047
317.311	3101
317.400	2403
317.490	5004
317.579	4577
317.668	4477
317.757	7262
317.847	21078
317.936	69764
318.025	21610
318.114	15024
318.203	8213
318.293	7594
318.382	14222
318.471	11123
318.560	16643
318.649	37965
318.738	8107
318.828	5287
318.917	5247
319.006	6031
319.095	14412
319.184	45417
319.273	19918
319.362	8273
319.451	3771
319.540	3890
319.629	6246
319.718	9800
319.807	7153
319.896	14435
319.985	55028
320.074	15186
320.163	5115
320.252	7496
320.341	7834
320.430	6556
320.519	8057
320.608	3803
320.697	6288
320.786	5692
320.875	6678
320.964	6704
321.053	8909
321.142	11304
321.230	13445
321.319	11215
321.408	21920
321.497	11526
321.586	10631
321.675	12273
321.764	13483
321.852	9715
321.941	13540
322.030	8199
322.119	11928
322.207	21712
322.296	19690
322.385	11883
322.474	12885
322.562	25945
322.651	15788
322.740	10421
322.829	14171
322.917	15328
323.006	10047
323.095	8426
323.183	8013
323.272	11184
323.361	16050
323.449	47279
323.538	14138
323.626	31197
323.715	18453
323.804	8676
323.892	29467
323.981	13594
324.069	6359
324.158	15936
324.246	14865
324.335	5933
324.424	8195
324.512	3985
324.601	5557
324.689	8616
324.778	15596
324.866	10244
324.954	4164
325.043	3947
325.131	7355
325.220	12557
325.308	13268
325.397	10172
325.485	6178
325.574	2929
325.662	2740
325.750	3206
325.839	3012
325.927	2643
326.015	4161
326.104	5431
326.192	7053
326.280	3136
326.369	3243
326.457	3188
326.545	6224
326.634	2671
326.722	3297
326.810	2843
326.898	3508
326.987	4631
327.075	6177
327.163	6239
327.251	4701
327.340	6137
327.428	9437
327.516	3785
327.604	3840
327.692	3900
327.781	3915
327.869	4705
327.957	3691
328.045	3357
328.133	2336
328.221	2517
328.309	3054
328.397	2691
328.485	3898
328.574	5222
328.662	14427
328.750	7953
328.838	4117
328.926	3048
329.014	2930
329.102	3633
329.190	10870
329.278	5990
329.366	3262
329.454	2722
329.542	1987
329.630	2169
329.718	2966
329.806	2855
329.893	4043
329.981	3354
330.069	5311
330.157	15666
330.245	45937
330.333	21901
330.421	4301
330.509	4684
330.597	13810
330.684	9615
330.772	4375
330.860	7643
330.948	10661
331.036	4288
331.123	2298
331.211	3018
331.299	4971
331.387	8746
331.475	14061
331.562	4685
331.650	3294
331.738	3258
331.825	5158
331.913	3006
332.001	2942
332.089	3735
332.176	7377
332.264	15586
332.352	11451
332.439	4303
332.527	3733
332.614	3080
332.702	4325
332.790	2619
332.877	7696
332.965	18133
333.052	8075
333.140	8037
333.228	22293
333.315	6622
333.403	4009
333.490	10510
333.578	11488
333.665	30109
333.753	12419
333.840	4068
333.928	5386
334.015	11055
334.103	18603
334.190	56766
334.278	17176
334.365	11672
334.452	9691
334.540	6589
334.627	8110
334.715	9478
334.802	18232
334.889	66804
334.977	65486
335.064	16737
335.151	8806
335.239	6785
335.326	8690
335.413	30779
335.501	40470
335.588	7876
335.675	6881
335.762	9164
335.850	15465
335.937	14840
336.024	29325
336.111	82964
336.199	42077
336.286	14395
336.373	9011
336.460	5563
336.547	5710
336.635	5365
336.722	4901
336.809	4410
336.896	5066
336.983	16655
337.070	41676
337.157	58211
337.245	39339
337.332	26011
337.419	5259
337.506	3434
337.593	5868
337.680	15008
337.767	44599
337.854	10845
337.941	11837
338.028	13269
338.115	4919
338.202	8144
338.289	10319
338.376	35230
338.463	11609
338.550	25468
338.637	25766
338.724	8280
338.811	12935
338.898	3172
338.984	3048
339.071	4015
339.158	4248
339.245	8313
339.332	5956
339.419	7947
339.506	8329
339.593	1805
339.679	3341
339.766	2375
339.853	3941
339.940	5874
340.027	2940
340.113	2897
340.200	4738
340.287	2753
340.374	3027
340.460	5925
340.547	2160
340.634	4041
340.720	15087
340.807	7366
340.894	3152
340.980	3122
341.067	1854
341.154	3225
341.240	4027
341.327	7245
341.414	4806
341.500	3743
341.587	3576
341.674	2650
341.760	6142
341.847	5451
341.933	2457
342.020	1506
342.106	2284
342.193	3045
342.279	4192
342.366	3219
342.452	5235
342.539	2270
342.625	6364
342.712	14010
342.798	7199
342.885	2647
342.971	2278
343.058	2397
343.144	2445
343.230	2259
343.317	2797
343.403	2092
343.490	2795
343.576	2604
343.662	2845
343.749	2567
343.835	3537
343.921	5140
344.008	25899
344.094	60408
344.180	13186
344.267	5453
344.353	18908
344.439	19044
344.525	8457
344.612	10911
344.698	11413
344.784	5593
344.870	3514
344.957	2858
345.043	4314
345.129	2505
345.215	5250
345.301	2865
345.387	2472
345.474	2069
345.560	2045
345.646	2268
345.732	2555
345.818	3317
345.904	3002
345.990	2339
346.076	3356
346.162	4978
346.249	3254
346.335	1692
346.421	2990
346.507	7923
346.593	26119
346.679	5562
346.765	4217
346.851	3609
346.937	2725
347.023	3841
347.108	3242
347.194	2287
347.280	3355
347.366	3449
347.452	11296
347.538	33080
347.624	24400
347.710	18250
347.796	4352
347.882	4264
347.967	3287
348.053	3836
348.139	3197
348.225	2478
348.311	2762
348.397	2013
348.482	3601
348.568	3610
348.654	3148
348.740	7584
348.825	8813
348.911	7134
348.997	15323
349.083	27922
349.168	5646
349.254	2577
349.340	3313
349.425	3157
349.511	3453
349.597	3778
349.682	6244
349.768	17510
349.854	8713
349.939	3386
350.025	2907
350.110	2413
350.196	1566
350.282	1044
350.367	2755
350.453	3320
350.538	4061
350.624	3335
350.709	3235
350.795	1394
350.880	2165
350.966	4271
351.051	3742
351.137	2450
351.222	3147
351.308	6509
351.393	15046
351.479	5133
351.564	2577
351.649	2853
351.735	2863
351.820	2284
351.906	2329
351.991	2808
352.076	10176
352.162	14253
352.247	4312
352.332	2294
352.418	4903
352.503	6394
352.588	21909
352.673	16233
352.759	4284
352.844	2418
352.929	3514
353.014	3149
353.100	3280
353.185	3375
353.270	4818
353.355	4494
353.441	2890
353.526	3057
353.611	5540
353.696	5423
353.781	3544
353.866	1777
353.952	3176
354.037	4096
354.122	10496
354.207	9134
354.292	4422
354.377	1922
354.462	3091
354.547	3068
354.632	3396
354.717	4513
354.802	3605
354.887	2865
354.972	2716
355.057	2317
355.142	2403
355.227	3544
355.312	4619
355.397	7143
355.482	15564
355.567	7687
355.652	8089
355.737	6883
355.822	21939
355.907	16726
355.991	5353
356.076	2620
356.161	4258
356.246	3414
356.331	3953
356.416	5408
356.501	36412
356.585	34352
356.670	6175
356.755	6067
356.840	6735
356.924	21746
357.009	76670
357.094	27756
357.179	8030
357.263	6706
357.348	6992
357.433	6368
357.517	6512
357.602	6293
357.687	5758
357.771	6435
357.856	17354
357.941	10689
358.025	19484
358.110	75775
358.195	34725
358.279	8346
358.364	6568
358.448	15839
358.533	39687
358.617	27353
358.702	29183
358.787	11291
358.871	7531
358.956	5857
359.040	4240
359.125	3794
359.209	4106
359.294	9008
359.378	14708
359.462	6873
359.547	3806
359.631	2985
359.716	2233
359.800	2817
359.885	5631
359.969	2883
360.053	3794
360.138	3268
360.222	3467
360.306	5226
360.391	4341
360.475	8843
360.559	16068
360.644	13912
360.728	9602
360.812	18760
360.896	52153
360.981	21101
361.065	11365
361.149	4058
361.233	3556
361.318	3075
361.402	4226
361.486	3487
361.570	4038
361.654	3823
361.739	7782
361.823	32158
361.907	51783
361.991	9649
362.075	7412
362.159	11840
362.243	14505
362.327	26304
362.411	36608
362.495	14397
362.580	7335
362.664	7262
362.748	7251
362.832	11347
362.916	23039
363.000	67691
363.084	109977
363.168	82626
363.252	21520
363.336	10031
363.420	11159
363.503	41451
363.587	47479
363.671	9006
363.755	7332
363.839	9391
363.923	6414
364.007	9999
364.091	13620
364.175	22950
364.258	86008
364.342	97756
364.426	140621
364.510	71446
364.594	26796
364.677	18684
364.761	48291
364.845	33282
364.929	10592
365.013	8435
365.096	7935
365.180	8614
365.264	17371
365.347	66405
365.431	27796
365.515	6457
365.598	3347
365.682	4942
365.766	7590
365.849	8985
365.933	4203
366.017	6740
366.100	6209
366.184	2476
366.267	4433
366.351	2768
366.435	3144
366.518	2177
366.602	3531
366.685	2992
366.769	2810
366.852	6258
366.936	9435
367.019	4990
367.103	5498
367.186	11048
367.270	4968
367.353	2334
367.436	3980
367.520	2772
367.603	4329
367.687	4026
367.770	7173
367.853	5348
367.937	15080
368.020	21893
368.104	5559
368.187	5307
368.270	7622
368.353	6318
368.437	9629
368.520	23680
368.603	13227
368.687	15131
368.770	27553
368.853	6926
368.936	8562
369.020	8663
369.103	3622
369.186	2576
369.269	3082
369.352	4368
369.436	6333
369.519	4806
369.602	1229
369.685	3391
369.768	2680
369.851	3604
369.934	2989
370.018	2639
370.101	4857
370.184	6291
370.267	5224
370.350	6332
370.433	9591
370.516	25566
370.599	38531
370.682	11583
370.765	15729
370.848	19030
370.931	35860
371.014	16108
371.097	3651
371.180	3774
371.263	3449
371.346	1032
371.429	4015
371.511	2630
371.594	5284
371.677	8457
371.760	12100
371.843	8393
371.926	28941
372.009	61594
372.091	24359
372.174	15845
372.257	35204
372.340	14750
372.423	14457
372.505	17306
372.588	8195
372.671	13199
372.754	34339
372.836	17571
372.919	20405
373.002	39978
373.085	10551
373.167	8201
373.250	14819
373.332	33057
373.415	43098
373.498	83974
373.580	31366
373.663	53603
373.746	64494
373.828	13698
373.911	8206
373.993	9004
374.076	36638
374.159	33925
374.241	12214
374.324	29248
374.406	19607
374.489	24082
374.571	69741
374.654	27856
374.736	14458
374.819	42387
374.901	60784
374.983	62542
375.066	12335
375.148	6538
375.231	30417
375.313	57421
375.395	19793
375.478	4995
375.560	5504
375.643	4918
375.725	14097
375.807	56370
375.890	47168
375.972	20197
376.054	11852
376.136	19204
376.219	7980
376.301	16812
376.383	47773
376.465	17421
376.548	9878
376.630	14268
376.712	41758
376.794	17856
376.877	4260
376.959	1930
377.041	2775
377.123	8246
377.205	10287
377.287	2466
377.369	3521
377.452	3001
377.534	3300
377.616	2892
377.698	2214
377.780	1068
377.862	3742
377.944	3418
378.026	1953
378.108	3056
378.190	2765
378.272	3919
378.354	2060
378.436	1687
378.518	3867
378.600	13652
378.682	10922
378.764	19730
378.846	16461
378.928	5672
379.010	7105
379.091	4377
379.173	3351
379.255	2098
379.337	3206
379.419	9185
379.501	28649
379.583	11816
379.664	4412
379.746	5438
379.828	20417
379.910	25888
379.991	23689
380.073	4402
380.155	3926
380.237	2602
380.318	2764
380.400	2094
380.482	5939
380.564	7127
380.645	6421
380.727	5988
380.809	5555
380.890	2968
380.972	2981
381.053	3357
381.135	4535
381.217	8004
381.298	21911
381.380	11038
381.461	9937
381.543	41375
381.624	51663
381.706	10260
381.787	7765
381.869	7355
381.951	18598
382.032	65075
382.113	42168
382.195	10022
382.276	9653
382.358	14829
382.439	38043
382.521	43691
382.602	67538
382.684	35671
382.765	67595
382.846	113546
382.928	221373
383.009	124323
383.090	91502
383.172	287979
383.253	392485
383.334	130852
383.416	82859
383.497	48633
383.578	40866
383.659	78128
383.741	249528
383.822	514860
383.903	273953
383.984	82530
384.066	86248
384.147	50495
384.228	17545
384.309	14066
384.390	11931
384.471	10362
384.553	9892
384.634	10562
384.715	10816
384.796	7710
384.877	9092
384.958	22676
385.039	23696
385.120	10304
385.201	8142
385.282	8980
385.363	11666
385.444	10221
385.525	13181
385.606	31892
385.687	26957
385.768	10490
385.849	10740
385.930	32972
386.011	52603
386.092	15254
386.173	7426
386.254	6293
386.335	6838
386.416	6195
386.496	14600
386.577	22278
386.658	10646
386.739	7044
386.820	8626
386.901	6858
386.981	7646
387.062	6348
387.143	8446
387.224	21377
387.304	22545
387.385	10964
387.466	9060
387.547	10541
387.627	8280
387.708	11753
387.789	38009
387.869	43380
387.950	15436
388.031	5382
388.111	5484
388.192	13669
388.273	17987
388.353	10744
388.434	6057
388.514	8820
388.595	32376
388.676	40634
388.756	20276
388.837	18208
388.917	12168
388.998	3351
389.078	5779
389.159	3118
389.239	2527
389.320	6534
389.400	3482
389.480	8917
389.561	21790
389.641	12266
389.722	5277
389.802	6295
389.883	10794
389.963	26941
390.043	18369
390.124	6560
390.204	9082
390.284	22575
390.365	14164
390.445	25457
390.525	60362
390.605	47326
390.686	12944
390.766	7421
390.846	5357
390.927	3278
391.007	3434
391.087	4909
391.167	5366
391.247	3394
391.328	6606
391.408	10678
391.488	8410
391.568	3419
391.648	4738
391.728	6564
391.808	7202
391.888	7006
391.969	13913
392.049	19946
392.129	13382
392.209	12703
392.289	27607
392.369	17364
392.449	20289
392.529	12827
392.609	12155
392.689	14052
392.769	30207
392.849	29744
392.929	31206
393.009	53824
393.089	53619
393.169	75700
393.248	209912
393.328	546705
393.408	560668
393.488	216812
393.568	74213
393.648	37742
393.728	24057
393.807	16070
393.887	15314
393.967	13504
394.047	12679
394.127	12364
394.206	18320
394.286	56656
394.366	224389
394.446	238853
394.525	61628
394.605	17619
394.685	15792
394.764	26237
394.844	45067
394.924	35310
395.003	11434
395.083	6864
395.163	7576
395.242	6612
395.322	6788
395.402	4724
395.481	8549
395.561	18575
395.640	51410
395.720	52229
395.799	59435
395.879	41402
395.958	27020
396.038	83797
396.117	288079
396.197	312529
396.276	104800
396.356	38550
396.435	30965
396.515	25155
396.594	30624
396.673	60908
396.753	201175
396.832	497811
396.912	370726
396.991	102804
397.070	35246
397.150	19310
397.229	16627
397.308	26025
397.388	50106
397.467	25262
397.546	10130
397.625	4666
397.705	8233
397.784	6400
397.863	3963
397.942	4081
398.022	4627
398.101	14565
398.180	43338
398.259	22853
398.338	6914
398.417	4265
398.497	3188
398.576	3961
398.655	1860
398.734	3373
398.813	3951
398.892	12728
398.971	46945
399.050	21731
399.129	2358
399.208	2737
399.287	2899
399.366	1780
399.445	2183
399.524	2134
399.603	1545
399.682	3734
399.761	11239
399.840	46266
399.919	36871
399.998	4816
400.077	1403
400.156	609
400.235	4601
400.313	1175
400.392	2519
400.471	9607
400.550	16598
400.629	3594
400.708	3336
400.786	3560
400.865	9832
400.944	9102
401.023	5686
401.102	908
401.180	1906
401.259	1917
401.338	2981
401.416	3105
401.495	2279
401.574	2605
401.652	1797
401.731	3149
401.810	1395
401.888	426
401.967	897
402.046	1724
402.124	3438
402.203	2400
402.281	2361
402.360	3877
402.438	12493
402.517	8062
402.596	3060
402.674	2296
402.753	1980
402.831	1442
402.910	3312
402.988	4809
403.066	14987
403.145	9303
403.223	6556
403.302	11334
403.380	9304
403.459	8062
403.537	4468
403.615	2339
403.694	618
403.772	2147
403.850	2002
403.929	1623
404.007	1787
404.085	3661
404.164	3113
404.242	3883
404.320	16059
404.398	46703
404.477	45596
404.555	59420
404.633	53210
404.711	36139
404.789	24821
404.868	5441
404.946	2357
405.024	1921
405.102	2303
405.180	1190
405.258	578
405.336	1687
405.415	1462
405.493	4249
405.571	3731
405.649	969
405.727	1378
405.805	3643
405.883	2592
405.961	3860
406.039	3458
406.117	650
406.195	2889
406.273	10353
406.351	43381
406.429	25865
406.507	5461
406.585	1621
406.663	2720
406.740	1752
406.818	1698
406.896	683
406.974	2645
407.052	2440
407.130	24080
407.208	33785
407.285	7380
407.363	-129
407.441	1645
407.519	760
407.596	2439
407.674	3896
407.752	15953
407.830	18022
407.907	6929
407.985	1175
408.063	2483
408.141	1198
408.218	3474
408.296	1734
408.373	1779
408.451	1589
408.529	2121
408.606	1473
408.684	769
408.762	1172
408.839	913
408.917	960
408.994	1722
409.072	1479
409.149	2506
409.227	4416
409.304	6952
409.382	8055
409.459	8059
409.537	10445
409.614	11657
409.692	7612
409.769	7707
409.846	10617
409.924	15603
410.001	9647
410.079	7937
410.156	6263
410.233	4685
410.311	3332
410.388	3226
410.465	2255
410.543	2902
410.620	2371
410.697	2716
410.775	2320
410.852	990
410.929	3278
411.006	4371
411.083	1463
411.161	3993
411.238	5581
411.315	3480
411.392	1165
411.469	3228
411.547	2374
411.624	287
411.701	1038
411.778	2346
411.855	2576
411.932	2062
412.009	717
412.086	2445
412.163	1522
412.240	2462
412.317	2051
412.394	2431
412.471	1170
412.548	683
412.625	680
412.702	2581
412.779	3615
412.856	2919
412.933	1748
413.010	1565
413.087	1906
413.164	8633
413.241	12160
413.318	3018
413.395	2142
413.471	3396
413.548	1347
413.625	1686
413.702	385
413.779	2037
413.855	-186
413.932	-19
414.009	-420
414.086	587
414.162	1270
414.239	3082
414.316	7723
414.393	20199
414.469	5684
414.546	1317
414.623	659
414.699	1144
414.776	891
414.853	473
414.929	1563
415.006	1442
415.082	1655
415.159	1496
415.236	425
415.312	1674
415.389	1887
415.465	2052
415.542	740
415.618	664
415.695	1423
415.771	641
415.848	1013
415.924	1118
416.000	1298
416.077	1835
416.153	-668
416.230	-128
416.306	-210
416.383	1018
416.459	666
416.535	1228
416.612	279
416.688	1269
416.764	704
416.841	717
416.917	1089
416.993	1197
417.069	1863
417.146	1759
417.222	2940
417.298	1551
417.374	673
417.451	1979
417.527	713
417.603	1729
417.679	801
417.755	1364
417.831	420
417.908	706
417.984	631
418.060	-26
418.136	2872
418.212	2730
418.288	349
418.364	1085
418.440	240
418.516	1856
418.592	2506
418.668	4671
418.744	5584
418.820	4334
418.896	1033
418.972	404
419.048	204
419.124	3065
419.200	1880
419.276	1154
419.352	186
419.428	1009
419.504	1005
419.579	437
419.655	591
419.731	1622
419.807	3780
419.883	6431
419.959	4839
420.034	1945
420.110	2886
420.186	11995
420.262	9231
420.337	2463
420.413	1282
420.489	1106
420.565	2648
420.640	1810
420.716	1614
420.792	1500
420.867	2042
420.943	1848
421.019	2783
421.094	2537
421.170	3431
421.245	2447
421.321	3032
421.397	2861
421.472	5287
421.548	10838
421.623	8309
421.699	6487
421.774	6273
421.850	6222
421.925	9410
422.001	10159
422.076	11807
422.152	14263
422.227	19861
422.302	28678
422.378	43670
422.453	77162
422.529	159142
422.604	280928
422.679	298913
422.755	284839
422.830	172617
422.905	84742
422.981	47817
423.056	31944
423.131	22530
423.207	17932
423.282	13398
423.357	13326
423.432	10321
423.508	8487
423.583	10497
423.658	9208
423.733	5829
423.808	5917
423.883	6668
423.959	6433
424.034	5825
424.109	5653
424.184	3510
424.259	2862
424.334	2413
424.409	1865
424.484	1517
424.559	2237
424.634	1488
424.709	1935
424.784	2748
424.859	1267
424.934	2290
425.009	7378
425.084	13637
425.159	5175
425.234	1969
425.309	1333
425.384	3502
425.459	5692
425.534	2390
425.609	898
425.683	872
425.758	649
425.833	875
425.908	2315
425.983	4494
426.058	14253
426.132	5317
426.207	1624
426.282	3873
426.357	3128
426.431	715
426.506	1471
426.581	679
426.655	1586
426.730	1334
426.805	181
426.879	1435
426.954	774
427.029	1793
427.103	13267
427.178	34687
427.253	15964
427.327	2356
427.402	3269
427.476	8441
427.551	2661
427.625	1741
427.700	2394
427.774	-80
427.849	2500
427.923	944
427.998	1435
428.072	651
428.147	6670
428.221	29651
428.296	97933
428.370	52103
428.444	6358
428.519	5577
428.593	10284
428.667	8166
428.742	10236
428.816	13437
428.890	63101
428.965	95217
429.039	25878
429.113	11251
429.188	4851
429.262	1168
429.336	2785
429.410	5779
429.485	6017
429.559	7658
429.633	7015
429.707	2949
429.781	11182
429.855	64384
429.930	92306
430.004	35435
430.078	47223
430.152	53888
430.226	124383
430.300	119816
430.374	20981
430.448	6227
430.522	14673
430.596	42237
430.670	31857
430.744	83932
430.818	101828
430.892	17246
430.966	3046
431.040	2082
431.114	345
431.188	479
431.262	988
431.336	422
431.410	3962
431.484	9853
431.557	7237
431.631	1003
431.705	2735
431.779	21026
431.853	91030
431.927	60363
432.000	7163
432.074	1224
432.148	1857
432.222	738
432.295	488
432.369	-173
432.443	1847
432.516	13211
432.590	36158
432.664	11892
432.737	1335
432.811	-447
432.885	-206
432.958	1095
433.032	77
433.106	-983
433.179	749
433.253	173
433.326	668
433.400	-763
433.473	759
433.547	-410
433.620	227
433.694	782
433.767	1526
433.841	-159
433.914	428
433.988	-844
434.061	555
434.134	-29
434.208	269
434.281	-789
434.355	394
434.428	191
434.501	246
434.575	-112
434.648	52
434.721	-935
434.795	708
434.868	-168
434.941	243
435.014	-324
435.088	590
435.161	1750
435.234	2418
435.307	2941
435.381	2438
435.454	3254
435.527	3914
435.600	4536
435.673	5020
435.746	3381
435.819	2141
435.892	1858
435.966	711
436.039	-132
436.112	997
436.185	-64
436.258	47
436.331	-863
436.404	462
436.477	-736
436.550	-650
436.623	-428
436.696	-48
436.769	-815
436.842	-188
436.915	-29
436.987	620
437.060	-362
437.133	-99
437.206	-646
437.279	264
437.352	-215
437.425	5
437.498	-82
437.570	2002
437.643	935
437.716	313
437.789	-1449
437.861	1089
437.934	3828
438.007	1680
438.080	-407
438.152	101
438.225	1360
438.298	18296
438.370	48659
438.443	18356
438.516	2721
438.588	679
438.661	-828
438.734	-40
438.806	212
438.879	526
438.951	534
439.024	1663
439.096	-626
439.169	519
439.241	-606
439.314	-185
439.386	423
439.459	1328
439.531	1821
439.604	723
439.676	-336
439.749	-265
439.821	-506
439.893	179
439.966	-1090
440.038	968
440.110	285
440.183	16
440.255	-604
440.327	1889
440.400	6097
440.472	30862
440.544	17694
440.617	1439
440.689	2122
440.761	2373
440.833	2659
440.905	2149
440.978	-700
441.050	-62
441.122	-616
441.194	-140
441.266	-244
441.338	-294
441.411	621
441.483	8447
441.555	11563
441.627	2700
441.699	1694
441.771	2134
441.843	56
441.915	22
441.987	103
442.059	246
442.131	2051
442.203	2478
442.275	2746
442.347	5027
442.419	11342
442.491	59127
442.563	134195
442.635	51551
442.706	16257
442.778	9362
442.850	2208
442.922	1648
442.994	1789
443.066	3723
443.137	2489
443.209	4161
443.281	6645
443.353	17561
443.425	69620
443.496	220504
443.568	215335
443.640	79338
443.711	15159
443.783	5991
443.855	2926
443.926	2354
443.998	1938
444.070	2259
444.141	1306
444.213	2155
444.285	2100
444.356	2869
444.428	1479
444.499	1133
444.571	585
444.642	1145
444.714	957
444.785	2224
444.857	3228
444.928	8624
445.000	4229
445.071	7917
445.143	8074
445.214	7990
445.285	14489
445.357	42100
445.428	142546
445.500	278539
445.571	193971
445.642	112863
445.714	37154
445.785	19161
445.856	5365
445.928	4387
445.999	2960
446.070	2509
446.141	1236
446.213	1666
446.284	998
446.355	1765
446.426	1443
446.497	605
446.569	2011
446.640	2527
446.711	690
446.782	-347
446.853	488
446.924	1560
446.995	94
447.066	540
447.138	2159
447.209	1303
447.280	-821
447.351	-212
447.422	-1014
447.493	335
447.564	905
447.635	620
447.706	-589
447.777	-332
447.847	95
447.918	-659
447.989	393
448.060	1189
448.131	4126
448.202	1898
448.273	819
448.344	1114
448.414	-1037
448.485	-460
448.556	-195
448.627	-876
448.698	759
448.768	-769
448.839	-311
448.910	1357
448.981	1295
449.051	-158
449.122	-625
449.193	-386
449.263	-388
449.334	-147
449.405	177
449.475	1138
449.546	289
449.616	2672
449.687	1531
449.758	179
449.828	-1292
449.899	118
449.969	115
450.040	-377
450.110	343
450.181	-59
450.251	-1015
450.322	222
450.392	-549
450.463	116
450.533	-734
450.604	93
450.674	-586
450.744	513
450.815	-474
450.885	520
450.955	41
451.026	54
451.096	-998
451.166	531
451.237	2495
451.307	8388
451.377	2218
451.447	-53
451.518	-754
451.588	-655
451.658	-291
451.728	774
451.799	8464
451.869	8143
451.939	982
452.009	645
452.079	-644
452.149	472
452.219	1656
452.289	9799
452.360	5575
452.430	756
452.500	918
452.570	2010
452.640	4416
452.710	14780
452.780	19193
452.850	9474
452.920	4909
452.990	2144
453.060	1140
453.129	1839
453.199	1520
453.269	11746
453.339	23039
453.409	34382
453.479	37112
453.549	53465
453.619	53691
453.688	18414
453.758	2187
453.828	559
453.898	-203
453.968	618
454.037	249
454.087	345
454.107	376
454.168	-572
454.177	-725
454.247	-109
454.249	-127
454.316	-874
454.330	-721
454.386	-236
454.411	1559
454.456	4419
454.492	5538
454.525	6562
454.574	2874
454.595	1274
454.655	542
454.665	422
454.734	365
454.736	436
454.804	2245
454.817	3448
454.873	7811
454.898	8226
454.943	9023
454.979	5693
455.013	2720
455.060	1644
455.082	1283
455.141	1234
455.152	1177
455.221	6829
455.222	6950
455.291	12931
455.303	12779
455.360	11413
455.384	15470
455.430	21754
455.465	16392
455.499	11522
455.546	9080
455.569	7820
455.627	5362
455.638	5007
455.707	-55
455.708	-37
455.777	552
455.789	488
455.846	59
455.869	105
455.916	197
455.950	2
455.985	-207
456.031	-12
456.054	100
456.112	93
456.124	49
456.193	307
456.193	296
456.262	789
456.274	1060
456.332	2066
456.355	1639
456.401	664
456.436	934
456.470	1140
456.516	388
456.540	133
456.597	-4
456.609	-76
456.678	583
456.678	576
456.747	544
456.759	341
456.817	-607
456.840	-287
456.886	384
456.920	529
456.955	643
457.001	676
457.024	698
457.082	738
457.093	728
457.162	1932
457.163	1946
457.232	1549
457.243	1528
457.301	1266
457.324	1094
457.370	818
457.405	1012
457.439	1316
457.485	1190
457.508	1119
457.566	1624
457.577	1792
457.646	1974
457.647	2009
457.715	6554
457.727	7390
457.784	12380
457.808	16840
457.853	22207
457.889	25869
457.922	26396
457.969	17790
457.991	17396
458.050	20188
458.060	20730
458.129	37568
458.130	38033
458.198	40155
458.211	36104
458.267	19653
458.292	13637
458.336	8687
458.372	8196
458.405	10837
458.453	16558
458.474	20668
458.533	37255
458.543	38552
458.611	62838
458.614	63091
458.680	40792
458.694	32294
458.749	13530
458.775	9630
458.818	5462
458.855	4048
458.887	3042
458.936	2614
458.955	2588
459.016	2094
459.024	2025
459.093	2820
459.097	2790
459.162	1878
459.177	1883
459.230	2170
459.257	2274
459.299	2218
459.338	2402
459.368	2703
459.418	2936
459.437	2841
459.499	1929
459.505	1825
459.574	1289
459.579	1308
459.643	1811
459.659	1754
459.711	1727
459.740	2048
459.780	2510
459.820	2430
459.849	2238
459.900	2958
459.917	3147
459.981	2494
459.986	2449
460.054	3122
460.061	3065
460.123	2912
460.141	3116
460.191	3629
460.222	3986
460.260	4254
460.302	4659
460.328	4649
460.382	3814
460.397	3702
460.462	3777
460.465	3834
460.534	5279
460.543	5443
460.602	11613
460.623	14220
460.671	21636
460.703	29529
460.739	27910
460.783	21510
460.808	18513
460.864	5703
460.876	4419
460.944	2165
460.945	2134
461.013	2166
461.024	2077
461.081	2187
461.104	2321
461.150	2303
461.184	2277
461.218	2212
461.264	2244
461.286	2289
461.345	1969
461.355	2009
461.423	2794
461.425	2803
461.491	2409
461.505	2503
461.559	5142
461.585	5972
461.628	8154
461.665	11056
461.696	11998
461.745	14644
461.764	13308
461.825	4810
461.832	4641
461.901	3148
461.905	3180
461.969	2473
461.985	2120
462.037	2636
462.065	3177
462.105	2999
462.145	3073
462.173	4572
462.225	6871
462.241	7269
462.305	9883
462.310	9637
462.378	5616
462.385	4919
462.446	2732
462.465	2380
462.514	2413
462.545	2566
462.582	2331
462.625	1979
462.650	2103
462.705	2390
462.718	2441
462.785	2772
462.786	2791
462.854	3706
462.865	3939
462.922	4671
462.945	5060
462.990	4463
463.025	3246
463.058	2859
463.104	2696
463.126	2594
463.184	2566
463.194	2628
463.262	2857
463.264	2870
463.330	3474
463.344	3549
463.398	3668
463.424	3661
463.466	3071
463.504	2824
463.533	3257
463.583	3779
463.601	3746
463.663	3625
463.669	3666
463.737	4161
463.743	4191
463.805	6262
463.823	6930
463.873	10902
463.903	13443
463.940	14106
463.982	15241
464.008	12539
464.062	5171
464.076	4835
464.142	3149
464.144	3128
464.211	2860
464.221	2900
464.279	3101
464.301	3013
464.347	3290
464.381	3598
464.414	4196
464.461	5079
464.482	4885
464.540	4437
464.550	4332
464.617	3072
464.620	3038
464.685	3680
464.699	3737
464.753	5124
464.779	5931
464.820	5903
464.859	5846
464.888	5801
464.938	5788
464.956	5937
465.018	6100
465.023	6052
465.091	5502
465.098	5411
465.158	4522
465.177	4369
465.226	4932
465.257	5072
465.293	4457
465.336	3922
465.361	4677
465.416	6255
465.428	6630
465.495	8743
465.496	8796
465.563	14698
465.575	15801
465.631	18376
465.654	19473
465.698	12558
465.734	6331
465.765	5827
465.813	4999
465.833	4913
465.893	5159
465.900	5128
465.968	4536
465.972	4500
466.035	4163
466.052	4033
466.102	4252
466.131	4411
466.170	4386
466.210	4293
466.237	4498
466.290	4894
466.304	4917
466.369	4946
466.372	4978
466.439	5711
466.449	5785
466.506	5674
466.528	5665
466.573	8520
466.607	10591
466.641	14550
466.687	20070
466.708	21923
466.766	27131
466.775	24997
466.842	8385
466.845	7583
466.909	6303
466.925	6047
466.977	5870
467.004	5776
467.044	6185
467.083	6589
467.111	7235
467.163	8408
467.178	8661
467.242	9647
467.245	9620
467.312	8706
467.321	8571
467.379	7975
467.400	7735
467.446	8549
467.480	9114
467.559	8577
467.638	7437
467.717	7496
467.796	7827
467.875	7579
467.955	8456
468.034	12412
468.113	27135
468.192	37162
468.271	12349
468.350	10956
468.429	13472
468.508	14045
468.588	10975
468.667	8625
468.746	8829
468.825	7786
468.904	6947
468.983	7731
469.062	11809
469.141	12509
469.220	6402
469.299	6103
469.378	6563
469.456	8996
469.535	7721
469.614	6916
469.693	7517
469.772	10605
469.851	11805
469.930	8882
470.009	7464
470.088	7407
470.166	10439
470.245	14468
470.324	17100
470.403	11963
470.482	8389
470.560	6519
470.639	6935
470.718	7962
470.797	6484
470.875	7854
470.954	9578
471.033	10212
471.111	5989
471.190	4850
471.269	5031
471.347	5665
471.426	5984
471.505	7012
471.583	8076
471.662	6497
471.740	6716
471.819	5952
471.898	6424
471.976	6326
472.055	5662
472.133	6436
472.212	8272
472.290	9419
472.369	6331
472.447	5793
472.526	5512
472.604	4949
472.683	5981
472.761	5906
472.839	5622
472.918	5650
472.996	6312
473.075	6686
473.153	6163
473.231	5309
473.310	6664
473.388	6261
473.466	6271
473.545	7466
473.623	7192
473.701	6954
473.780	6471
473.858	4322
473.936	8013
474.014	6109
474.093	7406
474.171	9183
474.249	12208
474.327	8406
474.405	5459
474.484	4484
474.562	6130
474.640	5171
474.718	5799
474.796	4780
474.874	5442
474.952	5733
475.030	5035
475.108	4568
475.187	6003
475.265	5388
475.343	6886
475.421	6367
475.499	6406
475.577	5872
475.655	8006
475.733	13534
475.811	22433
475.889	20384
475.966	12342
476.044	5122
476.122	6365
476.200	5898
476.278	4879
476.356	5686
476.434	6018
476.512	5068
476.590	6420
476.667	6328
476.745	4462
476.823	5696
476.901	6235
476.979	5169
477.056	5869
477.134	5674
477.212	5873
477.290	5642
477.367	4144
477.445	4516
477.523	5060
477.601	5028
477.678	5703
477.756	6285
477.834	6690
477.911	4544
477.989	5680
478.066	4903
478.144	5985
478.222	5581
478.299	5829
478.377	6450
478.454	5865
478.532	4908
478.609	4980
478.687	4803
478.764	4654
478.842	4565
478.919	4543
478.997	5777
479.074	4795
479.152	5527
479.229	7263
479.307	4714
479.384	3612
479.461	3891
479.539	4969
479.616	5783
479.694	4732
479.771	5035
479.848	5830
479.926	6157
480.003	8261
480.080	4557
480.157	4523
480.235	4527
480.312	5365
480.389	5446
480.467	8823
480.544	10229
480.621	6087
480.698	5619
480.775	6543
480.853	5776
480.930	5551
481.007	5013
481.084	5592
481.161	6798
481.238	7032
481.315	4733
481.392	4908
481.470	5202
481.547	6098
481.624	4093
481.701	5473
481.778	4753
481.855	5767
481.932	8844
482.009	14255
482.086	9309
482.163	5649
482.240	6926
482.317	7716
482.393	7016
482.470	5585
482.547	6451
482.624	4695
482.701	5864
482.778	5395
482.855	5407
482.932	5276
483.009	4563
483.085	6633
483.162	7050
483.239	7758
483.316	5359
483.393	6658
483.469	6289
483.546	6583
483.623	6759
483.699	5189
483.776	4418
483.853	4990
483.930	8073
484.006	20240
484.083	32647
484.160	18018
484.236	24633
484.313	19004
484.389	13459
484.466	13405
484.543	13024
484.619	15067
484.696	17020
484.772	15373
484.849	14934
484.925	12918
485.002	11188
485.078	12841
485.155	12017
485.231	11479
485.308	11839
485.384	11715
485.461	13043
485.537	20876
485.614	24798
485.690	11499
485.766	10685
485.843	10672
485.919	12831
485.995	12394
486.072	10089
486.148	10193
486.224	9032
486.301	11033
486.377	12363
486.453	11158
486.530	12121
486.606	15499
486.682	16339
486.758	20654
486.835	21513
486.911	18144
486.987	27546
487.063	24457
487.139	22420
487.215	18070
487.292	14531
487.368	13349
487.444	15009
487.520	19137
487.596	22750
487.672	46580
487.748	132999
487.824	196555
487.900	65294
487.976	22597
488.052	16184
488.128	15547
488.204	12312
488.280	12381
488.356	13257
488.432	25026
488.508	35118
488.584	12950
488.660	8434
488.736	9855
488.812	8808
488.888	12505
488.964	13344
489.039	20224
489.115	28129
489.191	18455
489.267	9429
489.343	9630
489.418	8002
489.494	8858
489.570	7424
489.646	10275
489.722	7931
489.797	8602
489.873	14095
489.949	26752
490.024	20390
490.100	8757
490.176	8357
490.251	9386
490.327	9952
490.403	7006
490.478	7840
490.554	7682
490.629	7497
490.705	6967
490.781	7712
490.856	7122
490.932	8251
491.007	9002
491.083	7453
491.158	7074
491.234	11312
491.309	21164
491.385	19731
491.460	7455
491.536	8296
491.611	6546
491.686	7378
491.762	8707
491.837	13635
491.913	21415
491.988	28007
492.063	31578
492.139	15058
492.214	10137
492.289	5797
492.365	5540
492.440	6944
492.515	7084
492.590	7452
492.666	6533
492.741	9021
492.816	12838
492.891	7074
492.967	6088
493.042	6383
493.117	6754
493.192	7220
493.267	13884
493.342	42079
493.418	54904
493.493	10433
493.568	6732
493.643	5650
493.718	8210
493.793	9547
493.868	9607
493.943	6405
494.018	6113
494.093	5417
494.168	6978
494.243	5532
494.318	5922
494.393	6127
494.468	5273
494.543	5979
494.618	5808
494.693	4103
494.768	6225
494.842	6286
494.917	5650
494.992	5435
495.067	4581
495.142	5199
495.217	5034
495.292	5558
495.366	7574
495.441	7373
495.516	9036
495.591	9515
495.665	26507
495.740	52702
495.815	21500
495.890	7539
495.964	4918
496.039	8937
496.114	6824
496.188	5993
496.263	7458
496.338	5754
496.412	7521
496.487	8248
496.561	7816
496.636	7648
496.710	6916
496.785	8047
496.860	9018
496.934	6015
497.009	7370
497.083	7259
497.158	8453
497.232	9713
497.307	10571
497.381	8190
497.455	10468
497.530	12960
497.604	9307
497.679	9081
497.753	14476
497.827	15565
497.902	12392
497.976	18114
498.050	50677
498.125	191770
498.199	171671
498.273	19991
498.348	13149
498.422	11321
498.496	11639
498.570	10381
498.645	9950
498.719	8215
498.793	11713
498.867	16577
498.941	24873
499.016	78875
499.090	201364
499.164	61903
499.238	10070
499.312	7789
499.386	8671
499.460	9268
499.534	9802
499.609	11212
499.683	14125
499.757	14216
499.831	34872
499.905	133528
499.979	115756
500.053	17322
500.127	14321
500.201	9458
500.275	8470
500.349	7428
500.422	8925
500.496	11753
500.570	23669
500.644	71812
500.718	131898
500.792	25900
500.866	8234
500.940	10445
501.013	8449
501.087	7642
501.161	11284
501.235	15151
501.309	42818
501.382	115974
501.456	92417
501.530	19517
501.603	35149
501.677	12938
501.751	5902
501.825	8550
501.898	16047
501.972	44199
502.046	25020
502.119	7725
502.193	20186
502.266	47725
502.340	21360
502.413	22633
502.487	40381
502.561	21015
502.634	7724
502.708	5666
502.781	4720
502.855	5676
502.928	3431
503.002	4422
503.075	4607
503.149	5293
503.222	5382
503.295	5577
503.369	7344
503.442	10437
503.516	34762
503.589	83479
503.662	50725
503.736	17978
503.809	40274
503.882	32207
503.956	51436
504.029	54277
504.102	72707
504.175	100807
504.249	37608
504.322	16147
504.395	10520
504.468	6670
504.542	5818
504.615	4720
504.688	5234
504.761	3396
504.834	6059
504.907	4714
504.980	6758
505.053	4119
505.127	3598
505.200	8265
505.273	7079
505.346	4428
505.419	3810
505.492	4522
505.565	3121
505.638	3205
505.711	3313
505.784	2959
505.857	3362
505.930	5248
506.003	2306
506.076	6150
506.149	5346
506.221	4092
506.294	6719
506.367	17868
506.440	60492
506.513	28942
506.586	6955
506.659	3182
506.731	3475
506.804	3387
506.877	4489
506.950	4182
507.022	3722
507.095	3733
507.168	5816
507.241	4209
507.313	2932
507.386	2110
507.459	5206
507.531	3349
507.604	2152
507.677	3948
507.749	1477
507.822	4700
507.894	6290
507.967	9882
508.040	5757
508.112	5903
508.185	5152
508.257	3048
508.330	7368
508.402	4276
508.475	5310
508.547	6865
508.620	5382
508.692	8414
508.765	5817
508.837	3979
508.909	4936
508.982	4662
509.054	4934
509.127	3569
509.199	3309
509.271	3052
509.344	3801
509.416	4740
509.488	3605
509.560	4139
509.633	4018
509.705	4617
509.777	6361
509.849	6885
509.922	5514
509.994	4280
510.066	6251
510.138	5261
510.210	11421
510.283	9180
510.355	7305
510.427	6191
510.499	5611
510.571	5245
510.643	5268
510.715	7987
510.787	5472
510.859	6846
510.931	6653
511.003	7391
511.076	7580
511.148	5196
511.219	7087
511.291	9750
511.363	11579
511.435	5841
511.507	4318
511.579	6809
511.651	6105
511.723	4707
511.795	4902
511.867	4899
511.939	6747
512.010	10716
512.082	9494
512.154	3640
512.226	5138
512.298	8224
512.369	10254
512.441	8516
512.513	6999
512.585	5179
512.656	7401
512.728	6641
512.800	4507
512.871	5756
512.943	5990
513.015	3514
513.086	5913
513.158	4970
513.230	5235
513.301	6105
513.373	7412
513.444	5446
513.516	4955
513.588	3832
513.659	5872
513.731	5797
513.802	4337
513.874	10082
513.945	12329
514.016	4786
514.088	5414
514.159	4027
514.231	7066
514.302	8052
514.374	7735
514.445	5567
514.516	14852
514.588	10085
514.659	6750
514.730	11226
514.802	9294
514.873	4210
514.944	8149
515.016	6357
515.087	6443
515.158	7832
515.229	12723
515.301	5164
515.372	8026
515.443	5098
515.514	5173
515.585	4617
515.656	6221
515.728	5164
515.799	4853
515.870	5940
515.941	6211
516.012	5517
516.083	9261
516.154	8076
516.225	11010
516.296	11688
516.367	10330
516.438	11010
516.509	15062
516.580	24539
516.651	87244
516.722	276935
516.793	106139
516.864	21837
516.935	21291
517.006	23485
517.077	31850
517.148	79497
517.219	353548
517.289	503817
517.360	114763
517.431	32973
517.502	13050
517.573	12126
517.643	11948
517.714	12453
517.785	14350
517.856	14937
517.926	19915
517.997	20898
518.068	24435
518.138	34453
518.209	59135
518.280	237473
518.350	765603
518.421	276733
518.492	38431
518.562	23498
518.633	22904
518.703	24764
518.774	55748
518.845	135365
518.915	124405
518.986	36965
519.056	20148
519.127	19543
519.197	27892
519.268	66887
519.338	42201
519.408	11687
519.479	10373
519.549	7656
519.620	8263
519.690	6222
519.760	6404
519.831	6452
519.901	6077
519.971	6432
520.042	6447
520.112	7117
520.182	8204
520.253	7135
520.323	6013
520.393	6085
520.463	12030
520.534	5759
520.604	15562
520.674	9422
520.744	8872
520.814	13129
520.885	14397
520.955	23883
521.025	79399
521.095	27899
521.165	7323
521.235	4683
521.305	5383
521.375	5167
521.445	6444
521.515	5868
521.585	8038
521.655	4904
521.725	6871
521.795	6172
521.865	3451
521.935	9771
522.005	5794
522.075	4112
522.145	5884
522.215	5808
522.285	9410
522.355	10573
522.424	21240
522.494	14885
522.564	8183
522.634	11510
522.704	28129
522.774	10108
522.843	5351
522.913	4820
522.983	6386
523.053	3887
523.122	6886
523.192	5442
523.262	15480
523.331	12572
523.401	4926
523.471	4094
523.540	5345
523.610	3315
523.680	5038
523.749	4680
523.819	7141
523.888	4861
523.958	5545
524.027	4799
524.097	5329
524.166	4758
524.236	3493
524.305	5991
524.375	4302
524.444	3467
524.514	7033
524.583	5422
524.653	6433
524.722	6718
524.791	4054
524.861	5896
524.930	3587
524.999	4668
525.069	6858
525.138	5507
525.207	6659
525.277	6125
525.346	6363
525.415	6755
525.484	6244
525.554	7206
525.623	8945
525.692	8641
525.761	10567
525.830	12432
525.900	16587
525.969	24926
526.038	45031
526.107	97784
526.176	281411
526.245	220331
526.314	63501
526.383	141733
526.452	191902
526.522	311640
526.591	283551
526.660	47534
526.729	27168
526.797	30319
526.867	52705
526.935	190348
527.004	547436
527.073	314299
527.142	33255
527.211	14029
527.280	11496
527.349	9093
527.418	5825
527.487	6765
527.555	4900
527.624	4451
527.693	4092
527.762	6714
527.831	3976
527.899	4290
527.968	3960
528.037	2461
528.106	5351
528.174	6708
528.243	7219
528.312	8414
528.380	8632
528.449	3878
528.518	5916
528.586	2046
528.655	4164
528.723	3539
528.792	3926
528.861	4198
528.929	3737
528.998	6327
529.066	7888
529.135	14458
529.203	12950
529.272	17172
529.340	22962
529.409	21098
529.477	18363
529.545	17333
529.614	23046
529.682	23990
529.751	27575
529.819	29859
529.887	32165
529.956	28107
530.024	27871
530.092	24678
530.161	24569
530.229	26403
530.297	28135
530.365	27718
530.434	29183
530.502	29529
530.570	26635
530.638	21669
530.707	22284
530.775	21198
530.843	21187
530.911	24408
530.979	23870
531.047	27353
531.115	28281
531.183	24301
531.252	23975
531.320	22113
531.388	21614
531.456	25836
531.524	25775
531.592	27943
531.660	33443
531.728	28224
531.796	26536
531.864	27139
531.932	27613
532.000	25872
532.067	29592
532.135	31916
532.203	33300
532.271	35571
532.339	36329
532.407	40928
532.475	34865
532.542	31170
532.610	31246
532.678	33551
532.746	52935
532.814	81490
532.881	42894
532.949	31869
533.017	31005
533.084	29563
533.152	28268
533.220	27067
533.287	28258
533.355	29818
533.423	30014
533.490	29744
533.558	29422
533.625	28805
533.693	27285
533.761	26801
533.828	26896
533.896	25498
533.963	32343
534.031	34395
534.098	35837
534.166	29124
534.233	27146
534.300	28510
534.368	26994
534.435	25724
534.503	25032
534.570	26275
534.637	27654
534.705	29288
534.772	30404
534.840	43738
534.907	145578
534.974	166740
535.041	32447
535.109	22277
535.176	20616
535.243	19941
535.310	21134
535.378	20285
535.445	19175
535.512	18371
535.579	17614
535.646	15755
535.714	17868
535.781	18363
535.848	19587
535.915	20288
535.982	21853
536.049	20751
536.116	19755
536.183	16248
536.250	16478
536.317	14926
536.384	15377
536.451	15896
536.518	16704
536.585	14117
536.652	17829
536.719	17036
536.786	14418
536.853	14339
536.920	15967
536.987	16827
537.053	16600
537.120	36538
537.187	30158
537.254	13359
537.321	12967
537.388	14000
537.454	11593
537.521	11402
537.588	10938
537.654	11211
537.721	11876
537.788	12467
537.855	11296
537.921	12332
537.988	11177
538.055	10938
538.121	9680
538.188	10744
538.254	11238
538.321	13758
538.388	11596
538.454	9583
538.521	10954
538.587	10243
538.654	10034
538.720	9327
538.787	10176
538.853	9654
538.920	10323
538.986	9675
539.053	9115
539.119	8964
539.185	9093
539.252	10901
539.318	10634
539.385	11928
539.451	9525
539.517	10436
539.583	10765
539.650	14469
539.716	25733
539.782	10930
539.849	7075
539.915	8121
539.981	7919
540.047	9695
540.114	9112
540.180	9199
540.246	8342
540.312	9520
540.378	11855
540.444	13311
540.510	14602
540.576	27001
540.643	12215
540.709	6394
540.775	8945
540.841	6961
540.907	9701
540.973	12282
541.039	9596
541.105	9350
541.171	7694
541.237	7471
541.303	8393
541.369	10150
541.435	9462
541.500	10726
541.566	7754
541.632	6940
541.698	6306
541.764	8656
541.830	6751
541.896	5973
541.961	8149
542.027	6566
542.093	8081
542.159	8146
542.224	7595
542.290	9476
542.356	10802
542.421	11395
542.487	8790
542.553	6935
542.618	7749
542.684	6561
542.750	6944
542.815	8824
542.881	10452
542.947	23957
543.012	16921
543.078	6792
543.143	6279
543.209	6668
543.274	6594
543.340	7981
543.405	11806
543.471	14099
543.536	7437
543.602	6705
543.667	6128
543.732	7711
543.798	6941
543.863	7416
543.928	6167
543.994	5481
544.059	6259
544.124	6957
544.190	8304
544.255	7377
544.320	8156
544.386	6891
544.451	8810
544.516	9390
544.581	8641
544.646	16705
544.712	22713
544.777	9452
544.842	8655
544.907	7557
544.972	7639
545.037	8005
545.102	9436
545.168	8004
545.233	9391
545.298	9212
545.363	9785
545.428	10622
545.493	13738
545.558	18524
545.623	12154
545.688	8306
545.753	9064
545.818	9073
545.883	10058
545.947	8844
546.012	10619
546.077	10165
546.142	11012
546.207	9071
546.272	12767
546.337	11896
546.401	12080
546.466	11730
546.531	11204
546.596	13847
546.661	14303
546.725	13442
546.790	13894
546.855	16213
546.919	15371
546.984	17913
547.049	18985
547.113	21600
547.178	23489
547.243	26633
547.307	29731
547.372	34008
547.436	34227
547.501	34681
547.565	37957
547.630	34142
547.695	33081
547.759	35340
547.823	34116
547.888	33793
547.952	34219
548.017	36711
548.081	37796
548.146	38994
548.210	39860
548.274	39634
548.339	38240
548.403	35705
548.468	33911
548.532	32521
548.596	33213
548.660	33968
548.725	38164
548.789	39861
548.853	41191
548.917	37576
548.982	39172
549.046	36011
549.110	28939
549.174	30147
549.238	36385
549.303	39364
549.367	40738
549.431	38393
549.495	35464
549.559	36109
549.623	41906
549.687	44602
549.751	46411
549.815	54109
549.879	54344
549.943	51021
550.007	55171
550.071	53029
550.135	49776
550.199	45284
550.263	45370
550.327	44044
550.391	46262
550.455	48476
550.519	52102
550.582	53813
550.646	62957
550.710	64477
550.774	61744
550.838	63682
550.901	63811
550.965	69539
551.029	71638
551.093	79842
551.156	89651
551.220	112091
551.284	119799
551.347	88270
551.411	85397
551.475	81997
551.538	69388
551.602	62973
551.666	59490
551.729	55652
551.793	55165
551.856	52170
551.920	53483
551.983	53273
552.047	52916
552.110	52057
552.174	52886
552.237	53739
552.301	50663
552.364	48113
552.428	45943
552.491	48557
552.554	50249
552.618	50203
552.681	52106
552.745	51337
552.808	61969
552.871	70928
552.934	57843
552.998	51808
553.061	49342
553.124	48744
553.187	47595
553.251	48872
553.314	49792
553.377	50238
553.440	60145
553.503	89668
553.567	111266
553.630	58043
553.693	53311
553.756	52307
553.819	51003
553.882	48930
553.945	49743
554.008	49420
554.071	48598
554.134	50162
554.197	46263
554.260	45896
554.323	48051
554.386	48207
554.449	49515
554.512	49489
554.575	47786
554.638	46608
554.701	46711
554.764	47147
554.827	44504
554.889	42452
554.952	40175
555.015	39822
555.078	40702
555.141	41081
555.203	40211
555.266	39853
555.329	40619
555.391	38513
555.454	38315
555.517	36633
555.580	35104
555.642	34148
555.705	34260
555.768	34278
555.830	33348
555.893	31118
555.955	30954
556.018	29907
556.080	30197
556.143	29661
556.206	30593
556.268	29737
556.330	29743
556.393	28126
556.455	28855
556.518	28758
556.580	30126
556.643	25091
556.705	25213
556.767	23926
556.830	24605
556.892	24116
556.955	25202
557.017	23773
557.079	23684
557.142	21930
557.204	23183
557.266	25962
557.328	23101
557.391	19837
557.453	19502
557.515	20409
557.577	21111
557.639	21546
557.701	20301
557.764	20863
557.826	21927
557.888	23631
557.950	24621
558.012	27938
558.074	38092
558.136	88680
558.198	205397
558.260	71353
558.322	29051
558.384	26904
558.446	30357
558.508	32738
558.570	39807
558.632	48250
558.694	65820
558.756	113774
558.818	345451
558.880	737566
558.942	252273
559.003	218476
559.065	103473
559.127	39090
559.189	39100
559.251	45148
559.312	71219
559.374	176493
559.436	530324
559.498	244059
559.559	45490
559.621	37671
559.683	47434
559.744	84263
559.806	268439
559.868	372043
559.929	73786
559.991	42327
560.052	71057
560.114	200667
560.176	124644
560.237	115986
560.299	182584
560.360	38317
560.422	15818
560.483	14085
560.545	13167
560.606	11575
560.667	12098
560.729	10625
560.790	10387
560.852	10294
560.913	9122
560.974	10259
561.036	9800
561.097	9819
561.158	10123
561.220	10337
561.281	9414
561.342	9310
561.403	10043
561.465	9961
561.526	15674
561.587	17145
561.648	9418
561.709	8603
561.771	8963
561.832	8217
561.893	8847
561.954	7895
562.015	8634
562.076	7986
562.137	8381
562.198	8406
562.259	7614
562.320	7776
562.381	9075
562.442	9207
562.503	8049
562.564	8867
562.625	8284
562.686	8299
562.747	7377
562.808	7919
562.869	8453
562.930	8820
562.991	8438
563.051	7479
563.112	7325
563.173	7045
563.234	7281
563.294	7126
563.355	6708
563.416	7963
563.477	7085
563.537	7444
563.598	7899
563.659	6979
563.720	6564
563.780	7283
563.841	7860
563.901	8150
563.962	7596
564.023	7078
564.083	7947
564.144	7275
564.204	6745
564.265	7117
564.325	8500
564.386	13176
564.446	11720
564.507	7241
564.567	6973
564.628	6673
564.688	6952
564.749	6714
564.809	7592
564.869	9222
564.930	7243
564.990	7184
565.050	6693
565.111	7258
565.171	7238
565.231	6420
565.292	7452
565.352	5692
565.412	7292
565.472	6555
565.532	8212
565.593	6034
565.653	5626
565.713	6803
565.773	7282
565.833	7815
565.893	8644
565.953	7287
566.013	7158
566.074	7251
566.134	8520
566.194	12382
566.254	11408
566.314	8732
566.374	6214
566.434	7523
566.494	7419
566.554	7241
566.614	7989
566.673	6850
566.733	7179
566.793	7111
566.853	7955
566.913	8380
566.973	8350
567.033	8281
567.092	7303
567.152	7761
567.212	8580
567.272	8385
567.331	8456
567.391	8707
567.451	8230
567.511	10530
567.570	10264
567.630	8562
567.690	8205
567.749	7627
567.809	8370
567.868	8579
567.928	8707
567.988	9713
568.047	10533
568.107	9604
568.166	12400
568.226	15635
568.285	19926
568.345	18374
568.404	16670
568.464	15141
568.523	12618
568.582	13590
568.642	14844
568.701	16911
568.761	22388
568.820	28840
568.879	30432
568.939	27058
568.998	20408
569.057	15321
569.116	13233
569.176	11876
569.235	10731
569.294	10383
569.353	9977
569.413	9297
569.472	7880
569.531	8108
569.590	7733
569.649	6960
569.708	7696
569.767	8381
569.827	7809
569.886	6178
569.945	7350
570.004	6979
570.063	6783
570.122	7486
570.181	7708
570.240	8528
570.299	7761
570.358	7857
570.417	6678
570.475	6774
570.534	7493
570.593	6816
570.652	7556
570.711	6924
570.770	6944
570.829	7297
570.887	6863
570.946	7646
571.005	6793
571.064	6576
571.122	8852
571.181	7494
571.240	7330
571.299	6616
571.357	7088
571.416	7382
571.475	7322
571.533	7681
571.592	7760
571.650	8449
571.709	6989
571.768	6989
571.826	7593
571.885	7260
571.943	6685
572.002	6559
572.060	6915
572.119	6255
572.177	6700
572.236	6250
572.294	6495
572.352	7019
572.411	6787
572.469	6621
572.528	6737
572.586	6106
572.644	7725
572.703	7172
572.761	5843
572.819	5755
572.877	5587
572.936	6253
572.994	6201
573.052	5153
573.110	6589
573.169	6289
573.227	6625
573.285	6632
573.343	6058
573.401	5642
573.459	6788
573.517	5281
573.576	6683
573.634	6533
573.692	7182
573.750	6102
573.808	5235
573.866	6627
573.924	7375
573.982	6087
574.040	6576
574.098	6070
574.155	5822
574.213	5924
574.271	6211
574.329	5960
574.387	5163
574.445	5418
574.503	6035
574.560	4953
574.618	4960
574.676	4881
574.734	5517
574.792	5895
574.849	5892
574.907	4883
574.965	3796
575.022	4649
575.080	4767
575.138	4965
575.195	5180
575.253	4442
575.311	4410
575.368	5145
575.426	4838
575.483	5586
575.541	5416
575.598	4510
575.656	5500
575.713	4771
575.771	5384
575.828	4900
575.886	5721
575.943	5188
576.001	5595
576.058	4671
576.115	5468
576.173	5652
576.230	7120
576.287	6121
576.345	6151
576.402	5233
576.459	5584
576.517	5455
576.574	6344
576.631	6077
576.688	5433
576.746	4266
576.803	4944
576.860	5184
576.917	5643
576.974	4643
577.031	5583
577.089	6034
577.146	5219
577.203	5038
577.260	5748
577.317	6184
577.374	6219
577.431	4955
577.488	5430
577.545	5403
577.602	5872
577.659	5183
577.716	6526
577.773	7390
577.830	5822
577.886	6617
577.943	5649
578.000	5798
578.057	6814
578.114	7267
578.171	9440
578.227	13105
578.284	12746
578.341	10591
578.398	8333
578.454	8099
578.511	6905
578.568	7013
578.625	6446
578.681	5383
578.738	5611
578.794	5270
578.851	5188
578.908	5293
578.964	5080
579.021	5976
579.077	5484
579.134	5365
579.190	5116
579.247	5866
579.303	5050
579.360	4908
579.416	6857
579.473	5513
579.529	5952
579.586	5581
579.642	6381
579.698	6555
579.755	6859
579.811	6892
579.867	7050
579.924	7888
579.980	7933
580.036	10596
580.093	14008
580.149	21148
580.205	23907
580.261	17872
580.317	13328
580.374	11217
580.430	12087
580.486	9952
580.542	8414
580.598	8348
580.619	8581
580.654	8986
580.692	7599
580.710	6914
580.765	7605
580.767	7626
580.823	8601
580.838	8679
580.879	8878
580.911	8566
580.935	8354
580.984	9284
580.991	9414
581.047	9777
581.057	9809
581.103	9961
581.130	11011
581.159	12110
581.203	12724
581.215	12874
581.270	13162
581.276	12962
581.326	11089
581.349	10577
581.382	9773
581.422	10737
581.438	11157
581.494	10657
581.494	10659
581.550	10706
581.567	10618
581.606	10445
581.640	10320
581.661	10250
581.713	11162
581.717	11230
581.773	11153
581.786	11226
581.829	11441
581.859	11412
581.885	11448
581.932	11731
581.940	11753
581.996	13114
582.004	12972
582.052	12224
582.077	12523
582.107	12795
582.150	12508
582.163	12482
582.219	13621
582.223	13611
582.274	13478
582.296	13758
582.330	14052
582.368	14116
582.386	14221
582.441	15023
582.441	15019
582.497	14857
582.514	14996
582.552	15559
582.587	16474
582.608	16924
582.659	16463
582.663	16422
582.719	17275
582.732	17419
582.774	18032
582.805	17667
582.830	17448
582.877	19348
582.885	19751
582.941	22083
582.950	22693
582.996	25643
583.023	27755
583.052	30156
583.095	32153
583.107	32482
583.162	32139
583.168	32232
583.218	32288
583.240	30919
583.273	28703
583.313	26033
583.328	25119
583.384	23392
583.385	23327
583.439	21537
583.458	21136
583.494	20492
583.531	20229
583.549	20277
583.603	19913
583.605	19889
583.660	18676
583.676	18510
583.715	18359
583.748	18533
583.770	18705
583.820	19266
583.825	19317
583.881	19290
583.893	18947
583.936	17796
583.965	18480
583.991	19114
584.038	19766
584.046	19930
584.101	20098
584.110	20319
584.156	21252
584.183	21125
584.211	20922
584.255	20858
584.266	21023
584.321	22459
584.328	22548
584.376	22757
584.400	22923
584.431	23158
584.472	22822
584.486	22844
584.541	25078
584.545	25052
584.596	24409
584.617	24674
584.651	25528
584.689	25790
584.706	25843
584.761	27714
584.762	27692
584.816	27448
584.834	27508
584.871	27495
584.906	27262
584.926	27346
584.978	28372
584.980	28422
585.035	28659
585.051	28812
585.090	29565
585.123	30099
585.145	30377
585.195	30811
585.200	30962
585.254	32218
585.267	32807
585.309	34958
585.340	36801
585.364	38517
585.412	41040
585.419	41580
585.473	48225
585.484	49879
585.528	59763
585.556	69519
585.583	89700
585.628	136175
585.637	153695
585.692	295290
585.700	319378
585.747	404505
585.772	360065
585.801	238989
585.845	101850
585.856	85661
585.910	53484
585.917	50213
585.965	44531
585.989	42038
586.019	40651
586.061	39449
586.074	39173
586.128	37480
586.133	37264
586.183	35442
586.205	34693
586.237	33964
586.277	33041
586.292	32843
586.346	31590
586.349	31543
586.401	31619
586.421	30868
586.455	30043
586.493	30655
586.509	31720
586.564	33452
586.565	33543
586.618	41654
586.637	41834
586.672	37382
586.709	33874
586.727	33354
586.781	32715
586.781	32765
586.835	29451
586.853	28731
586.889	27595
586.925	26317
586.944	26278
586.996	26982
586.998	27056
587.052	27200
587.068	27330
587.106	27783
587.140	27543
587.161	27639
587.212	27909
587.215	27979
587.269	28896
587.284	28981
587.323	29263
587.356	29374
587.377	29725
587.427	30337
587.431	30462
587.485	31805
587.499	31818
587.539	32437
587.571	33394
587.593	34200
587.643	35307
587.648	35503
587.702	37073
587.715	37374
587.755	38627
587.786	39428
587.810	40298
587.858	41743
587.864	42126
587.917	45550
587.930	46083
587.971	48288
588.001	50248
588.025	52326
588.073	55405
588.079	56047
588.133	61819
588.145	62898
588.187	67694
588.217	70867
588.241	75186
588.288	83499
588.295	84981
588.348	96574
588.360	98841
588.402	110604
588.431	118904
588.456	128318
588.503	146679
588.510	150484
588.564	179484
588.575	185627
588.617	221050
588.646	245931
588.671	282054
588.718	354951
588.725	375506
588.778	538236
588.789	573228
588.832	789510
588.861	942812
588.886	1042755
588.932	1215306
588.939	1215626
588.993	1128638
589.004	1111284
589.047	1083082
589.075	1030867
589.100	875406
589.147	591499
589.154	570860
589.207	420464
589.218	390156
589.261	359148
589.290	340456
589.314	355622
589.361	387977
589.368	406686
589.421	563501
589.433	598024
589.475	825830
589.504	991599
589.528	1056352
589.576	1133711
589.582	1124036
589.635	983901
589.647	944016
589.689	660644
589.718	468885
589.742	392425
589.790	249626
589.795	243659
589.849	185423
589.861	171867
589.902	149667
589.932	132467
589.955	122576
590.004	100936
590.009	100034
590.062	87933
590.075	84755
590.115	79065
590.146	74184
590.168	71985
590.218	66609
590.222	66486
590.275	62281
590.289	61004
590.328	59117
590.360	57258
590.381	56615
590.431	54231
590.435	54230
590.488	51573
590.503	50562
590.541	49281
590.574	48141
590.594	48062
590.645	47343
590.647	47439
590.700	45613
590.716	45002
590.753	45276
590.787	45157
590.806	44964
590.859	44019
590.859	44144
590.912	43091
590.930	42622
590.965	42783
591.001	42706
591.018	42439
591.071	41148
591.072	40996
591.124	41031
591.143	40845
591.177	40920
591.214	40759
591.230	40928
591.283	41103
591.285	40964
591.336	40844
591.356	40625
591.389	40046
591.427	39084
591.442	38982
591.495	38092
591.498	37889
591.547	38282
591.569	38375
591.600	38662
591.640	38716
591.653	39087
591.706	39929
591.711	39896
591.759	40231
591.782	40179
591.811	41512
591.853	43154
591.864	42849
591.917	40437
591.924	39947
591.969	40239
591.995	40237
592.022	40383
592.066	40231
592.075	40738
592.127	42990
592.137	43270
592.180	44518
592.208	45029
592.233	44169
592.279	42105
592.285	42310
592.338	42821
592.350	42794
592.390	41681
592.421	40572
592.443	41028
592.491	41626
592.495	41838
592.548	42781
592.562	42903
592.600	42967
592.633	42738
592.653	42856
592.704	42554
592.705	42800
592.775	42818
592.846	43698
592.916	43606
592.987	44391
593.058	44156
593.128	44062
593.199	44319
593.270	43922
593.341	44125
593.411	45390
593.482	46505
593.553	48668
593.623	47412
593.694	49615
593.764	51092
593.835	49114
593.906	49414
593.976	50790
594.047	50568
594.117	56488
594.188	55956
594.258	52702
594.329	53161
594.399	54970
594.470	55444
594.540	57114
594.611	57844
594.681	58229
594.751	58538
594.822	59989
594.892	62903
594.963	64872
595.033	65165
595.103	66072
595.174	68316
595.244	76077
595.314	81626
595.384	72155
595.455	73403
595.525	75993
595.595	78742
595.665	79453
595.736	77062
595.806	79649
595.876	79943
595.946	81455
596.016	83042
596.087	87708
596.157	89116
596.227	89128
596.297	92772
596.367	98160
596.437	103982
596.507	107389
596.577	111732
596.647	107060
596.717	110390
596.787	112083
596.857	110784
596.927	114928
596.997	115014
597.067	118754
597.137	121299
597.207	123853
597.277	124447
597.347	121004
597.417	120488
597.487	122450
597.557	125465
597.626	128426
597.696	132417
597.766	134181
597.836	137270
597.906	128159
597.975	127744
598.045	129580
598.115	134828
598.185	142009
598.254	153975
598.324	163206
598.394	166794
598.464	164263
598.533	164797
598.603	162791
598.672	160329
598.742	166272
598.812	167471
598.881	173666
598.951	173567
599.020	179456
599.090	183915
599.159	188699
599.229	188199
599.299	191419
599.368	195376
599.437	197873
599.507	192901
599.576	195889
599.646	198347
599.715	202706
599.785	204073
599.854	206133
599.924	209399
599.993	212531
600.062	214677
600.132	222032
600.201	231488
600.270	249876
600.340	260902
600.409	262106
600.478	266703
600.547	274542
600.617	269669
600.686	257309
600.755	259589
600.824	259769
600.894	264751
600.963	270997
601.032	276532
601.101	283602
601.170	287326
601.239	291808
601.308	298592
601.378	307003
601.447	315243
601.516	321647
601.585	330834
601.654	340492
601.723	349391
601.792	359478
601.861	375678
601.930	396343
601.999	407909
602.068	407187
602.137	406809
602.206	407437
602.275	412877
602.343	416141
602.412	421652
602.481	424745
602.550	426861
602.619	437540
602.688	431779
602.756	442997
602.825	435798
602.894	451936
602.963	439227
603.032	454806
603.100	451247
603.169	439266
603.238	462730
603.307	428623
603.375	438456
603.444	461399
603.513	414005
603.581	436830
603.650	462370
603.719	366923
603.787	346014
603.856	352349
603.924	356043
603.993	367985
604.061	376784
604.130	384831
604.198	395482
604.267	399939
604.335	410064
604.404	409266
604.472	427124
604.541	423873
604.609	444495
604.678	459432
604.746	468174
604.815	494799
604.883	462412
604.951	447222
605.020	462596
605.088	411491
605.156	381815
605.225	381163
605.293	375758
605.361	382898
605.429	369572
605.498	384890
605.566	368869
605.634	392971
605.702	380421
605.771	387142
605.839	397701
605.907	356155
605.975	391317
606.043	363212
606.111	345827
606.180	400655
606.248	338443
606.316	336781
606.384	382936
606.452	251085
606.520	178989
606.588	178206
606.656	176461
606.724	174496
606.792	165801
606.860	153426
606.928	142279
606.996	137859
607.064	138403
607.132	142576
607.200	146299
607.267	152226
607.335	154772
607.403	157735
607.471	154289
607.539	150642
607.607	149202
607.674	134255
607.742	135215
607.810	133585
607.878	133283
607.946	135477
608.013	139282
608.081	139741
608.149	139962
608.216	140988
608.284	146791
608.352	142744
608.419	142427
608.487	141635
608.555	131923
608.622	137980
608.690	138550
608.757	144444
608.825	147454
608.893	142861
608.960	135593
609.028	132585
609.095	135797
609.163	129107
609.230	116847
609.298	108012
609.365	113194
609.432	122615
609.500	132111
609.567	151349
609.635	173019
609.702	182831
609.769	176476
609.837	138475
609.904	123447
609.971	131087
610.039	150799
610.106	211446
610.173	402879
610.241	884142
610.308	727482
610.375	347596
610.442	174451
610.509	139324
610.577	129630
610.644	127955
610.711	129946
610.778	132394
610.845	136117
610.912	145117
610.980	150433
611.047	155830
611.114	147926
611.181	141185
611.248	139765
611.315	148137
611.382	151234
611.449	156756
611.516	160036
611.583	158414
611.650	158342
611.717	162260
611.784	166128
611.851	173336
611.918	186507
611.984	219467
612.051	314522
612.118	611633
612.185	1332638
612.252	904077
612.319	294596
612.386	223912
612.452	197847
612.519	186864
612.586	185771
612.653	184977
612.719	189177
612.786	177240
612.853	166807
612.919	162858
612.986	167775
613.053	156733
613.120	145756
613.186	140117
613.253	143188
613.319	142903
613.386	142617
613.453	145156
613.519	146684
613.586	145993
613.652	151177
613.719	145868
613.785	149611
613.852	148335
613.918	145590
613.985	149073
614.051	159469
614.118	171669
614.184	165205
614.250	148096
614.317	149536
614.383	147200
614.449	151135
614.516	149373
614.582	151012
614.648	147115
614.715	146229
614.781	143742
614.847	144158
614.914	143551
614.980	139515
615.046	139911
615.112	145285
615.179	144589
615.245	147670
615.311	149849
615.377	155482
615.443	159921
615.509	156050
615.575	159672
615.642	156538
615.708	163598
615.774	170523
615.840	184212
615.906	199673
615.972	248578
616.038	374332
616.104	739679
616.170	1509376
616.236	1304229
616.302	437133
616.368	301037
616.434	224933
616.500	200258
616.565	216310
616.631	261695
616.697	227217
616.763	230257
616.829	328949
616.895	557932
616.961	553373
617.026	273785
617.092	183987
617.158	168367
617.224	159893
617.289	147119
617.355	140243
617.421	139930
617.487	139566
617.552	132957
617.618	130986
617.684	131088
617.749	133956
617.815	127228
617.880	124840
617.946	125764
618.012	126967
618.077	131081
618.143	124417
618.208	127544
618.274	136012
618.339	135814
618.405	114122
618.470	116405
618.536	116241
618.601	115833
618.667	108560
618.732	104333
618.798	102944
618.863	103568
618.928	100703
618.994	103911
619.059	104994
619.124	109049
619.190	104549
619.255	103555
619.320	103784
619.386	105045
619.451	102853
619.516	101892
619.581	102749
619.647	106000
619.712	105807
619.777	101090
619.842	103134
619.907	106824
619.972	107809
620.038	105748
620.103	104321
620.168	104409
620.233	106319
620.298	105639
620.363	107642
620.428	112052
620.493	113714
620.558	114789
620.623	116034
620.688	115598
620.753	114767
620.818	116663
620.883	117858
620.948	117737
621.013	116798
621.078	116718
621.143	115197
621.207	119728
621.272	117408
621.337	116632
621.402	115605
621.467	118615
621.532	119439
621.596	118547
621.661	113441
621.726	111429
621.791	115317
621.855	115326
621.920	115787
621.985	116834
622.049	119412
622.114	119003
622.179	120862
622.243	123904
622.308	125092
622.373	128221
622.437	127467
622.502	121737
622.566	119644
622.631	119025
622.695	122602
622.760	123348
622.824	122581
622.889	121916
622.953	122643
623.018	131707
623.082	131664
623.147	127785
623.211	124734
623.276	125418
623.340	120998
623.404	117130
623.469	119178
623.533	122383
623.597	116214
623.662	116371
623.726	109957
623.790	105314
623.854	104651
623.919	109462
623.983	104853
624.047	105471
624.111	106319
624.176	110477
624.240	111006
624.304	113727
624.368	108007
624.432	107299
624.496	109866
624.560	113595
624.625	115367
624.689	113077
624.753	118175
624.817	109463
624.881	107470
624.945	101368
625.009	100726
625.073	99600
625.137	101282
625.201	105675
625.265	105244
625.329	103926
625.393	103367
625.456	99445
625.520	101293
625.584	104689
625.648	111783
625.712	122003
625.776	149196
625.839	148114
625.903	98651
625.967	87241
626.031	102818
626.095	123108
626.158	96082
626.222	76381
626.286	74359
626.349	72732
626.413	68413
626.477	67943
626.540	67350
626.604	66328
626.668	66814
626.731	65789
626.795	66794
626.858	63476
626.922	60033
626.986	60931
627.049	58818
627.113	64309
627.176	63357
627.240	59736
627.303	57650
627.366	56858
627.430	58312
627.493	58814
627.557	59129
627.620	62050
627.684	58707
627.747	57245
627.810	53140
627.874	50377
627.937	49722
628.000	53768
628.064	50169
628.127	42610
628.190	42384
628.253	41929
628.317	40584
628.380	41042
628.443	39498
628.506	39455
628.569	36506
628.632	33283
628.696	34289
628.759	34628
628.822	33164
628.885	31365
628.948	32079
629.011	32003
629.074	30361
629.137	29585
629.200	29662
629.263	31407
629.326	27605
629.389	28505
629.452	28836
629.515	29157
629.578	29168
629.641	29627
629.704	28164
629.767	28341
629.830	28153
629.892	27592
629.955	26030
630.018	28890
630.081	27268
630.144	28867
630.207	24865
630.269	28613
630.332	25925
630.395	26518
630.458	24872
630.520	23979
630.583	25695
630.646	25421
630.708	25608
630.771	25188
630.834	27041
630.896	25425
630.959	26127
631.021	24600
631.084	25365
631.146	26672
631.209	27438
631.272	24965
631.334	25851
631.397	25964
631.459	26354
631.522	28522
631.584	28491
631.646	30404
631.709	30316
631.771	31558
631.834	31179
631.896	28201
631.958	26077
632.021	27100
632.083	24053
632.145	25566
632.208	24802
632.270	25260
632.332	23323
632.395	23130
632.457	24560
632.519	22602
632.581	25850
632.643	22427
632.706	23989
632.768	22971
632.830	24445
632.892	24242
632.954	23773
633.016	24921
633.078	23112
633.141	23532
633.203	23605
633.265	24444
633.327	24429
633.389	22788
633.451	25348
633.513	24432
633.575	26756
633.637	24714
633.698	24271
633.760	25901
633.822	27204
633.884	27966
633.946	27450
634.008	27746
634.070	30541
634.132	32238
634.193	32148
634.255	35222
634.317	33632
634.379	33835
634.441	31002
634.502	28618
634.564	27962
634.626	25349
634.687	25097
634.749	24820
634.811	24112
634.873	22938
634.934	24232
634.996	23977
635.057	22747
635.119	22996
635.181	24588
635.242	24110
635.304	22623
635.365	27135
635.427	24915
635.488	24809
635.550	22880
635.611	24796
635.673	22650
635.734	27590
635.796	27580
635.857	30759
635.918	30511
635.980	34234
636.041	34057
636.102	37243
636.164	37539
636.225	35720
636.286	30246
636.348	29894
636.409	26639
636.470	24821
636.531	24803
636.593	23922
636.654	23859
636.715	23236
636.776	22337
636.838	20485
636.899	22475
636.960	21082
637.021	21445
637.082	20583
637.143	19766
637.204	20382
637.265	19191
637.326	20861
637.387	21168
637.448	19513
637.509	20833
637.570	20150
637.631	21523
637.692	18904
637.753	17747
637.814	20072
637.875	19737
637.936	19372
637.997	17832
638.058	19242
638.119	19883
638.179	19999
638.240	19385
638.301	18768
638.362	17394
638.423	18349
638.483	19522
638.544	17036
638.605	18040
638.666	17314
638.726	18320
638.787	18835
638.848	17362
638.908	18297
638.969	18198
639.030	17688
639.090	15947
639.151	17210
639.211	18733
639.272	19322
639.332	21926
639.393	19894
639.453	18313
639.514	19996
639.574	17757
639.635	17384
639.695	17325
639.756	15329
639.816	16048
639.877	17813
639.937	20277
639.997	21489
640.058	16116
640.118	16542
640.178	17126
640.239	15752
640.299	17095
640.359	15837
640.420	17598
640.480	19969
640.540	20731
640.600	20738
640.661	20056
640.721	18144
640.781	20753
640.841	17927
640.901	18091
640.961	17578
641.021	18895
641.082	17293
641.142	18676
641.202	17377
641.262	15016
641.322	15968
641.382	14569
641.442	17130
641.502	15607
641.562	16103
641.622	16207
641.682	16950
641.742	18584
641.802	17525
641.861	17270
641.921	14743
641.981	16295
642.041	16724
642.101	15563
642.161	14370
642.221	13929
642.280	14102
642.340	14212
642.400	14087
642.460	15498
642.519	15563
642.579	15319
642.639	15611
642.698	13338
642.758	17463
642.818	15527
642.877	15277
642.937	15587
642.997	16992
643.056	17565
643.116	15167
643.175	16572
643.235	16242
643.294	16664
643.354	18627
643.414	20092
643.473	22260
643.532	26919
643.592	35622
643.651	54148
643.711	93891
643.770	183954
643.830	435278
643.889	787632
643.948	209804
644.008	49019
644.067	31337
644.126	23284
644.186	20276
644.245	18938
644.304	15662
644.363	18540
644.423	14375
644.482	16912
644.541	17534
644.600	15429
644.659	21294
644.719	25834
644.778	37891
644.837	64986
644.896	136917
644.955	296874
645.014	93373
645.073	26632
645.132	18845
645.191	18133
645.250	16107
645.309	19169
645.368	18968
645.427	25070
645.486	42708
645.545	68931
645.604	21657
645.663	16550
645.722	16020
645.781	16572
645.840	19785
645.898	23364
645.957	33227
646.016	49150
646.075	90253
646.134	176498
646.192	463570
646.251	593327
646.310	105614
646.369	34785
646.427	28230
646.486	21044
646.545	17060
646.603	15124
646.662	15420
646.721	14909
646.779	14608
646.838	14697
646.896	19448
646.955	25132
647.014	39842
647.072	77507
647.131	202412
647.189	87164
647.248	17788
647.306	14251
647.365	14036
647.423	10341
647.481	13301
647.540	11056
647.598	10759
647.657	10487
647.715	11818
647.773	9788
647.832	11192
647.890	9274
647.948	9047
648.007	11317
648.065	9801
648.123	9031
648.181	11190
648.240	11342
648.298	10114
648.356	9821
648.414	9817
648.472	9258
648.531	10616
648.589	9011
648.647	9987
648.705	8847
648.763	8943
648.821	8740
648.879	9685
648.937	9932
648.995	12851
649.053	16773
649.111	25054
649.169	43052
649.227	77254
649.285	164163
649.343	433906
649.401	188566
649.459	34144
649.516	22057
649.574	17112
649.632	23679
649.690	26210
649.748	21898
649.806	32192
649.863	60170
649.921	145140
649.979	84891
650.037	15893
650.094	9473
650.152	9555
650.210	8113
650.268	9084
650.325	8562
650.383	7777
650.440	6881
650.498	7722
650.556	7945
650.613	6995
650.671	6792
650.728	8338
650.786	8083
650.843	10429
650.901	5541
650.958	6856
651.016	6214
651.073	7336
651.131	5624
651.188	5937
651.246	6041
651.303	5562
651.360	6293
651.418	5795
651.475	5904
651.532	5300
651.590	6671
651.647	5607
651.704	5947
651.762	5609
651.819	5562
651.876	5025
651.933	5658
651.990	6344
652.048	2936
652.105	4760
652.162	6055
652.219	4644
652.276	5429
652.333	4638
652.390	4620
652.448	5376
652.505	5003
652.562	6551
652.619	6780
652.676	9071
652.733	8662
652.790	5686
652.847	3746
652.904	5380
652.961	4485
653.017	4439
653.074	5709
653.131	5225
653.188	3639
653.245	4881
653.302	4597
653.359	4775
653.415	5057
653.472	4645
653.529	5149
653.586	3962
653.642	4252
653.699	5968
653.756	3219
653.813	4690
653.869	5084
653.926	4937
653.983	4477
654.039	5063
654.096	5249
654.152	5551
654.209	4273
654.266	4758
654.322	4145
654.379	5411
654.435	5688
654.492	5235
654.548	6346
654.605	7453
654.661	5608
654.717	4905
654.774	4638
654.830	4457
654.887	4309
654.943	4424
655.000	5603
655.056	4563
655.112	4962
655.168	4223
655.225	4327
655.281	4838
655.337	5742
655.394	7957
655.450	6266
655.506	5844
655.562	8384
655.618	7089
655.675	3500
655.731	4179
655.787	3989
655.843	5014
655.899	2741
655.955	4734
656.011	3939
656.067	3555
656.123	4952
656.179	3913
656.235	5797
656.291	3643
656.347	5134
656.403	3565
656.459	4758
656.515	4893
656.571	4691
656.627	5045
656.683	3832
656.739	4145
656.795	4189
656.850	4490
656.906	4906
656.962	4704
657.018	3352
657.074	5917
657.129	6754
657.185	10106
657.241	19863
657.297	10625
657.352	5164
657.408	4283
657.464	4090
657.519	3520
657.575	3165
657.630	3417
657.686	3511
657.742	3130
657.797	3672
657.853	4858
657.908	4523
657.964	3071
658.019	3680
658.075	4371
658.130	3585
658.186	3268
658.241	3988
658.297	2956
658.352	3518
658.407	4147
658.463	3354
658.518	3422
658.573	4014
658.629	2721
658.684	3017
658.739	4531
658.795	2620
658.850	4568
658.905	3469
658.960	3628
659.016	3537
659.071	3372
659.126	3471
659.181	4274
659.236	6050
659.291	5397
659.346	4406
659.401	4359
659.457	5335
659.512	5604
659.567	5118
659.622	4086
659.677	3880
659.732	2145
659.787	3537
659.842	4778
659.897	4641
659.952	3798
660.007	3123
660.061	3118
660.116	2894
660.171	2955
660.226	3299
660.281	3826
660.336	2613
660.391	4060
660.445	2420
660.500	3397
660.555	3256
660.610	3160
660.664	4356
660.719	3047
660.774	3119
660.828	4166
660.883	4048
660.938	3278
660.992	2187
661.047	3217
661.101	2408
661.156	3416
661.211	3065
661.265	3780
661.320	2616
661.374	4005
661.429	3281
661.483	3999
661.538	2214
661.592	3236
661.647	2896
661.701	3635
661.755	3854
661.810	3065
661.864	2221
661.919	2924
661.973	3479
662.027	3237
662.081	2391
662.136	3164
662.190	4141
662.244	3664
662.299	2570
662.353	3526
662.407	3048
662.461	3735
662.515	3768
662.569	3157
662.624	3841
662.678	3116
662.732	2575
662.786	2634
662.840	3041
662.894	2508
662.948	2900
663.002	4096
663.056	2834
663.110	2773
663.164	2838
663.218	2675
663.272	2827
663.326	3468
663.380	3178
663.434	3660
663.488	2644
663.542	3606
663.595	3142
663.649	2742
663.703	2888
663.757	2752
663.811	2406
663.864	3257
663.918	2720
663.972	2686
664.026	2431
664.079	2964
664.133	3492
664.187	3080
664.240	2210
664.294	3292
664.348	2414
664.401	2890
664.455	3156
664.508	2991
664.562	2715
664.615	2742
664.669	2628
664.722	2887
664.776	2700
664.829	2713
664.883	2340
664.936	3039
664.990	2620
665.043	3496
665.097	2660
665.150	4061
665.203	2454
665.257	2745
665.310	3264
665.363	3176
665.417	3054
665.470	3671
665.523	2404
665.576	3543
665.630	3312
665.683	4218
665.736	3819
665.789	3209
665.842	2273
665.895	3585
665.949	3236
666.002	3412
666.055	3469
666.108	4510
666.161	3521
666.214	4625
666.267	3793
666.320	3546
666.373	3482
666.426	3510
666.479	3417
666.532	4013
666.585	3979
666.638	4788
666.691	4000
666.744	4922
666.796	3143
666.849	3653
666.902	4624
666.955	3076
667.008	2939
667.060	2913
667.113	2263
667.166	3612
667.219	3952
667.271	3277
667.324	3601
667.377	3541
667.430	3347
667.482	4298
667.535	3531
667.587	3834
667.640	3121
667.693	2676
667.745	4465
667.798	5008
667.850	3629
667.903	3448
667.955	2591
668.008	3980
668.060	3728
668.113	4460
668.165	3436
668.218	3780
668.270	5041
668.322	4062
668.375	4065
668.427	4499
668.479	3225
668.532	3998
668.584	3602
668.636	4282
668.689	3946
668.741	3080
668.793	3469
668.845	4108
668.898	3769
668.950	3994
669.002	3801
669.054	3424
669.106	2903
669.158	4216
669.211	3482
669.263	4314
669.315	5132
669.367	4725
669.419	4191
669.471	4959
669.523	4771
669.575	6309
669.627	5269
669.679	4982
669.731	4841
669.783	5606
669.835	5728
669.886	5325
669.938	5553
669.990	6047
670.042	5889
670.094	7384
670.146	8185
670.197	9798
670.249	12283
670.301	14928
670.353	19374
670.404	28480
670.456	40790
670.508	64854
670.560	103541
670.611	170920
670.663	293362
670.715	537359
670.766	606086
670.818	316572
670.869	100484
670.921	50648
670.972	31324
671.024	21801
671.075	17211
671.127	14010
671.178	11094
671.230	9672
671.281	8974
671.333	8502
671.384	8379
671.436	9852
671.487	11236
671.538	13578
671.590	18664
671.641	29449
671.692	48851
671.744	84341
671.795	62850
671.846	27199
671.897	13896
671.949	10541
672.000	7243
672.051	6055
672.102	5366
672.153	5168
672.204	3881
672.256	4341
672.307	4049
672.358	3960
672.409	4248
672.460	4273
672.511	3017
672.562	3367
672.613	3744
672.664	3016
672.715	4212
672.766	3010
672.817	3143
672.868	4222
672.919	2671
672.970	2867
673.021	2909
673.071	2844
673.122	2362
673.173	2944
673.224	2407
673.275	3156
673.326	2304
673.376	2194
673.427	1707
673.478	3060
673.528	2227
673.579	2951
673.630	2191
673.680	3084
673.731	2353
673.782	1940
673.832	2441
673.883	3169
673.934	2277
673.984	2483
674.035	2779
674.085	3073
674.136	2883
674.186	3008
674.237	3569
674.287	4740
674.338	2923
674.388	1817
674.438	2840
674.489	3240
674.539	3325
674.589	2247
674.640	3851
674.690	2941
674.740	2519
674.791	2982
674.841	2918
674.891	2338
674.942	3103
674.992	1933
675.042	1775
675.092	1947
675.142	2462
675.193	1347
675.243	1950
675.293	2274
675.343	1506
675.393	1510
675.443	2351
675.493	2691
675.543	2028
675.593	1792
675.643	2214
675.693	2290
675.743	2207
675.793	2177
675.843	1282
675.893	1118
675.943	2459
675.993	2326
676.043	1729
676.093	2604
676.142	1391
676.192	2465
676.242	1381
676.292	1919
676.341	1699
676.391	2197
676.441	1573
676.491	1611
676.540	1749
676.590	2012
676.640	1804
676.689	1898
676.739	1177
676.789	1097
676.838	1563
676.888	1756
676.937	1878
676.987	870
677.037	1320
677.086	1023
677.136	1749
677.185	1108
677.235	1219
677.284	1563
677.333	807
677.383	745
677.432	1058
677.482	1827
677.531	1020
677.580	685
677.630	874
677.679	1560
677.728	951
677.778	1700
677.827	1275
677.876	1902
677.925	1035
677.975	1852
678.024	1213
678.073	1750
678.122	1918
678.171	2048
678.220	2213
678.269	2419
678.319	2462
678.368	2129
678.417	1389
678.466	2593
678.515	1661
678.564	1641
678.613	895
678.662	846
678.711	1497
678.760	1767
678.809	1384
678.857	1157
678.906	1853
678.955	1488
679.004	1781
679.053	1986
679.102	1469
679.151	1730
679.199	1502
679.248	1436
679.297	955
679.346	1822
679.394	1288
679.443	1411
679.492	1594
679.540	1312
679.589	1448
679.638	1025
679.686	1780
679.735	1228
679.784	2216
679.832	2379
679.881	1494
679.929	1697
679.978	964
680.026	1233
680.075	1222
680.123	962
680.172	1107
680.220	1014
680.268	1514
680.317	1708
680.365	1109
680.414	-1
680.462	1166
680.510	1721
680.559	1124
680.607	1033
680.655	1399
680.703	1082
680.752	1072
680.800	2223
680.848	1121
680.896	1238
680.945	804
680.993	1100
681.041	1091
681.089	1074
681.137	1099
681.185	933
681.233	1410
681.258	1774
681.281	2090
681.329	1387
681.377	1143
681.380	1141
681.425	535
681.473	2336
681.502	1470
681.521	814
681.569	1559
681.617	1597
681.624	1658
681.665	1830
681.713	1540
681.745	2048
681.761	2250
681.809	1743
681.857	1880
681.867	2038
681.904	2441
681.952	2430
681.989	1718
682.000	1481
682.048	2408
682.096	1617
682.111	1990
682.143	2665
682.191	2061
682.233	2513
682.239	2550
682.286	2231
682.334	2270
682.354	2281
682.382	2236
682.430	2867
682.476	2073
682.477	2029
682.525	2542
682.572	1678
682.598	1987
682.620	2232
682.667	2993
682.715	3032
682.720	3060
682.763	3049
682.810	2776
682.841	2746
682.857	2674
682.905	2791
682.952	3477
682.963	3384
683.000	2990
683.047	2479
683.085	3682
683.095	3986
683.142	3940
683.190	3695
683.206	3414
683.237	2829
683.284	4063
683.328	4010
683.332	3978
683.379	4204
683.426	3641
683.449	3725
683.473	3772
683.521	3549
683.568	3642
683.571	3645
683.615	3373
683.662	3344
683.693	3694
683.709	3857
683.757	3630
683.804	3832
683.814	3817
683.851	3703
683.898	3806
683.936	4294
683.945	4395
683.992	4171
684.039	4315
684.057	4323
684.086	4283
684.133	4327
684.179	3859
684.180	3825
684.227	4956
684.274	4455
684.300	4676
684.321	4840
684.368	4013
684.415	5218
684.422	5176
684.462	4794
684.509	4336
684.543	4876
684.556	5050
684.603	5069
684.649	4891
684.665	4937
684.696	4985
684.743	5052
684.786	5405
684.790	5422
684.837	4866
684.883	6031
684.908	6029
684.930	6047
684.977	5537
685.023	5829
685.029	5843
685.070	5624
685.117	5386
685.150	5816
685.164	6036
685.210	5903
685.257	6036
685.272	6053
685.303	5850
685.350	6281
685.393	6123
685.396	6112
685.443	5926
685.490	6277
685.514	6110
685.536	5983
685.583	6253
685.629	6833
685.636	6833
685.675	6593
685.722	6406
685.757	6404
685.768	6399
685.815	6399
685.861	6695
685.878	6768
685.908	6993
685.954	6513
686.000	7664
686.000	7675
686.047	7313
686.093	7852
686.121	7701
686.139	7510
686.185	7033
686.232	6942
686.242	7118
686.278	7731
686.324	7456
686.363	7570
686.370	7587
686.416	7235
686.463	7851
686.484	7528
686.509	7174
686.555	6926
686.601	7337
686.606	7390
686.647	7696
686.693	6990
686.727	7430
686.739	7674
686.785	7881
686.831	7416
686.848	7667
686.877	7954
686.923	7946
686.969	7067
686.969	7061
687.015	7773
687.061	7528
687.090	8381
687.107	8855
687.153	8309
687.199	7732
687.211	7641
687.245	7367
687.291	8056
687.332	8125
687.336	8143
687.382	8526
687.428	7474
687.453	8000
687.474	8286
687.520	8040
687.565	8090
687.574	7783
687.611	6952
687.657	8590
687.695	8958
687.702	9003
687.748	9186
687.794	9662
687.816	9251
687.839	8686
687.885	8591
687.931	8110
687.937	8175
687.976	8790
688.022	8773
688.058	8697
688.067	8711
688.113	9343
688.158	9278
688.179	9450
688.204	9481
688.249	9402
688.295	9308
688.300	9283
688.340	9526
688.386	10285
688.421	10105
688.431	9952
688.477	9552
688.522	9796
688.542	9454
688.567	9346
688.613	10190
688.658	10180
688.663	10230
688.703	10184
688.749	10010
688.784	9744
688.794	9749
688.839	9629
688.884	9857
688.905	10156
688.930	10483
688.975	9781
689.020	9807
689.026	9786
689.065	9915
689.110	10143
689.146	10386
689.155	10366
689.201	10203
689.246	9714
689.267	9702
689.291	9983
689.336	9948
689.381	10352
689.388	10381
689.426	10279
689.471	10111
689.509	10029
689.516	10055
689.561	10410
689.606	10038
689.630	10304
689.651	10582
689.696	9909
689.741	10543
689.750	10576
689.785	10773
689.830	10824
689.871	10719
689.875	10720
689.920	10934
689.965	11102
689.992	11040
690.010	11044
690.054	10877
690.099	11322
690.112	11329
690.144	11206
690.189	11040
690.233	10498
690.233	10515
690.278	11240
690.323	11848
690.354	12008
690.367	12124
690.412	12769
690.457	13287
690.474	13779
690.501	14485
690.546	14245
690.590	14821
690.595	14806
690.635	15547
690.680	17333
690.716	18010
690.724	18530
690.769	21402
690.813	25137
690.836	26679
690.857	30946
690.902	40769
690.946	50681
690.957	53264
690.991	74691
691.035	104138
691.077	131433
691.080	131326
691.124	118450
691.168	106201
691.198	98796
691.213	91034
691.257	68724
691.301	45958
691.318	37309
691.346	33700
691.390	28000
691.434	22134
691.439	21414
691.478	19837
691.522	18345
691.559	16850
691.567	16746
691.611	16508
691.655	15645
691.680	15213
691.699	15128
691.743	15217
691.787	14989
691.800	14857
691.831	14676
691.875	15118
691.919	14893
691.921	14865
691.964	14826
692.008	14818
692.041	14413
692.052	14372
692.096	14304
692.139	14922
692.162	14809
692.183	14496
692.227	14038
692.271	13648
692.282	13513
692.315	13687
692.359	13758
692.402	14227
692.403	14256
692.447	14016
692.490	13837
692.523	13690
692.534	13833
692.578	14475
692.622	14649
692.643	14913
692.666	14860
692.709	14740
692.753	14251
692.763	14126
692.797	14271
692.840	14826
692.884	14852
692.884	14885
692.928	15354
692.971	15527
693.004	15898
693.015	15979
693.059	16215
693.102	16220
693.124	16027
693.146	16245
693.189	16989
693.233	17780
693.245	18005
693.276	19436
693.320	21007
693.363	22701
693.365	22721
693.407	25818
693.450	28923
693.485	31438
693.493	32896
693.537	40366
693.580	47680
693.605	52069
693.624	61449
693.667	83244
693.710	105885
693.725	114057
693.753	153747
693.797	216876
693.840	279665
693.845	285987
693.883	264569
693.926	239098
693.966	217564
693.970	212885
694.013	160527
694.056	108410
694.086	72487
694.099	68582
694.142	55918
694.185	43200
694.206	37060
694.229	34965
694.272	30744
694.315	26777
694.326	25692
694.358	24512
694.401	22898
694.444	20986
694.446	20849
694.487	20314
694.530	19774
694.566	19388
694.573	19318
694.616	18381
694.659	17506
694.686	16818
694.702	16643
694.745	16326
694.787	15695
694.806	15573
694.830	15849
694.873	15796
694.916	16154
694.926	16152
694.959	16093
695.002	15786
695.044	15752
695.046	15710
695.087	15799
695.130	15894
695.166	15946
695.172	16008
695.215	15659
695.258	15931
695.286	15985
695.301	16139
695.343	16406
695.386	16462
695.406	16574
695.428	16615
695.471	16508
695.514	16548
695.526	16487
695.556	16898
695.599	17582
695.641	18033
695.646	18041
695.684	17616
695.726	17069
695.766	16691
695.769	16729
695.811	16464
695.854	16422
695.886	16073
695.896	16072
695.938	16060
695.981	16221
696.005	16303
696.023	16639
696.065	17050
696.108	17724
696.125	17904
696.150	18254
696.192	18805
696.235	19270
696.245	19394
696.277	19577
696.319	19436
696.361	19493
696.365	19445
696.404	20023
696.446	20572
696.485	20973
696.488	20977
696.530	20438
696.572	19885
696.604	19241
696.614	19111
696.656	18472
696.698	17986
696.724	17535
696.740	17540
696.783	17463
696.825	17400
696.844	17343
696.867	17470
696.909	17542
696.951	17671
696.964	17659
696.992	17710
697.034	17714
697.076	17638
697.083	17582
697.118	17943
697.160	18431
697.202	18957
697.203	18917
697.244	18583
697.286	18393
697.323	18010
697.327	18061
697.369	18195
697.411	18275
697.442	18311
697.453	18319
697.494	18128
697.536	17967
697.562	17837
697.578	17958
697.620	18064
697.661	18112
697.682	18161
697.703	18462
697.744	18921
697.786	19420
697.801	19488
697.828	19573
697.869	19766
697.911	19900
697.921	19892
697.952	19576
697.994	19034
698.035	18439
698.040	18327
698.077	18362
698.118	18316
698.160	18249
698.160	18198
698.201	18508
698.243	18796
698.279	19009
698.284	19090
698.325	19335
698.367	19623
698.399	19749
698.408	19825
698.449	19942
698.491	20051
698.518	20089
698.532	20221
698.573	20428
698.614	20656
698.638	20725
698.656	20850
698.697	21021
698.738	21169
698.757	21191
698.779	20921
698.820	20291
698.862	19660
698.877	19369
698.903	19737
698.944	20251
698.985	20762
698.996	20847
699.026	20839
699.067	20751
699.116	20589
699.235	19772
699.354	19983
699.474	19575
699.593	20105
699.713	20840
699.832	19513
699.951	20871
700.070	19391
700.190	19820
700.309	18777
700.428	19396
700.547	18746
700.667	18768
700.786	18670
700.905	18009
701.024	18925
701.143	18384
701.262	18205
701.381	19144
701.500	18687
701.619	18885
701.738	18037
701.857	18364
701.976	17916
702.095	17536
702.214	17655
702.333	17659
702.452	17672
702.571	18198
702.690	17935
702.809	17591
702.928	16986
703.047	17417
703.165	17382
703.284	17179
703.403	16794
703.522	17373
703.640	16553
703.759	17566
703.878	19038
703.997	16399
704.115	15993
704.234	16038
704.353	17293
704.471	16363
704.590	15643
704.708	14983
704.827	15239
704.946	16357
705.064	16346
705.183	16541
705.301	17008
705.420	21757
705.538	19466
705.656	17594
705.775	18177
705.893	26945
706.012	28395
706.130	17557
706.249	18336
706.367	17274
706.485	18005
706.604	17882
706.722	16759
706.840	19102
706.958	19066
707.077	16982
707.195	16997
707.313	16732
707.431	17218
707.549	16296
707.668	15433
707.786	15690
707.904	15063
708.022	15709
708.140	16375
708.258	15168
708.376	16022
708.494	16087
708.612	16811
708.730	20964
708.848	19621
708.966	18499
709.084	17550
709.202	17398
709.320	17157
709.438	16663
709.556	16988
709.674	17519
709.791	17937
709.909	17304
710.027	16870
710.145	17323
710.263	17247
710.380	16062
710.498	17123
710.616	16110
710.733	16133
710.851	15625
710.969	16101
711.086	16518
711.204	16253
711.322	16034
711.439	15756
711.557	15672
711.674	15862
711.792	15885
711.909	15706
712.027	16419
712.144	14894
712.262	14950
712.379	15470
712.497	20554
712.614	20041
712.732	18188
712.849	18253
712.966	17384
713.084	19230
713.201	16907
713.318	18537
713.436	18188
713.553	17743
713.670	17677
713.787	18108
713.905	17455
714.022	18138
714.139	18789
714.256	20668
714.373	25217
714.490	38962
714.608	97409
714.725	378487
714.842	325186
714.959	35039
715.076	21336
715.193	18849
715.310	17578
715.427	16891
715.544	16021
715.661	16010
715.778	15426
715.895	16445
716.011	16984
716.128	14984
716.245	16628
716.362	15740
716.479	16258
716.596	15081
716.713	16153
716.829	15463
716.946	14663
717.063	14573
717.180	15261
717.296	14458
717.413	14904
717.530	14198
717.646	13815
717.763	13753
717.880	14409
717.996	13505
718.113	13922
718.229	13354
718.346	12449
718.462	13212
718.579	13686
718.695	14896
718.812	15317
718.928	14206
719.045	13524
719.161	12665
719.277	12725
719.394	13597
719.510	14356
719.626	14280
719.743	17350
719.859	20755
719.975	35767
720.092	124795
720.208	246301
720.324	31943
720.440	16119
720.557	14714
720.673	15629
720.789	18325
720.905	29354
721.021	15346
721.137	13308
721.253	13079
721.369	12617
721.486	13452
721.602	14802
721.718	12514
721.834	11635
721.950	12051
722.066	11989
722.181	11243
722.297	12183
722.413	11075
722.529	12085
722.645	11729
722.761	10834
722.877	11956
722.993	12424
723.108	12565
723.224	11952
723.340	11634
723.456	10744
723.571	11477
723.687	11233
723.803	11699
723.918	10707
724.034	10408
724.150	10853
724.265	11757
724.381	14751
724.497	15277
724.612	10747
724.728	10042
724.843	9594
724.959	10766
725.074	15044
725.190	14862
725.305	11123
725.421	9939
725.536	9995
725.651	10725
725.767	10524
725.882	10174
725.997	9769
726.113	10841
726.228	10171
726.343	9589
726.459	9382
726.574	10393
726.689	9922
726.804	9318
726.920	10381
727.035	10820
727.150	9700
727.265	9539
727.380	9857
727.495	10679
727.610	9166
727.725	9028
727.841	10821
727.956	14961
728.071	12589
728.186	9250
728.301	8381
728.416	9493
728.531	9424
728.645	9123
728.760	9169
728.875	9242
728.990	9925
729.105	9148
729.220	8917
729.335	9638
729.449	9064
729.564	8988
729.679	8606
729.794	9464
729.908	9089
730.023	9439
730.138	8685
730.253	8593
730.367	8064
730.482	8737
730.596	9661
730.711	10249
730.826	11178
730.940	9380
731.055	8888
731.169	8064
731.284	9654
731.398	8674
731.513	9576
731.627	11021
731.742	10997
731.856	11611
731.970	12016
732.085	13087
732.199	17466
732.313	24262
732.428	61127
732.542	159905
732.656	81471
732.771	20198
732.885	14395
732.999	13252
733.113	13326
733.227	12337
733.342	12041
733.456	11569
733.570	11025
733.684	10992
733.798	12254
733.912	10566
734.026	11238
734.140	10745
734.254	11849
734.368	12941
734.482	13541
734.596	10800
734.710	10779
734.824	10594
734.938	10370
735.052	10395
735.166	10919
735.280	11229
735.393	10788
735.507	9631
735.621	11542
735.735	13696
735.849	9795
735.962	10281
736.076	10296
736.190	10153
736.303	10763
736.417	11163
736.531	9086
736.644	10037
736.758	10005
736.872	8969
736.985	10336
737.099	9781
737.212	9990
737.326	9363
737.439	10242
737.553	9100
737.666	10413
737.780	8605
737.893	9457
738.007	9552
738.120	9509
738.233	9618
738.347	9410
738.460	8533
738.573	8928
738.687	8730
738.800	9108
738.913	9457
739.026	9405
739.140	8938
739.253	9104
739.366	8857
739.479	8931
739.592	8936
739.705	8771
739.818	8719
739.932	8885
740.045	8660
740.158	8530
740.271	9151
740.384	9077
740.497	8043
740.610	9724
740.723	9531
740.836	9490
740.949	9054
741.062	9754
741.174	9848
741.287	9511
741.400	8503
741.513	8515
741.626	8564
741.739	8287
741.851	8456
741.964	8731
742.077	8420
742.189	8200
742.302	8222
742.415	8339
742.527	8447
742.640	8495
742.753	8728
742.865	8547
742.978	7843
743.090	8153
743.203	8976
743.316	8121
743.428	8390
743.541	8759
743.653	8282
743.766	8385
743.878	7877
743.990	8261
744.103	9431
744.215	8578
744.327	8007
744.440	9589
744.552	9529
744.664	8130
744.777	8497
744.889	8553
745.001	8475
745.113	8671
745.226	7883
745.338	8614
745.450	8306
745.562	8567
745.674	8263
745.786	8280
745.898	8015
746.010	8187
746.122	7605
746.234	8013
746.347	9456
746.459	8981
746.570	7772
746.682	8187
746.794	8380
746.906	7748
747.018	8171
747.130	8153
747.242	8316
747.354	8106
747.466	8613
747.577	9102
747.689	9054
747.801	8919
747.913	7347
748.024	7546
748.136	7551
748.248	8664
748.359	7538
748.471	8714
748.583	8547
748.694	8830
748.806	10159
748.918	8812
749.029	8033
749.141	8475
749.252	9135
749.364	8270
749.475	9086
749.587	9369
749.698	7714
749.809	9443
749.921	8342
750.032	8068
750.144	7318
750.255	9348
750.366	8245
750.478	8282
750.589	8088
750.700	8249
750.811	8142
750.923	8617
751.034	9803
751.145	9392
751.256	8499
751.367	8597
751.479	8979
751.590	8568
751.701	8241
751.812	8527
751.923	7819
752.034	9318
752.145	8512
752.256	8549
752.367	8787
752.478	9226
752.589	9353
752.700	8644
752.811	8017
752.922	9402
753.032	8564
753.143	9824
753.254	8016
753.365	9745
753.476	9558
753.586	9038
753.697	9608
753.808	9264
753.919	9337
754.029	9317
754.140	9422
754.251	9736
754.361	8625
754.472	10279
754.582	9197
754.693	9782
754.804	9281
754.914	9900
755.025	8774
755.135	10213
755.246	10369
755.356	8537
755.466	10156
755.577	9961
755.687	9754
755.798	10311
755.908	10414
756.018	10646
756.129	10681
756.239	10770
756.349	10955
756.460	10455
756.570	11784
756.680	11439
756.790	10418
756.900	12177
757.011	10585
757.121	11413
757.231	12412
757.341	11447
757.451	11218
757.561	11030
757.671	11387
757.781	11363
757.891	12633
758.001	11628
758.111	12051
758.221	12931
758.331	13125
758.441	12986
758.551	12896
758.661	14272
758.771	14311
758.880	13696
758.990	14124
759.100	14462
759.210	15217
759.320	15891
759.429	15132
759.539	15795
759.649	15335
759.758	16438
759.868	17325
759.978	16754
760.087	17782
760.197	18749
760.307	17913
760.416	18363
760.526	16656
760.635	18482
760.745	19401
760.854	19567
760.964	20659
761.073	21611
761.182	20735
761.292	21844
761.401	21836
761.511	22253
761.620	23131
761.729	23489
761.839	23256
761.948	24222
762.057	25254
762.166	26272
762.276	26846
762.385	28505
762.494	28386
762.603	30426
762.712	31101
762.822	31471
762.931	33665
763.040	34309
763.149	36042
763.258	38723
763.367	40405
763.476	42292
763.585	43848
763.694	46627
763.803	49517
763.912	52246
764.021	55311
764.130	57609
764.238	62793
764.347	69013
764.456	72465
764.565	80912
764.674	86414
764.783	94435
764.891	103260
765.000	117334
765.109	131572
765.217	148839
765.326	172773
765.435	203936
765.543	240833
765.652	288316
765.761	356590
765.869	441326
765.978	552767
766.086	689232
766.195	811685
766.303	797940
766.412	510030
766.520	609538
766.629	773507
766.737	745052
766.846	633130
766.954	515993
767.062	411653
767.171	330600
767.279	268984
767.387	223534
767.496	189837
767.604	163823
767.712	143221
767.820	129582
767.928	117792
768.037	109659
768.145	101756
768.253	98905
768.361	95723
768.469	97062
768.577	96875
768.685	101951
768.793	109886
768.901	120553
769.009	138843
769.117	166508
769.225	206720
769.333	270838
769.441	375709
769.549	527660
769.657	720135
769.765	734153
769.873	540019
769.981	686433
770.088	645061
770.196	499431
770.304	375811
770.412	288242
770.519	230264
770.627	187351
770.735	156048
770.842	132070
770.950	112834
771.058	101046
771.165	90758
771.273	80886
771.380	73180
771.488	68118
771.595	61839
771.703	57875
771.810	53703
771.918	50154
772.025	47199
772.133	45634
772.240	42489
772.348	41474
772.455	38728
772.562	36384
772.670	34572
772.777	33099
772.884	31839
772.991	31394
773.099	30094
773.206	28228
773.313	28495
773.420	27898
773.528	24820
773.635	25160
773.742	24596
773.849	23838
773.956	22793
774.063	23203
774.170	21509
774.277	22243
774.384	20708
774.491	20001
774.598	19831
774.705	19921
774.812	18458
774.919	17747
775.026	17502
775.133	17821
775.239	17003
775.346	17336
775.453	16695
775.560	16123
775.667	16305
775.773	16148
775.880	15120
775.987	14911
776.093	15218
776.200	14764
776.307	14511
776.413	14237
776.520	13631
776.627	13894
776.733	13581
776.840	12366
776.946	14390
777.053	13383
777.159	12069
777.266	10930
777.372	12975
777.478	12055
777.585	12360
777.691	11076
777.798	11066
777.904	11860
778.010	12699
778.117	11255
778.223	11119
778.329	9730
778.435	10008
778.542	11772
778.648	10308
778.754	10069
778.860	10477
778.966	9671
779.072	9702
779.178	10317
779.284	9832
779.391	10080
779.497	9879
779.603	14368
779.708	17088
779.815	35986
779.920	118876
780.026	178023
780.132	33273
780.238	12680
780.344	10845
780.450	10681
780.556	8809
780.661	7923
780.767	8669
780.873	8835
780.979	8984
781.085	8325
781.190	7813
781.296	8015
781.402	7509
781.507	7468
781.613	7411
781.719	6636
781.824	7730
781.930	8496
782.035	7320
782.141	8311
782.246	7172
782.352	7225
782.457	6901
782.563	6950
782.668	6356
782.773	6866
782.879	6387
782.984	6712
783.090	6998
783.195	7292
783.300	6623
783.405	5868
783.511	5492
783.616	6185
783.721	5810
783.826	5939
783.932	5432
784.037	6407
784.142	5776
784.247	5909
784.352	6190
784.457	6339
784.562	6202
784.667	6165
784.772	4236
784.877	5694
784.982	5953
785.087	5265
785.192	5537
785.297	5118
785.402	5918
785.507	5483
785.611	4953
785.716	5536
785.821	5178
785.926	4772
786.031	5178
786.135	5679
786.240	4971
786.345	4319
786.450	4843
786.554	5491
786.659	4397
786.763	3921
786.868	5153
786.973	5385
787.077	3729
787.182	4064
787.286	4156
787.391	5373
787.495	3297
787.600	4875
787.704	3913
787.809	5634
787.913	3811
788.017	5622
788.122	5713
788.226	5077
788.330	4096
788.435	4541
788.539	4957
788.643	2933
788.747	3768
788.852	4630
788.956	3362
789.060	4818
789.164	3980
789.268	4314
789.372	5062
789.476	4281
789.580	3847
789.684	4250
789.788	4611
789.892	3877
789.996	4024
790.100	4063
790.204	4038
790.308	3525
790.412	3917
790.516	4342
790.620	3394
790.724	4772
790.828	3384
790.931	2319
791.035	5073
791.139	3283
791.242	3177
791.346	4360
791.450	3618
791.554	3642
791.657	2488
791.761	3997
791.864	4175
791.968	4374
792.072	3846
792.175	3892
792.279	2620
792.382	3350
792.486	3951
792.589	3577
792.693	3202
792.796	2250
792.899	4171
793.003	3379
793.106	2044
793.209	3105
793.313	4451
793.416	2025
793.519	4100
793.623	4071
793.726	3279
793.829	3499
793.932	2884
794.035	2609
794.138	4609
794.242	5172
794.345	5197
794.448	7969
794.551	17392
794.654	64452
794.757	110645
794.860	19093
794.963	5458
795.066	3901
795.169	4202
795.272	3015
795.375	4106
795.477	3126
795.580	3158
795.683	1887
795.786	3093
795.889	2214
795.991	3658
796.094	3769
796.197	1669
796.300	3756
796.402	2578
796.505	2288
796.608	1940
796.710	3196
796.813	3390
796.915	3381
797.018	3006
797.120	2717
797.223	1092
797.326	3304
797.428	1087
797.530	2529
797.633	2449
797.735	3380
797.838	2783
797.940	3503
798.042	1677
798.145	2388
798.247	2823
798.349	1096
798.452	2515
798.554	2396
798.656	1335
798.758	4181
798.860	2570
798.962	2434
799.065	2140
799.167	1813
799.269	3292
799.371	3985
799.473	3085
799.575	2150
799.677	2046
799.779	4421
799.881	867
799.983	2669
800.085	1886
800.187	2456
800.289	475
800.390	2695
800.492	2338
800.594	3701
800.696	1419
800.798	2301
800.899	1697
801.001	2204
801.103	948
801.205	2181
801.306	2489
801.408	1303
801.509	1974
801.611	2189
801.713	2138
801.814	1618
801.916	1785
802.017	2120
802.119	1479
802.220	1365
802.322	19
802.423	3795
802.525	880
802.626	2799
802.727	1700
802.829	2376
802.930	-1172
803.031	3651
803.133	1430
803.234	1789
803.335	1861
803.436	296
803.538	2293
803.639	1307
803.740	2141
803.841	2074
803.942	1863
804.043	2664
804.144	882
804.245	1682
804.346	1457
804.447	1338
804.548	1929
804.649	2948
804.750	1563
804.851	890
804.952	1637
805.053	1676
805.154	1035
805.255	2279
805.355	1066
805.456	1337
805.557	878
805.658	910
805.758	2072
805.859	2174
805.960	969
806.061	481
806.161	1144
806.262	1691
806.362	300
806.463	875
806.564	2533
806.664	1434
806.765	2141
806.865	2285
806.966	1459
807.066	751
807.166	1443
807.267	1839
807.367	1431
807.468	2460
807.568	-286
807.668	1996
807.769	2141
807.869	672
807.969	1231
808.069	1204
808.170	1543
808.270	725
808.370	1658
808.470	2018
808.570	423
808.670	879
808.770	688
808.870	714
808.970	1034
809.070	1142
809.170	895
809.271	2354
809.370	1012
809.470	1630
809.570	948
809.670	691
809.770	1909
809.870	1781
809.970	1071
810.070	1828
810.169	1147
810.269	155
810.369	1715
810.469	1650
810.568	518
810.668	1283
810.768	592
810.867	1665
810.967	-82
811.066	1405
811.166	581
811.265	2420
811.365	315
811.464	1322
811.564	1292
811.663	1719
811.763	366
811.862	1943
811.962	1699
812.061	1283
812.160	268
812.260	1899
812.359	2314
812.458	4148
812.557	12467
812.657	18033
812.756	5657
812.855	2424
812.954	1386
813.053	1463
813.153	933
813.252	865
813.351	944
813.450	1264
813.549	320
813.648	2075
813.747	-116
813.846	1900
813.945	618
814.044	1241
814.143	1940
814.242	1475
814.341	659
814.439	1974
814.538	1293
814.637	1066
814.736	1860
814.835	2045
814.933	1053
815.032	1133
815.131	1595
815.229	2458
815.328	3319
815.427	2209
815.525	4117
815.624	3217
815.722	1791
815.821	2955
815.919	2380
816.018	2306
816.116	3105
816.215	2319
816.313	3174
816.412	3407
816.510	3482
816.609	5010
816.707	3862
816.805	3763
816.904	2538
817.002	3838
817.100	3779
817.198	4493
817.296	2960
817.395	4057
817.493	4872
817.591	3322
817.689	5095
817.787	5332
817.885	7964
817.983	11802
818.081	23907
818.179	56371
818.277	134562
818.375	113805
818.473	32838
818.571	14234
818.669	9851
818.767	9114
818.865	8797
818.963	10193
819.061	13306
819.158	22258
819.256	46694
819.354	108051
819.452	223006
819.549	148298
819.647	44453
819.745	17994
819.842	12274
819.940	8222
820.038	5832
820.135	4857
820.233	6741
820.330	4171
820.428	3558
820.525	3808
820.623	3809
820.720	2652
820.818	3042
820.915	3306
821.012	3039
821.110	1904
821.207	2782
821.304	2323
821.402	2771
821.499	3291
821.596	2410
821.693	2170
821.791	2000
821.888	2202
821.985	3984
822.082	2183
822.179	2524
822.276	2135
822.373	1459
822.470	3003
822.567	2481
822.664	1485
822.761	2540
822.858	1282
822.955	2108
823.052	2025
823.149	1935
823.246	1894
823.343	634
823.440	2520
823.536	1603
823.633	2087
823.730	2009
823.827	1213
823.923	1343
824.020	2516
824.117	1582
824.213	1273
824.310	1996
824.407	1851
824.503	1746
824.600	1999
824.696	1462
824.793	2926
824.889	1427
824.986	1713
825.082	1429
825.179	2057
825.275	1767
825.371	1428
825.468	1231
825.564	933
825.660	2157
825.757	1809
825.853	1911
825.949	344
826.045	550
826.142	1971
826.238	1487
826.334	1058
826.430	516
826.526	867
826.622	867
826.718	1679
826.814	989
826.910	2728
827.006	756
827.102	741
827.198	2193
827.294	1420
827.390	2140
827.486	1017
827.582	-358
827.678	134
827.774	1619
827.869	696
827.965	1682
828.061	-205
828.157	1437
828.252	2000
828.348	141
828.444	1148
828.539	1021
828.635	1324
828.731	1937
828.826	1397
828.922	1372
829.017	1231
829.113	1331
829.208	770
829.304	795
829.399	2224
829.495	285
829.590	1886
829.685	-126
829.781	1138
829.876	1172
829.971	478
830.066	112
830.162	1156
830.257	1421
830.352	-56
830.447	1614
830.543	1921
830.638	-199
830.733	1929
830.828	151
830.923	2174
831.018	642
831.113	556
831.208	576
831.303	614
831.398	1028
831.493	791
831.588	1541
831.683	699
831.778	522
831.873	1181
831.967	1458
832.062	592
832.157	264
832.252	916
832.346	31
832.441	1114
832.536	1118
832.631	1874
832.725	1501
832.820	427
832.914	462
833.009	-369
833.104	661
833.198	803
833.293	864
833.387	1052
833.482	1234
833.576	581
833.670	1441
833.765	1249
833.859	347
833.954	874
834.048	509
834.142	994
834.237	101
834.331	654
834.425	105
834.519	632
834.613	938
834.708	483
834.802	1067
834.896	485
834.990	312
835.084	1478
835.178	528
835.272	103
835.366	927
835.460	1363
835.554	539
835.648	597
835.742	341
835.836	1097
835.930	94
836.024	391
836.117	604
836.211	903
836.305	911
836.399	1519
836.493	-619
836.586	1575
836.680	890
836.774	38
836.867	1015
836.961	-23
837.055	73
837.148	971
837.242	615
837.335	475
837.429	1281
837.522	493
837.616	794
837.709	2074
837.803	224
837.896	572
837.989	1225
838.083	1174
838.176	1643
838.269	-649
838.363	1778
838.456	269
838.549	1192
838.642	-322
838.735	1427
838.829	595
838.922	-360
839.015	733
839.108	461
839.201	852
839.294	800
839.387	472
839.480	-566
839.573	1268
839.666	223
839.759	-231
839.852	-151
839.945	1560
840.038	145
840.131	112
840.223	109
840.316	1394
840.409	400
840.502	54
840.594	1249
840.687	-624
840.780	-840
840.873	-1
840.965	-60
841.058	1346
841.150	1224
841.243	312
841.336	803
841.428	273
841.521	-236
841.613	606
841.706	759
841.798	963
841.890	593
841.983	-197
842.075	44
842.167	195
842.260	427
842.352	1247
842.444	736
842.537	1773
842.629	2275
842.721	192
842.813	-148
842.905	-580
842.997	56
843.090	602
843.182	1435
843.274	1302
843.366	3605
843.458	6447
843.550	3656
843.642	75
843.734	4
843.826	11
843.918	715
844.009	390
844.101	-267
844.193	100
844.285	-188
844.377	389
844.469	755
844.560	-672
844.652	562
844.744	1110
844.835	145
844.927	621
845.019	242
845.110	410
845.202	-795
845.293	690
845.385	-391
845.476	-238
845.568	1144
845.659	704
845.751	447
845.842	-123
845.934	144
846.025	-168
846.116	240
846.208	-559
846.299	6
846.390	-152
846.482	-339
846.573	238
846.664	19
846.755	189
846.846	475
846.937	-533
847.029	470
847.120	-41
847.211	-596
847.302	94
847.393	-351
847.484	277
847.575	-484
847.666	215
847.757	679
847.847	523
847.938	496
848.029	-23
848.120	-75
848.211	467
848.302	-138
848.392	-80
848.483	138
848.574	-618
848.664	339
848.755	570
848.846	703
848.936	-88
849.027	445
849.118	678
849.208	119
849.299	758
849.389	1472
849.480	3225
849.570	5740
849.661	11148
849.751	18352
849.841	5775
849.932	797
850.022	90
850.112	648
850.203	247
850.293	-979
850.383	463
850.474	-401
850.564	-218
850.654	-891
850.744	160
850.834	-317
850.924	205
851.014	133
851.104	-759
851.194	-281
851.284	443
851.374	-514
851.464	74
851.554	258
851.644	128
851.734	675
851.824	737
851.914	1365
852.004	2544
852.094	2213
852.183	414
852.273	-87
852.363	-399
852.452	-1174
852.542	11
852.632	-442
852.721	-255
852.811	-127
852.901	202
852.990	-943
853.080	46
853.169	216
853.259	-176
853.348	-677
853.438	1359
853.527	519
853.617	1672
853.706	3531
853.795	7471
853.885	17709
853.974	33365
854.063	62222
854.152	87771
854.242	31011
854.331	5594
854.420	2010
854.509	1402
854.598	1389
854.687	997
854.777	388
854.866	318
854.955	-238
855.044	-159
855.133	214
855.222	-125
855.311	-489
855.400	375
855.488	67
855.577	-109
855.666	-266
855.755	594
855.844	445
855.933	256
856.021	-89
856.110	122
856.199	-1214
856.288	-516
856.376	-119
856.465	-1189
856.554	-375
856.642	-477
856.731	-130
856.819	887
856.908	-1393
856.996	-75
857.085	-372
857.173	-663
857.262	-300
857.350	665
857.438	-1000
857.527	202
857.615	-539
857.703	523
857.792	54
857.880	-102
857.968	-257
858.056	-547
858.145	-1016
858.233	-693
858.321	-619
858.409	-7
858.497	-671
858.585	-1374
858.673	-629
858.761	-1096
858.849	-1052
858.937	-3
859.025	-467
859.113	-434
859.201	-1193
859.289	81
859.377	-661
859.465	-120
859.552	-1012
859.640	-259
859.728	78
859.816	107
859.903	-422
859.991	-623
860.079	-950
860.166	76
860.254	-204
860.342	-267
860.429	-920
860.517	-461
860.604	-490
860.692	315
860.779	-720
860.867	46
860.954	-323
861.042	-94
861.129	176
861.216	190
861.304	-107
861.391	155
861.478	-423
861.565	376
861.653	320
861.740	-177
861.827	-909
861.914	227
862.001	-1153
862.089	-380
862.176	63
862.263	-149
862.350	186
862.437	-557
862.524	-1101
862.611	-1425
862.698	13
862.785	-310
862.871	-82
862.958	-422
863.045	286
863.132	-133
863.219	-975
863.306	-929
863.392	835
863.479	-467
863.566	-95
863.652	-890
863.739	-513
863.826	-425
863.912	-554
863.999	39
864.086	-1006
864.172	-70
864.259	-152
864.345	66
864.432	144
864.518	-207
864.604	-696
864.691	-123
864.777	-485
864.863	393
864.950	384
865.036	1111
865.122	2323
865.209	3039
865.295	1292
865.381	1162
865.467	1096
865.553	2959
865.639	2680
865.726	4964
865.812	9228
865.898	16528
865.984	24445
866.070	47708
866.156	48197
866.242	12174
866.328	3956
866.414	2403
866.499	1748
866.585	1709
866.671	1474
866.757	1629
866.843	1585
866.928	1406
867.014	800
867.100	1563
867.186	875
867.271	2199
867.357	613
867.442	1769
867.528	1112
867.614	910
867.699	231
867.785	1636
867.870	835
867.956	882
868.041	1175
868.127	1465
868.212	548
868.297	1810
868.383	1076
868.468	1233
868.553	1451
868.639	1925
868.724	2184
868.809	2070
868.894	1107
868.979	210
869.065	775
869.150	587
869.235	626
869.320	100
869.405	837
869.490	659
869.575	-266
869.660	520
869.745	793
869.830	355
869.915	513
870.000	824
870.085	534
870.169	839
870.254	1207
870.339	-29
870.424	-577
870.509	243
870.593	289
870.678	791
870.763	784
870.847	168
870.932	-99
871.016	824
871.101	610
871.186	195
871.270	640
871.355	423
871.439	274
871.523	635
871.608	-408
871.692	395
871.777	595
871.861	1221
871.945	-567
872.030	1466
872.114	-353
872.198	519
872.282	-358
872.367	-314
872.451	60
872.535	292
872.619	975
872.703	-929
872.787	-284
872.871	58
872.955	34
873.039	-678
873.123	-486
873.207	739
873.291	-535
873.375	-105
873.459	157
873.543	1
873.627	46
873.711	115
873.794	-510
873.878	495
873.962	-388
874.045	442
874.129	-286
874.137	-292
874.213	-357
874.245	-124
874.296	263
874.352	-110
874.380	-298
874.460	-168
874.464	-162
874.547	-421
874.568	-172
874.631	527
874.676	704
874.714	874
874.784	267
874.798	135
874.881	1423
874.892	1229
874.965	-26
874.999	2
875.048	7
875.107	-161
875.131	-227
875.215	-7
875.215	-7
875.298	-324
875.323	-183
875.381	176
875.430	265
875.465	324
875.538	635
875.548	684
875.631	-672
875.646	-570
875.714	-231
875.753	-321
875.798	-318
875.861	271
875.881	421
875.964	140
875.968	124
876.047	4
876.076	110
876.130	187
876.183	295
876.213	418
876.291	398
876.296	376
876.379	370
876.398	7
876.462	-905
876.506	-527
876.545	-295
876.613	-434
876.628	-428
876.711	-134
876.721	-107
876.794	-30
876.828	-162
876.877	-339
876.935	-295
876.960	-290
877.043	-53
877.043	-54
877.125	-221
877.150	43
877.208	677
877.258	273
877.291	13
877.365	288
877.374	321
877.456	245
877.472	228
877.539	158
877.579	299
877.622	389
877.687	251
877.704	226
877.787	4
877.794	45
877.869	556
877.901	488
877.952	403
878.008	416
878.034	357
878.115	-183
878.117	-186
878.199	-7
878.222	58
878.282	-107
878.329	-167
878.364	-23
878.437	625
878.447	667
878.529	-169
878.544	-180
878.611	54
878.651	51
878.694	-3
878.758	-32
878.776	-39
878.858	233
878.865	264
878.941	377
878.972	-160
879.023	-779
879.078	-487
879.105	-388
879.185	-130
879.187	-119
879.269	104
879.292	179
879.351	-34
879.399	-246
879.433	-278
879.506	246
879.516	327
879.598	-441
879.613	-284
879.680	438
879.720	489
879.762	420
879.827	189
879.844	116
879.926	-187
879.933	-142
880.007	411
880.040	182
880.089	-58
880.147	397
880.171	496
880.253	1384
880.254	1385
880.335	1731
880.360	2109
880.417	2955
880.467	4377
880.499	5482
880.574	6357
880.580	6260
880.662	2449
880.680	1739
880.744	-274
880.787	-353
880.825	-172
880.893	-152
880.907	-113
880.989	-511
881.000	-442
881.070	-146
881.106	-156
881.152	16
881.213	-34
881.233	-219
881.315	-329
881.319	-341
881.396	262
881.426	432
881.478	243
881.532	221
881.559	447
881.639	433
881.641	414
881.722	-323
881.745	-461
881.803	-318
881.852	-148
881.885	-82
881.958	393
881.966	455
882.047	-298
882.064	-187
882.129	-50
882.171	-57
882.210	204
882.277	269
882.291	214
882.372	268
882.383	285
882.454	664
882.489	561
882.535	43
882.596	-82
882.616	81
882.697	77
882.702	94
882.778	85
882.808	132
882.859	384
882.914	502
882.940	310
883.020	-292
883.021	-289
883.102	-130
883.127	-100
883.183	-208
883.233	-185
883.264	-73
883.339	344
883.345	335
883.426	-77
883.445	-291
883.507	-123
883.551	610
883.587	618
883.657	-129
883.668	-63
883.749	598
883.763	675
883.830	13
883.869	-231
883.910	90
883.975	674
883.991	563
884.072	-617
884.081	-667
884.152	-176
884.187	-150
884.233	-126
884.292	100
884.314	280
884.394	829
884.398	846
884.475	389
884.504	234
884.555	-97
884.610	-287
884.636	-320
884.716	-274
884.716	-269
884.797	101
884.821	368
884.877	363
884.927	54
884.958	20
885.033	529
885.038	521
885.118	-205
885.139	-312
885.199	91
885.244	385
885.279	179
885.350	-109
885.359	-31
885.439	443
885.456	479
885.520	210
885.561	212
885.600	299
885.667	495
885.680	413
885.760	-300
885.773	-431
885.840	-205
885.878	96
885.920	329
885.984	488
886.000	534
886.080	727
886.089	766
886.160	372
886.195	52
886.240	131
886.300	337
886.320	326
886.400	300
886.406	291
886.480	606
886.511	721
886.560	190
886.616	-318
886.640	-216
886.720	-29
886.722	-28
886.800	-387
886.827	-421
886.879	-3
886.932	273
886.959	310
887.038	428
887.039	434
887.119	658
887.143	661
887.198	485
887.248	541
887.278	701
887.354	716
887.358	717
887.437	695
887.459	769
887.517	608
887.564	293
887.596	-14
887.669	-663
887.676	-582
887.755	582
887.774	790
887.835	595
887.880	630
887.914	609
887.985	303
887.994	251
888.073	-178
888.090	-253
888.153	426
888.195	823
888.232	398
888.300	-391
888.311	-282
888.391	699
888.405	823
888.470	353
888.510	126
888.549	306
888.615	615
888.628	594
888.708	384
888.720	362
888.787	500
888.825	532
888.866	342
888.930	79
888.945	232
889.024	993
889.035	1103
889.103	106
889.140	-488
889.182	-174
889.245	365
889.261	304
889.340	-13
889.349	-49
889.419	411
889.454	640
889.498	166
889.559	-495
889.577	-316
889.656	489
889.664	570
889.735	257
889.768	105
889.814	452
889.873	916
889.978	-320
890.083	529
890.187	673
890.292	1156
890.397	-221
890.501	371
890.606	-58
890.710	644
890.815	148
890.919	378
891.024	522
891.128	249
891.233	187
891.337	878
891.442	835
891.546	673
891.650	268
891.755	356
891.859	1973
891.963	721
892.068	180
892.172	1048
892.276	-295
892.380	510
892.484	120
892.589	1263
892.693	259
892.797	91
892.901	-281
893.005	886
893.109	418
893.213	457
893.317	233
893.421	698
893.525	-180
893.629	207
893.733	-339
893.837	931
893.941	-131
894.045	1394
894.148	-109
894.252	1164
894.356	477
894.460	734
894.564	561
894.667	661
894.771	-41
894.875	-429
894.978	-244
895.082	-216
895.186	-389
895.289	690
895.393	142
895.496	941
895.600	-584
895.703	-195
895.807	532
895.910	1169
896.014	490
896.117	428
896.221	463
896.324	-218
896.427	-39
896.531	252
896.634	-630
896.737	950
896.840	-12
896.944	699
897.047	216
897.150	161
897.253	-396
897.356	-204
897.460	-941
897.563	193
897.666	-251
897.769	207
897.872	-161
897.975	340
898.078	84
898.181	1036
898.284	-870
898.387	103
898.490	-175
898.593	541
898.695	-786
898.798	1192
898.901	-483
899.004	608
899.107	-741
899.209	-516
899.312	-83
899.415	680
899.518	-138
899.620	-527
899.723	299
899.826	352
899.928	242
900.031	269
900.133	-319
900.236	712
900.338	186
900.441	468
900.543	-267
900.646	220
900.748	86
900.851	618
900.953	-28
901.055	576
901.158	-791
901.260	191
901.362	-26
901.465	616
901.567	-964
901.669	1204
901.771	-73
901.873	315
901.976	444
902.078	761
902.180	268
902.282	-111
902.384	-168
902.486	235
902.588	132
902.690	28
902.792	-864
902.894	999
902.996	143
903.098	440
903.200	-261
903.302	7
903.404	-562
903.505	846
903.607	-515
903.709	772
903.811	-12
903.913	159
904.014	-92
904.116	46
904.218	-1089
904.319	1103
904.421	354
904.523	706
904.624	486
904.726	358
904.827	-1384
904.929	-429
905.030	-540
905.132	740
905.233	242
905.335	333
905.436	135
905.537	779
905.639	423
905.740	310
905.841	-271
905.943	273
906.044	-425
906.145	789
906.247	-183
906.348	125
906.449	-707
906.550	690
906.651	521
906.752	470
906.854	-168
906.955	457
907.056	19
907.157	-374
907.258	201
907.359	309
907.460	-576
907.561	368
907.662	-438
907.762	-264
907.863	-161
907.964	574
908.065	-317
908.166	469
908.267	-524
908.367	79
908.468	-507
908.569	457
908.670	511
908.770	424
908.871	-51
908.971	276
909.072	-417
909.173	373
909.273	-744
909.374	955
909.474	349
909.575	843
909.675	-833
909.776	972
909.876	-284
909.977	679
910.077	-560
910.177	401
910.278	-136
910.378	-551
910.478	-541
910.579	189
910.679	-249
910.779	162
910.879	107
910.980	1106
911.080	181
911.180	194
911.280	-446
911.380	355
911.480	-553
911.580	253
911.680	37
911.780	-318
911.880	191
911.980	1052
912.080	184
912.180	751
912.280	-447
912.380	264
912.480	60
912.580	-168
912.679	-425
912.779	538
912.879	-681
912.979	926
913.078	-271
913.178	94
913.278	-592
913.377	70
913.477	89
913.577	-9
913.676	-28
913.776	636
913.875	-465
913.975	122
914.074	-723
914.174	418
914.273	-677
914.373	253
914.472	68
914.572	-675
914.671	-910
914.770	134
914.870	-400
914.969	217
915.068	168
915.167	742
915.267	-252
915.366	-76
915.465	-443
915.564	-196
915.663	154
915.763	442
915.862	729
915.961	106
916.060	-911
916.159	599
916.258	-394
916.357	198
916.456	266
916.555	883
916.654	-241
916.752	303
916.851	-602
916.950	357
917.049	-10
917.148	680
917.247	-613
917.345	283
917.444	164
917.543	213
917.642	18
917.740	67
917.839	-909
917.937	-8
918.036	664
918.135	-347
918.233	-330
918.332	35
918.430	-1003
918.529	40
918.627	-506
918.726	292
918.824	-442
918.923	-410
919.021	342
919.119	491
919.218	-726
919.316	587
919.414	-451
919.512	488
919.611	459
919.709	607
919.807	-740
919.905	12
920.003	-387
920.102	97
920.200	-516
920.298	105
920.396	-231
920.494	766
920.592	-867
920.690	477
920.788	-480
920.886	974
920.984	7
921.082	-367
921.180	279
921.277	-82
921.375	133
921.473	572
921.571	571
921.669	59
921.766	663
921.864	131
921.962	417
922.060	1052
922.157	63
922.255	454
922.352	413
922.450	1145
922.548	441
922.645	695
922.743	349
922.840	1023
922.938	1405
923.035	1998
923.133	965
923.230	2152
923.327	2220
923.425	2598
923.522	1955
923.619	1456
923.717	774
923.814	2587
923.911	1456
924.008	2505
924.106	323
924.203	1082
924.300	603
924.397	1474
924.494	1692
924.591	2013
924.688	-260
924.786	1599
924.883	915
924.979	1299
925.077	1287
925.173	1664
925.270	813
925.367	1764
925.464	1275
925.561	1240
925.658	1734
925.755	1441
925.852	1337
925.948	1625
926.045	1537
926.142	1686
926.239	691
926.335	1563
926.432	1331
926.529	1452
926.625	1093
926.722	1371
926.818	345
926.915	1238
927.011	779
927.108	640
927.204	791
927.301	1262
927.397	1007
927.494	2184
927.590	526
927.687	1280
927.783	1515
927.879	1269
927.976	632
928.072	1082
928.168	1081
928.264	1232
928.361	699
928.457	1151
928.553	934
928.649	1540
928.745	715
928.841	1289
928.937	580
929.033	2270
929.129	833
929.225	1342
929.321	1162
929.417	530
929.513	770
929.609	1470
929.705	917
929.801	1554
929.897	806
929.993	1192
930.089	753
930.184	1708
930.280	-439
930.376	1165
930.471	306
930.567	1267
930.663	615
930.758	812
930.854	79
930.950	988
931.045	355
931.141	864
931.236	569
931.332	1089
931.427	-543
931.523	806
931.618	719
931.714	899
931.809	-112
931.905	953
932.000	-623
932.095	92
932.191	-8
932.286	1185
932.381	608
932.476	357
932.572	-73
932.667	697
932.762	-345
932.857	1107
932.952	213
933.047	610
933.142	-208
933.237	832
933.332	438
933.427	1015
933.522	-226
933.617	252
933.712	-119
933.807	999
933.902	487
933.997	1177
934.092	-525
934.187	301
934.282	-24
934.376	693
934.471	133
934.566	846
934.661	301
934.755	270
934.850	-395
934.945	857
935.039	457
935.134	690
935.228	-140
935.323	748
935.417	81
935.512	-202
935.606	-197
935.701	411
935.795	961
935.890	1200
935.984	170
936.079	995
936.173	31
936.267	177
936.362	-174
936.456	675
936.550	-235
936.644	831
936.738	-425
936.833	854
936.927	-26
937.021	459
937.115	-106
937.209	40
937.303	1112
937.397	-204
937.491	-146
937.585	567
937.679	-88
937.773	225
937.867	-748
937.961	-224
938.055	-18
938.149	523
938.243	-856
938.337	638
938.430	-784
938.524	891
938.618	639
938.712	384
938.805	-25
938.899	94
938.993	436
939.086	71
939.180	-407
939.274	523
939.367	832
939.461	-227
939.554	-287
939.648	-24
939.741	-1211
939.835	-174
939.928	224
940.022	657
940.115	-198
940.208	860
940.302	-343
940.395	2045
940.488	-2122
940.582	734
940.675	-448
940.768	467
940.861	-447
940.954	448
941.048	-103
941.141	-105
941.234	-468
941.327	624
941.420	562
941.513	927
941.606	131
941.699	669
941.792	-565
941.885	612
941.978	167
942.071	1015
942.164	-459
942.257	79
942.349	-55
942.442	622
942.535	-779
942.628	-396
942.721	-542
942.813	-580
942.906	1222
942.999	-255
943.091	-125
943.184	379
943.277	-917
943.369	1186
943.462	-654
943.554	-66
943.647	-1078
943.739	650
943.832	-637
943.924	112
944.017	255
944.109	-181
944.201	-212
944.294	21
944.386	-143
944.478	-176
944.571	-1035
944.663	166
944.755	-53
944.847	174
944.940	-629
945.032	-428
945.124	-1094
945.216	656
945.308	-593
945.400	524
945.492	-234
945.584	392
945.676	-681
945.768	-85
945.860	-524
945.952	455
946.044	400
946.136	153
946.228	-229
946.320	-27
946.412	-39
946.503	411
946.595	-295
946.687	246
946.779	-180
946.870	248
946.962	-1084
947.054	-142
947.145	-391
947.237	-210
947.329	-762
947.420	-741
947.512	-597
947.603	-444
947.695	-178
947.786	-62
947.878	-559
947.969	895
948.061	-178
948.152	-142
948.243	-169
948.335	46
948.426	-829
948.517	73
948.609	-297
948.700	104
948.791	-264
948.882	778
948.973	-1123
949.065	-197
949.156	-454
949.247	-329
949.338	-657
949.429	-731
949.520	-270
949.611	-1017
949.702	-402
949.793	364
949.884	-728
949.975	358
950.066	-995
950.157	-426
950.247	-747
950.338	437
950.429	-752
950.520	153
950.611	-806
950.701	60
950.792	-338
950.883	-386
950.973	-794
951.064	-158
951.155	-677
951.245	781
951.336	-807
951.427	-238
951.517	-300
951.608	-93
951.698	-1128
951.788	389
951.879	-1298
951.969	479
952.060	-1560
952.150	37
952.240	174
952.331	-1547
952.421	839
952.511	-143
952.602	120
952.692	-363
952.782	-56
952.872	-541
952.962	-549
953.052	-401
953.143	-628
953.233	696
953.323	34
953.413	186
953.503	-246
953.593	-183
953.683	-987
953.773	-856
953.863	-914
953.953	-70
954.042	-634
954.132	-770
954.222	-1360
954.312	122
954.402	-1203
954.492	102
954.581	-1636
954.671	115
954.761	-844
954.850	690
954.940	-883
955.030	-168
955.119	-1606
955.209	-580
955.298	-422
955.388	-221
955.477	-689
955.567	-610
955.656	-834
955.746	875
955.835	-998
955.925	-304
956.014	317
956.103	-663
956.193	-739
956.282	547
956.371	-520
956.461	-531
956.550	-297
956.639	-173
956.728	-1183
956.817	169
956.906	-1737
956.995	517
957.085	-1171
957.174	234
957.263	-1303
957.352	-730
957.441	-1006
957.530	-445
957.619	-1390
957.708	-465
957.796	-383
957.885	-161
957.974	-749
958.063	974
958.152	-908
958.241	19
958.329	-1136
958.418	-127
958.507	-1487
958.596	478
958.684	-2059
958.773	243
958.861	-1229
958.950	295
959.039	103
959.127	-12
959.216	-307
959.304	-242
959.393	-337
959.481	5
959.570	-411
959.658	-516
959.746	-495
959.835	548
959.923	-51
960.011	-52
960.100	134
960.188	581
960.276	-463
960.365	-742
960.453	-1075
960.541	-1309
960.629	-1607
960.717	-139
960.805	-1818
960.893	65
960.981	-1143
961.069	152
961.158	-1775
961.245	264
961.333	-784
961.421	-725
961.509	-1050
961.597	-70
961.685	-1521
961.773	-1244
961.861	-854
961.949	-484
962.036	-1649
962.124	449
962.212	-762
962.299	-1423
962.387	-2567
962.475	365
962.562	-1884
962.650	433
962.738	-920
962.825	-951
962.913	-1363
963.000	-567
963.088	-1115
963.175	-324
963.263	-781
963.350	-989
963.438	-527
963.525	-159
963.612	-587
963.700	773
963.787	1373
963.874	-64
963.962	-934
964.049	426
964.136	-1635
964.223	-757
964.310	-1289
964.398	-778
964.485	-1320
964.572	255
964.659	-698
964.746	-164
964.833	-1375
964.920	-942
965.007	-1741
965.094	-864
965.181	-1585
965.268	-547
965.355	-1480
965.441	-655
965.528	-1491
965.615	-587
965.702	-1375
965.789	-1326
965.875	-1278
965.962	4
966.049	-1878
966.136	-200
966.222	-1474
966.309	-376
966.395	-1718
966.482	-49
966.569	-71
966.655	299
966.742	-1737
966.828	-829
966.915	-1546
967.001	-610
967.087	-1618
967.174	-339
967.260	-923
967.347	-1197
967.433	-557
967.519	1666
967.605	-1049
967.692	-1540
967.778	-1700
967.864	-1032
967.950	-1099
968.036	-1085
968.123	-1799
968.209	-547
968.295	-2251
968.381	-392
968.467	-1646
968.553	-1832
968.639	-745
968.725	-1567
968.811	-166
968.897	-582
968.983	-1424
969.069	-1212
969.154	-66
969.240	-196
969.326	-1413
969.412	-1186
969.497	-719
969.583	-1404
969.669	-395
969.755	-668
969.840	-1834
969.926	352
970.012	-728
970.097	-721
970.183	-957
970.268	-770
970.354	-522
970.439	-1408
970.525	-380
970.610	-1260
970.696	-127
970.781	-658
970.866	-2402
970.952	33
971.037	-2115
971.122	-613
971.208	-1332
971.293	-285
971.378	-2330
971.463	-496
971.549	-1432
971.634	-738
971.719	-1463
971.804	-990
971.889	-815
971.974	-856
972.059	-1780
972.144	-657
972.229	-1698
972.314	-1714
972.399	-1167
972.484	-1283
972.569	-826
972.654	-1335
972.739	155
972.824	-1183
972.908	-2396
972.993	-1268
973.078	-1460
973.163	-1103
973.247	-1668
973.332	-1133
973.417	-820
973.501	-1245
973.586	-786
973.671	-315
973.755	-2024
973.840	-718
973.924	-1437
974.009	-865
974.093	-1881
974.178	561
974.262	-1085
974.346	-1708
974.431	-1581
974.515	-1155
974.600	-763
974.684	-970
974.768	-1696
974.852	-132
974.937	-1872
975.021	-126
975.105	-1027
975.189	-458
975.273	-1218
975.358	-1108
975.442	-2468
975.526	-754
975.610	-2438
975.694	-999
975.778	217
975.862	-308
975.946	-3636
976.030	-87
976.114	-1451
976.198	-626
976.281	-1671
976.365	-329
976.449	-2074
976.533	-1074
976.617	-2168
976.700	-452
976.784	-2015
976.868	-979
976.951	-1074
977.035	-801
977.119	-1035
977.202	-1088
977.286	-1217
977.369	-301
977.453	-91
977.536	-314
977.620	-2142
977.703	-391
977.787	-1498
977.870	-657
977.953	-646
978.037	-1849
978.120	-635
978.203	-1065
978.287	-1105
978.370	-70
978.453	-1718
978.536	-231
978.620	-1094
978.703	-164
978.786	-1051
978.869	-695
978.952	-2419
979.035	933
979.118	-1289
979.201	-1151
979.284	-1220
979.367	-622
979.450	-680
979.533	-899
979.616	-1473
979.699	-1162
979.782	-606
979.865	-754
979.948	-1949
980.030	-474
980.113	-1017
980.196	-1354
980.279	-900
980.361	-429
980.444	-1065
980.526	-43
980.609	-1345
980.692	-358
980.774	-1140
980.857	-1629
980.939	-489
981.022	-221
981.104	-1406
981.187	-1096
981.269	-928
981.352	50
981.434	-1792
981.516	-1707
981.599	-904
981.681	-100
981.763	-1412
981.846	-549
981.928	-2340
982.010	-1116
982.092	-1763
982.174	-151
982.256	-1174
982.339	-778
982.421	-1507
982.503	-480
982.585	-2004
982.667	235
982.749	-1292
982.831	-510
982.913	-1494
982.995	238
983.077	-1770
983.158	789
983.240	-2141
983.322	-8
983.404	-1023
983.486	-261
983.568	-528
983.649	-1026
983.731	-1053
983.813	-235
983.894	-785
983.976	-1324
984.058	-1819
984.139	550
984.221	-2121
984.302	-243
984.384	-1675
984.465	-973
984.547	-1597
984.628	-1687
984.710	-822
984.791	-1773
984.872	-809
984.954	-684
985.035	-1324
985.116	-661
985.198	-1255
985.279	369
985.360	-1551
985.441	-274
985.522	-729
985.604	-1084
985.685	-2670
985.766	756
985.847	177
985.928	-1132
986.009	-1794
986.090	-621
986.171	-492
986.252	-815
986.333	-879
986.414	-1813
986.495	-706
986.576	-473
986.656	-1479
986.737	-205
986.818	-1456
986.899	-735
986.980	-1734
987.060	-198
987.141	-2303
987.222	-180
987.302	-729
987.383	-688
987.464	-1073
987.544	58
987.625	-2090
987.705	97
987.786	-563
987.866	-285
987.947	-1691
988.027	-336
988.108	-1967
988.188	-128
988.268	-1460
988.349	-1163
988.429	-809
988.509	-220
988.589	-930
988.670	-1829
988.750	-882
988.830	-325
988.910	-1525
988.990	-1033
989.070	-2140
989.151	-408
989.231	-1438
989.311	-436
989.391	-1139
989.471	-1019
989.551	-1288
989.631	-1052
989.711	-1069
989.791	-1412
989.870	-1893
989.950	1172
990.030	-2353
990.110	-1679
990.190	-1444
990.269	-1439
990.349	-2458
990.429	-183
990.509	-835
990.588	-1592
990.668	-403
990.747	-772
990.827	-856
990.907	-580
990.986	-1300
991.066	149
991.145	-1568
991.225	-956
991.304	-1197
991.383	-728
991.463	-1417
991.542	-817
991.622	-1488
991.701	-796
991.780	-1576
991.859	-1059
991.939	-1883
992.018	-1177
992.097	-1720
992.176	-1140
992.256	-2601
992.335	-1813
992.414	-1017
992.493	-1248
992.572	-1661
992.651	474
992.730	-1837
992.809	-688
992.888	-2687
992.967	-1047
993.046	-1797
993.125	-1361
993.203	-954
993.282	-631
993.361	-1147
993.440	-1112
993.519	-2308
993.597	-736
993.676	-1162
993.755	-370
993.834	-1134
993.912	-1632
993.991	-813
994.069	-1390
994.148	-1936
994.226	-1378
994.305	-1107
994.384	-1034
994.462	-704
994.540	-1536
994.619	-1952
994.697	61
994.776	-2104
994.854	-415
994.932	-2038
995.011	-597
995.089	-1659
995.167	-589
995.245	-1336
995.324	-818
995.402	-695
995.480	-1347
995.558	-1599
995.636	-1867
995.714	-2232
995.792	-117
995.870	-1747
995.948	-888
996.026	-836
996.104	-2417
996.182	-1213
996.260	-874
996.338	-1059
996.416	-2206
996.494	-2323
996.572	-240
996.649	-2706
996.727	-1756
996.805	-1727
996.883	-1236
996.960	-2030
997.038	-1052
997.116	-1515
997.193	-1506
997.271	-1342
997.348	-2113
997.426	-1070
997.504	-1415
997.581	-1557
997.658	-827
997.736	-2268
997.813	-1421
997.891	-1436
997.968	-1479
998.046	-1231
998.123	-2428
998.200	-1998
998.277	-1904
998.355	-1211
998.432	-2750
998.509	-2102
998.586	-811
998.663	-1507
998.741	-1042
998.818	-1944
998.895	-1119
998.972	-1671
999.049	-533
999.126	-2095
999.203	-924
999.280	-1691
999.357	-1972
999.434	-3216
999.511	-1305
999.587	-1118
999.664	-1564
999.741	-1805
999.818	-947
999.895	-2596
999.971	-2122
1000.048	-2170
1000.125	-445
1000.202	-2197
1000.278	-1441
1000.355	-1100
1000.431	-823
1000.508	-2282
1000.584	-1115
1000.661	-1452
1000.738	-1908
1000.814	-1501
1000.890	-1426
1000.967	-2275
1001.043	-1176
1001.120	-3157
1001.196	-875
1001.272	-3339
1001.349	-1691
1001.425	-1899
1001.501	-1346
1001.577	-3067
1001.654	-1552
1001.730	-2528
1001.806	-1504
1001.882	-1880
1001.958	-1186
1002.034	-1976
1002.110	-947
1002.186	-2258
1002.262	-1430
1002.338	-3050
1002.414	-1327
1002.490	-1979
1002.566	-1765
1002.642	-1322
1002.718	-850
1002.794	-2206
1002.870	-1491
1002.945	-2302
1003.021	-2225
1003.097	-2669
1003.173	-1532
1003.248	-2487
1003.324	-1580
1003.400	-1461
1003.475	-1800
1003.551	-1945
1003.626	-1335
1003.702	-2035
1003.777	-1870
1003.853	-2589
1003.928	-1773
1004.004	-1950
1004.079	-272
1004.155	-2412
1004.230	-2706
1004.305	-944
1004.381	-2644
1004.456	-2282
1004.531	-1606
1004.607	-1905
1004.682	-1652
1004.757	-2441
1004.832	-1311
1004.907	-1893
1004.982	-1258
1005.057	-1642
1005.133	-1760
1005.208	-1750
1005.283	-1473
1005.358	-410
1005.433	-2050
1005.508	-2057
1005.583	-2257
1005.657	-2571
1005.732	-1120
1005.807	-2270
1005.882	-1989
1005.957	-2415
1006.032	-1451
1006.106	-1989
1006.181	-2189
1006.256	-1724
1006.331	-1715
1006.405	-2036
1006.480	-1883
1006.554	-2386
1006.629	-1592
1006.704	-2248
1006.778	-824
1006.853	-1707
1006.927	-1818
1007.002	-2451
1007.076	-1623
1007.150	-2637
1007.225	-2064
1007.299	-2056
1007.373	-2816
1007.448	-2002
1007.522	-1909
1007.596	-1296
1007.671	-1976
1007.745	-1771
1007.819	-2877
1007.893	-2546
1007.967	-1295
1008.041	-3366
1008.115	-2282
1008.190	-3104
1008.264	-1567
1008.338	-2712
1008.412	-1673
1008.486	-2576
1008.560	-1317
1008.633	-2620
1008.707	-1779
1008.781	-1946
1008.855	-1322
1008.929	-2404
1009.003	-1572
1009.076	-2437
1009.150	-1250
1009.224	-2165
1009.298	-1981
1009.371	-2319
1009.445	-1162
1009.519	-1999
1009.592	-3051
1009.666	-2570
1009.739	-2175
1009.813	-2390
1009.886	-1450
1009.960	-3223
1010.033	-1326
1010.107	-1670
1010.180	-2302
1010.253	-1762
1010.327	-1774
1010.400	-2890
1010.473	-1459
1010.547	-882
1010.620	-1743
1010.693	-1448
1010.766	-2485
1010.840	-2530
1010.913	-2167
1010.986	-2414
1011.059	-1798
1011.132	-2163
1011.205	-1243
1011.278	-2269
1011.351	-2341
1011.424	-2708
1011.497	-1809
1011.570	-1949
1011.643	-2271
1011.716	-2727
1011.789	-988
1011.862	-2543
1011.934	-939
1012.007	-2635
1012.080	-1872
1012.153	-2315
1012.225	-934
1012.298	-2116
1012.371	-1724
1012.443	-1786
1012.516	-2358
1012.588	-1940
1012.661	-1069
1012.733	-2519
1012.806	-1222
1012.879	-1910
1012.951	-1905
1013.023	-2240
1013.096	-1439
1013.168	-2617
1013.241	-1216
1013.313	-2651
1013.385	-2218
1013.458	-2055
1013.530	-935
1013.602	-2400
1013.674	-1968
1013.746	-2667
1013.819	-2108
1013.891	-2407
1013.963	-2114
1014.035	-2857
1014.107	-777
1014.179	-1331
1014.251	-2330
1014.323	-1766
1014.395	-1139
1014.467	-2004
1014.539	-1143
1014.611	-2385
1014.683	-1238
1014.754	-2427
1014.826	-2933
1014.898	-1981
1014.970	-2306
1015.042	-1358
1015.113	-2087
1015.185	-1627
1015.257	-1878
1015.328	-2927
1015.400	-1981
1015.471	-1820
1015.543	-2618
1015.615	-2596
1015.686	-1863
1015.757	-3256
1015.829	-1692
1015.901	-1936
1015.972	-907
1016.043	-2533
1016.115	-1356
1016.186	-1829
1016.257	-2121
1016.328	-1917
1016.400	-935
1016.471	-2852
1016.542	-1644
1016.613	-1726
1016.685	-2275
1016.756	-1920
1016.827	-1509
1016.898	-2921
1016.969	-1143
1017.040	-1603
1017.111	-1538
1017.182	-2476
1017.253	-1522
1017.324	-1857
1017.395	-1693
1017.466	-2946
1017.537	-1584
1017.608	-2136
1017.678	-1601
1017.749	-1845
1017.820	-2019
1017.891	-2270
1017.961	-2551
1018.032	-2672
1018.103	-1878
1018.173	-2876
1018.244	-1924
1018.315	-2271
1018.385	-1024
1018.456	-2235
1018.526	-1780
1018.597	-2219
1018.667	-1866
1018.738	-1594
1018.808	-1064
1018.878	-2164
1018.949	-1634
1019.019	-1877
1019.089	-1280
1019.160	-2064
1019.230	-2304
1019.300	-2188
1019.371	-1822
1019.441	-2514
1019.511	-1817
1019.581	-2820
1019.651	-1465
1019.721	-2344
1019.791	-1923
1019.861	-3226
1019.931	-1903
1020.001	-1622
1020.071	-1824
1020.141	-2602
1020.211	-1864
1020.281	-2407
1020.351	-1120
1020.421	-2527
1020.491	-1421
1020.560	-2794
1020.630	-1739
1020.700	-1849
1020.770	-2612
1020.839	-2265
1020.909	-1367
1020.979	-2579
1021.048	-2170
1021.118	-2803
1021.187	-1766
1021.257	-2618
1021.326	-1324
1021.396	-2926
1021.465	-1146
1021.535	-1874
1021.604	-2201
1021.674	-2468
1021.743	-2057
1021.812	-2028
1021.882	-1271
1021.951	-2486
1022.020	-1781
1022.089	-1383
1022.159	-1001
1022.228	-1235
1022.297	-1793
1022.366	-2663
1022.435	-2287
1022.504	-3008
1022.573	-1730
1022.642	-2533
1022.711	-1538
1022.781	-1827
1022.849	-1722
1022.918	-2869
1022.987	-1187
1023.056	-2767
1023.125	-1956
1023.194	-2071
1023.263	-1712
1023.331	-2440
1023.400	-1802
1023.469	-2208
1023.538	-724
1023.606	-3011
1023.675	-1818
1023.744	-2213
1023.812	-2251
1023.881	-2921
1023.949	-1561
1024.018	-2492
1024.086	-1658
1024.155	-2979
1024.223	-1937
1024.292	-2026
1024.360	-1208
1024.429	-2968
1024.497	-1915
1024.565	-2112
1024.634	-2194
1024.702	-2519
1024.770	-2338
1024.838	-2025
1024.907	-1682
1024.975	-2915
1025.043	-1765
1025.111	-2970
1025.179	-1911
1025.247	-2360
1025.315	-2221
1025.383	-2552
1025.451	-1315
1025.519	-2188
1025.587	-1842
1025.655	-2331
1025.723	-1836
1025.791	-2181
1025.859	-2652
1025.927	-2142
1025.995	-1970
1026.062	-2635
1026.130	-1513
1026.198	-2347
1026.266	-2173
1026.333	-1806
1026.401	-1402
1026.469	-2088
1026.536	-1703
1026.604	-2723
1026.671	-2289
1026.739	-2984
1026.806	-1616
1026.874	-2564
1026.941	-1850
1027.009	-2154
1027.076	-2511
1027.144	-1917
1027.211	-2027
1027.278	-2972
1027.345	-1874
1027.413	-2797
1027.480	-1920
1027.547	-2220
1027.614	-1798
1027.682	-2314
1027.749	-2317
1027.816	-2474
1027.883	-2750
1027.950	-3014
1028.017	-2430
1028.084	-2008
1028.151	-2408
1028.218	-2294
1028.285	-1534
1028.352	-2688
1028.419	-2465
1028.486	-3201
1028.553	-2322
1028.619	-3170
1028.686	-1334
1028.753	-2760
1028.820	-2182
1028.886	-2779
1028.953	-2495
1029.020	-2803
1029.086	-2368
1029.153	-2289
1029.220	-2664
1029.286	-2097
1029.353	-1903
1029.419	-2732
1029.486	-1989
1029.552	-3331
1029.619	-1753
1029.685	-2497
1029.751	-2435
1029.818	-2777
1029.884	-2086
1029.951	-1304
1030.017	-1891
1030.083	-2992
1030.149	-1760
1030.216	-2821
1030.282	-1605
1030.348	-2208
1030.414	-2682
1030.480	-2466
1030.546	-2342
1030.612	-3343
1030.678	-2052
1030.744	-2594
1030.810	-1337
1030.876	-2959
1030.942	-2357
1031.008	-2875
1031.074	-1468
1031.140	-2239
1031.206	-1539
1031.272	-3123
1031.337	-1896
1031.403	-2228
1031.469	-1615
1031.534	-2771
1031.600	-1503
1031.666	-2623
1031.731	-2628
1031.797	-3067
1031.863	-2876
1031.928	-3042
1031.994	-1791
1032.059	-2868
1032.125	-2577
1032.190	-2359
1032.256	-1961
1032.321	-3118
1032.386	-2082
1032.452	-2657
1032.517	-2122
1032.582	-2923
1032.647	-2583
1032.713	-2398
1032.778	-2300
1032.843	-2878
1032.908	-2993
1032.974	-2624
1033.039	-2344
1033.104	-2487
1033.169	-2852
1033.234	-2927
1033.299	-2212
1033.364	-2221
1033.429	-1881
1033.494	-2319
1033.559	-2054
1033.624	-2471
1033.688	-2248
1033.753	-3600
1033.818	-1772
1033.883	-2241
1033.948	-2241
1034.013	-2974
1034.077	-2823
1034.142	-2319
1034.207	-1974
1034.271	-2108
1034.336	-536
1034.400	-1729
1034.465	-2289
1034.530	-2453
1034.594	-1687
1034.658	-2762
1034.723	-2684
1034.787	-2782
1034.852	-2333
1034.916	-3116
1034.981	-1822
1035.045	-2287
1035.109	-2056
1035.173	-2387
1035.238	-2390
1035.302	-3154
1035.366	-1956
1035.430	-2885
1035.495	-2349
1035.559	-2257
1035.623	-1843
1035.687	-2788
1035.751	-2056
1035.815	-2632
1035.879	-1944
1035.943	-2524
1036.007	-1855
1036.071	-2326
1036.135	-1846
1036.198	-3258
1036.262	-2366
1036.326	-2723
1036.390	-2109
1036.454	-2955
1036.517	-2217
1036.581	-2162
1036.645	-1956
1036.709	-2309
1036.772	-1410
1036.836	-3150
1036.900	-2236
1036.963	-2256
1037.026	-1845
1037.090	-3434
1037.154	-2078
1037.217	-2668
1037.280	-1915
1037.344	-2825
1037.407	-2728
1037.471	-2381
1037.534	-2573
1037.597	-3038
1037.661	-2075
1037.724	-2456
1037.787	-2938
1037.850	-2848
1037.913	-2121
1037.977	-1802
1038.040	-2456
1038.103	-2827
1038.166	-1791
1038.229	-1629
1038.292	-2126
1038.355	-2745
1038.418	-2036
1038.481	-2347
1038.544	-1659
1038.607	-3096
1038.670	-1906
1038.732	-3142
1038.795	-3281
1038.858	-2743
1038.921	-1489
1038.984	-2775
1039.046	-2397
1039.109	-2774
1039.172	-2485
1039.234	-3356
1039.297	-2934
1039.360	-2955
1039.422	-2699
1039.485	-3343
1039.547	-2320
1039.610	-2952
1039.672	-2576
1039.734	-2709
1039.797	-3204
1039.859	-2318
1039.922	-1591
1039.984	-3239
1040.046	-2320
1040.109	-2126
1040.171	-2558
1040.233	-2872
1040.295	-2022
1040.358	-3073
1040.420	-2879
1040.482	-2894
1040.544	-2007
1040.606	-2488
1040.668	-2405
1040.730	-2797
1040.792	-2504
1040.854	-3228
1040.916	-2440
1040.978	-2754
1041.040	-1854
1041.102	-1852
1041.164	-2213
1041.225	-2289
1041.287	-2405
1041.349	-3050
1041.411	-2639
1041.472	-2694
1041.534	-2106
1041.596	-3427
1041.657	-1605
1041.719	-3490
1041.781	-2308
1041.842	-3435
1041.904	-2425
1041.965	-2812
1042.027	-1930
1042.088	-2535
1042.150	-2431
1042.211	-3326
1042.272	-1950
1042.334	-3007
1042.395	-2289
1042.456	-3377
1042.518	-1680
1042.579	-2304
1042.640	-2476
1042.701	-2746
1042.763	-2327
1042.824	-3094
1042.885	-1949
1042.946	-3557
1043.007	-1610
1043.068	-2317
1043.129	-2114
1043.190	-2389
1043.251	-1706
1043.312	-2801
1043.373	-1432
1043.434	-2653
1043.495	-2784
1043.556	-1825
1043.616	-2614
1043.677	-3717
1043.738	-1984
1043.799	-3824
1043.859	-2280
1043.920	-2770
1043.981	-1750
1044.041	-2427
1044.102	-2082
1044.162	-2465
1044.223	-2448
1044.284	-3505
1044.344	-1313
1044.405	-2663
1044.465	-2148
1044.525	-2800
1044.586	-1640
1044.646	-2968
1044.707	-1168
1044.767	-2060
1044.827	-1926
1044.887	-3196
1044.948	-1440
1045.008	-1982
1045.068	-1586
1045.128	-2865
1045.188	-2234
1045.249	-2431
1045.309	-2235
1045.369	-2612
1045.429	-1611
1045.489	-3112
1045.549	-1606
1045.609	-2454
1045.669	-1777
1045.729	-3216
1045.789	-1972
1045.848	-2466
1045.908	-1734
1045.968	-1955
1046.028	-1917
1046.088	-1741
1046.147	-2017
1046.207	-2853
1046.267	-1871
1046.326	-1811
1046.386	-1409
1046.446	-1804
1046.505	-1151
1046.565	-1206
1046.624	-1173
1046.684	-1789
1046.743	-1261
1046.803	-1300
1046.862	-667
1046.922	0
