'Start Wavelength	183.907
'End Wavelength	1046.922
'Gate Delay	5.000
'Gate Width (ms)	1.050
'Laser Output Level	0.000
'X Position	0.000
'Y Position	0.000
'Z Position	0.000
'Grid Point Number	1.000
'Shot Number	100.000
183.907	140.000
183.977	97.000
184.047	-12
184.116	194
184.186	-203
184.256	-957
184.325	-298
184.395	-504
184.465	849
184.534	-87
184.604	-1387
184.674	720
184.743	-100
184.813	997
184.883	118
184.952	306
185.022	453
185.092	12
185.161	-530
185.231	50
185.301	-78
185.370	362
185.440	-447
185.509	297
185.579	-346
185.649	541
185.718	411
185.788	384
185.857	-309
185.927	-630
185.996	-269
186.066	-78
186.136	-304
186.205	-68
186.275	128
186.344	293
186.414	-419
186.483	-443
186.553	525
186.622	775
186.692	-77
186.761	-130
186.831	-23
186.900	171
186.970	-354
187.039	438
187.109	365
187.178	-451
187.248	155
187.317	29
187.387	-449
187.456	48
187.526	-298
187.595	676
187.664	107
187.734	390
187.803	-265
187.873	-768
187.942	640
188.012	-342
188.081	-73
188.150	-303
188.220	-31
188.289	148
188.358	-657
188.428	-73
188.497	-457
188.567	772
188.636	-555
188.705	-102
188.775	-438
188.844	-735
188.913	99
188.983	-584
189.052	-326
189.121	-326
189.191	-388
189.260	185
189.329	-98
189.399	236
189.468	-89
189.537	-164
189.606	232
189.676	-86
189.745	-430
189.814	-678
189.883	-135
189.953	-197
190.022	-154
190.091	-220
190.161	151
190.230	-300
190.299	-419
190.368	-667
190.437	-94
190.507	569
190.576	-310
190.645	-544
190.714	503
190.783	-402
190.853	125
190.922	253
190.991	-457
191.060	-57
191.129	-877
191.198	376
191.268	81
191.337	-43
191.406	-44
191.475	-524
191.544	137
191.613	-142
191.682	-51
191.752	115
191.821	-296
191.890	-627
191.959	307
192.028	-381
192.097	-282
192.166	511
192.235	-989
192.304	41
192.373	26
192.442	183
192.511	-680
192.580	197
192.650	11
192.719	438
192.788	237
192.857	73
192.926	23
192.995	-524
193.064	693
193.133	475
193.202	24
193.271	-361
193.340	-389
193.409	485
193.478	-269
193.547	144
193.615	-246
193.684	-19
193.753	-535
193.822	406
193.891	-500
193.960	73
194.029	-320
194.098	98
194.167	-329
194.236	481
194.305	-1063
194.374	-143
194.443	-252
194.512	-172
194.580	183
194.649	525
194.718	431
194.787	809
194.856	-385
194.925	702
194.994	-95
195.062	-70
195.131	208
195.200	-575
195.269	-1348
195.338	713
195.407	186
195.475	-1069
195.544	879
195.613	-375
195.682	-19
195.751	206
195.819	-124
195.888	447
195.957	740
196.026	712
196.094	121
196.163	-10
196.232	-476
196.301	707
196.369	-271
196.438	228
196.507	531
196.576	342
196.644	-421
196.713	-403
196.782	483
196.850	346
196.919	286
196.988	414
197.056	-601
197.125	232
197.194	-327
197.262	-50
197.331	-334
197.400	157
197.468	307
197.537	-365
197.606	-67
197.674	479
197.743	-377
197.812	-999
197.880	-84
197.949	47
198.017	211
198.086	-496
198.155	-360
198.223	447
198.292	-534
198.360	-184
198.429	-12
198.497	414
198.566	-1022
198.635	445
198.703	252
198.772	358
198.840	-331
198.909	167
198.977	-230
199.046	228
199.114	317
199.183	381
199.251	39
199.320	-429
199.388	-372
199.457	123
199.525	79
199.594	-383
199.662	-302
199.731	239
199.799	-243
199.867	325
199.936	-280
200.004	-201
200.073	-67
200.141	142
200.210	-167
200.278	77
200.346	299
200.415	-92
200.483	-185
200.552	720
200.620	-485
200.688	170
200.757	316
200.825	-43
200.893	-672
200.962	-79
201.030	223
201.098	102
201.167	-92
201.235	161
201.303	-449
201.372	424
201.440	-342
201.508	667
201.577	113
201.645	197
201.713	-169
201.781	-391
201.850	422
201.918	324
201.986	-147
202.055	6
202.123	-514
202.191	-54
202.259	-351
202.327	-325
202.396	-431
202.464	-900
202.532	-595
202.600	297
202.669	274
202.737	43
202.805	-178
202.873	57
202.941	-66
203.009	-407
203.078	-514
203.146	162
203.214	-577
203.282	-769
203.350	-118
203.418	132
203.487	-189
203.555	545
203.623	-157
203.691	-596
203.759	-992
203.827	478
203.895	462
203.963	136
204.031	-1005
204.099	215
204.168	-175
204.236	7
204.304	-336
204.372	-96
204.440	-312
204.508	-306
204.576	-630
204.644	389
204.712	-167
204.780	104
204.848	-147
204.916	58
204.984	-287
205.052	434
205.120	-478
205.188	-670
205.256	-236
205.324	116
205.392	-497
205.460	-5
205.528	-766
205.596	28
205.664	-638
205.732	87
205.799	-896
205.867	438
205.935	-852
206.003	177
206.071	-207
206.139	-188
206.207	828
206.275	135
206.343	-539
206.411	-516
206.478	832
206.546	654
206.614	-749
206.682	108
206.750	445
206.818	-111
206.885	628
206.953	-1054
207.021	857
207.089	222
207.157	-1036
207.225	-230
207.292	-533
207.360	-701
207.428	-560
207.496	-270
207.563	-878
207.631	-53
207.699	-284
207.767	-47
207.834	-382
207.902	-467
207.970	-1130
208.038	-68
208.105	-646
208.173	287
208.241	-284
208.309	-361
208.376	-469
208.444	-362
208.512	-649
208.579	-1291
208.647	225
208.715	800
208.782	-964
208.850	30
208.918	-639
208.985	-48
209.053	-110
209.120	-244
209.188	-617
209.256	-840
209.323	-1062
209.391	-520
209.459	-82
209.526	-369
209.594	-218
209.661	-362
209.729	-409
209.796	-148
209.864	-205
209.932	-1399
209.999	2071
210.067	-431
210.134	-1060
210.202	100
210.269	62
210.337	432
210.404	-792
210.472	663
210.539	553
210.607	-454
210.674	-40
210.742	-25
210.809	-1095
210.877	276
210.944	-933
211.012	-1012
211.079	1643
211.146	-267
211.214	269
211.281	751
211.349	472
211.416	-129
211.484	330
211.551	-325
211.618	126
211.686	-92
211.753	-498
211.821	279
211.888	-781
211.955	48
212.023	-358
212.090	5
212.157	-528
212.225	-69
212.292	108
212.359	-405
212.427	-1037
212.494	-1030
212.561	-178
212.629	-15
212.696	-788
212.763	-75
212.831	-912
212.898	413
212.965	12
213.032	280
213.100	-758
213.167	367
213.234	142
213.301	798
213.369	-170
213.436	79
213.503	-754
213.570	323
213.638	-475
213.705	-1240
213.772	-1382
213.839	-284
213.906	233
213.973	-71
214.041	-732
214.108	317
214.175	-141
214.242	-384
214.309	-186
214.376	6
214.444	-354
214.511	315
214.578	-1206
214.645	818
214.712	-431
214.779	-153
214.846	-872
214.913	774
214.980	333
215.048	842
215.115	757
215.182	251
215.249	40
215.316	272
215.383	308
215.450	-554
215.517	-367
215.584	-111
215.651	-787
215.718	-589
215.785	264
215.852	-150
215.919	363
215.986	260
216.053	-1153
216.120	-333
216.187	-479
216.254	438
216.321	-565
216.388	86
216.455	-209
216.522	-465
216.589	-604
216.656	311
216.722	-791
216.789	-804
216.856	82
216.923	-967
216.990	-562
217.057	-848
217.124	-726
217.191	-483
217.258	150
217.324	168
217.391	-327
217.458	-179
217.525	-392
217.592	223
217.659	-1150
217.725	744
217.792	-1067
217.859	318
217.926	-862
217.993	27
218.059	3
218.126	-181
218.193	-19
218.260	-903
218.327	-802
218.393	-169
218.460	-203
218.527	-17
218.594	-1102
218.660	228
218.727	-287
218.794	-947
218.860	-489
218.927	-80
218.994	-977
219.061	-427
219.127	-346
219.194	347
219.261	125
219.327	-447
219.394	-183
219.461	-641
219.527	-440
219.594	306
219.661	-857
219.727	-961
219.794	416
219.860	-21
219.927	165
219.994	2040
220.060	1384
220.127	2246
220.193	1841
220.260	234
220.326	-354
220.393	352
220.460	-775
220.526	-719
220.593	-513
220.659	1805
220.726	-539
220.792	-508
220.859	-839
220.925	107
220.992	-612
221.058	56
221.125	-301
221.191	-544
221.258	-415
221.324	173
221.391	-701
221.457	-489
221.524	-1010
221.590	482
221.657	-530
221.723	-887
221.789	-851
221.856	-114
221.922	-1006
221.989	1282
222.055	120
222.121	-1127
222.188	1017
222.254	-152
222.321	-411
222.387	95
222.453	-41
222.520	-406
222.586	-1271
222.652	283
222.719	-518
222.785	-765
222.851	-1132
222.918	263
222.984	-772
223.050	-130
223.116	-2608
223.183	730
223.249	-1176
223.315	-15
223.382	-764
223.448	-82
223.514	-629
223.580	486
223.647	-1424
223.713	-1191
223.779	-949
223.845	-645
223.911	-948
223.978	-526
224.044	-965
224.110	83
224.176	-465
224.242	-389
224.309	-1378
224.375	164
224.441	-152
224.507	-155
224.573	-1616
224.639	-259
224.705	-557
224.772	-296
224.838	-1093
224.904	123
224.970	-755
225.036	-453
225.102	-1783
225.168	989
225.234	402
225.300	-266
225.366	-1458
225.432	538
225.499	-711
225.565	-368
225.631	-832
225.697	-265
225.763	-674
225.829	-658
225.895	-460
225.961	72
226.027	-3
226.093	-270
226.159	-9
226.225	505
226.291	-277
226.357	-1413
226.423	-752
226.489	-461
226.554	-577
226.620	461
226.686	-130
226.752	-332
226.818	-678
226.884	531
226.950	-870
227.016	-21
227.082	389
227.148	-167
227.214	-803
227.279	263
227.345	-46
227.411	1303
227.477	1834
227.543	2897
227.609	4690
227.674	3769
227.740	1616
227.806	1263
227.872	148
227.938	663
228.003	249
228.069	-214
228.135	-890
228.201	442
228.267	-726
228.332	-972
228.398	-1613
228.464	280
228.530	-499
228.595	134
228.661	-359
228.727	-353
228.792	252
228.858	-817
228.924	-2438
228.990	714
229.055	-1690
229.121	-128
229.187	-668
229.252	-210
229.318	-810
229.384	-222
229.449	-79
229.515	-2221
229.581	-944
229.646	1778
229.712	-1061
229.777	-495
229.843	-544
229.909	-261
229.974	82
230.040	114
230.105	-210
230.171	-849
230.236	183
230.302	-623
230.368	-1580
230.433	-949
230.499	-562
230.564	65
230.630	-1555
230.695	-107
230.761	673
230.826	-1233
230.892	324
230.957	-1572
231.023	-601
231.088	14
231.154	-537
231.219	154
231.284	-1207
231.350	-429
231.415	-1170
231.481	89
231.546	-408
231.612	-348
231.677	-1030
231.742	-1236
231.808	766
231.873	-845
231.939	-2296
232.004	686
232.069	-231
232.135	-854
232.200	-1387
232.265	897
232.331	-798
232.396	-48
232.461	-605
232.527	-571
232.592	-1558
232.657	-384
232.723	-1234
232.788	-607
232.853	789
232.918	863
232.984	-1250
233.049	-751
233.114	-2072
233.179	281
233.245	361
233.310	202
233.375	-1865
233.440	-183
233.506	-1057
233.571	-129
233.636	-356
233.701	293
233.766	-933
233.832	-296
233.897	-1263
233.962	-2014
234.027	493
234.092	-82
234.157	-282
234.222	-948
234.288	-214
234.353	-242
234.418	-394
234.483	-341
234.548	-350
234.613	-878
234.678	-1053
234.743	-221
234.808	-79
234.873	-1739
234.938	258
235.004	115
235.069	-1042
235.134	-787
235.199	573
235.264	147
235.329	-1761
235.394	858
235.459	420
235.524	-1144
235.589	-349
235.654	372
235.719	-1487
235.784	321
235.849	-871
235.913	-530
235.978	-765
236.043	-405
236.108	-529
236.173	-1330
236.238	-362
236.303	-243
236.368	-764
236.433	391
236.498	-978
236.563	-334
236.627	-351
236.692	-202
236.757	-1295
236.822	-134
236.887	-1152
236.952	524
237.017	-1984
237.081	925
237.146	-1550
237.211	-89
237.276	-806
237.341	-322
237.405	-1015
237.470	-761
237.535	-574
237.600	-826
237.664	62
237.729	-809
237.794	-1523
237.859	170
237.923	-706
237.988	-825
238.053	-499
238.118	-209
238.182	-962
238.247	1106
238.312	-1611
238.376	-212
238.441	-2209
238.506	1004
238.570	-1635
238.635	884
238.700	-280
238.764	-1007
238.829	115
238.893	-1470
238.958	-353
239.023	-292
239.087	-764
239.152	216
239.216	-944
239.281	-21
239.346	-300
239.410	-365
239.475	-1200
239.539	876
239.604	-986
239.668	1554
239.733	1823
239.797	5569
239.862	7180
239.926	7866
239.991	4432
240.055	1804
240.120	487
240.184	313
240.249	-584
240.313	125
240.378	-457
240.442	186
240.507	-195
240.571	-204
240.635	-1079
240.700	-670
240.764	-425
240.829	-702
240.893	-1826
240.957	709
241.022	24
241.086	537
241.151	-892
241.215	-1498
241.279	333
241.344	-724
241.408	-398
241.472	-1269
241.537	-358
241.601	584
241.665	-1437
241.730	-137
241.794	649
241.858	-1343
241.922	-1311
241.987	-70
242.051	-974
242.115	-2104
242.179	-398
242.244	-1076
242.308	-639
242.372	-831
242.436	-1537
242.501	520
242.565	-2086
242.629	-717
242.693	365
242.757	-703
242.822	-613
242.886	243
242.950	961
243.014	-1539
243.078	-237
243.142	-736
243.206	-1104
243.271	-409
243.335	-1515
243.399	410
243.463	-1196
243.527	-530
243.591	-817
243.655	-349
243.719	-1076
243.783	394
243.847	-50
243.911	-226
243.975	-1386
244.040	-1535
244.104	706
244.168	-10
244.232	-1149
244.296	-825
244.360	-299
244.424	-1183
244.488	-1061
244.552	224
244.615	-1664
244.679	-133
244.743	-1336
244.807	-509
244.871	-1030
244.935	-742
244.999	-2164
245.063	-912
245.127	-721
245.191	-234
245.255	-528
245.319	-301
245.383	-1065
245.446	950
245.510	-1481
245.574	-883
245.638	-293
245.702	-1372
245.766	-926
245.829	1571
245.893	-1987
245.957	-636
246.021	536
246.085	-1055
246.149	-1373
246.212	802
246.276	-1320
246.340	-617
246.404	-400
246.467	479
246.531	-2230
246.595	-105
246.659	787
246.722	-917
246.786	-188
246.850	-581
246.913	-919
246.977	-1211
247.041	-630
247.104	-952
247.168	-1006
247.232	-743
247.295	-1058
247.359	-391
247.423	166
247.486	-411
247.550	448
247.614	-169
247.677	-680
247.741	-593
247.804	-375
247.868	1090
247.932	-510
247.995	146
248.059	-1095
248.122	-828
248.186	644
248.249	-415
248.313	-661
248.376	692
248.440	-1048
248.503	-1562
248.567	682
248.630	-1796
248.694	-705
248.757	550
248.821	348
248.884	624
248.948	-1054
249.011	366
249.075	-726
249.138	212
249.202	-495
249.265	-599
249.328	56
249.392	-1248
249.455	-292
249.519	-489
249.582	-1079
249.645	557
249.709	-766
249.772	-689
249.835	-416
249.899	-598
249.962	451
250.025	-503
250.089	-1208
250.152	-125
250.215	-531
250.279	-684
250.342	23
250.405	-115
250.468	-1179
250.532	-239
250.595	64
250.658	-1564
250.721	-603
250.785	-710
250.848	230
250.911	-950
250.974	-438
251.038	-1350
251.101	-1218
251.164	-833
251.227	-396
251.290	-529
251.354	-379
251.417	-652
251.480	-641
251.543	1
251.606	-709
251.669	393
251.732	-417
251.795	-565
251.859	-608
251.922	-821
251.985	-666
252.048	352
252.111	-921
252.174	-1463
252.237	-79
252.300	2
252.363	-1209
252.426	659
252.489	-1613
252.552	-472
252.615	-1787
252.678	-270
252.741	267
252.804	-1137
252.867	-523
252.930	167
252.993	-904
253.056	-231
253.119	-537
253.182	-829
253.245	-478
253.308	685
253.371	-1454
253.434	-591
253.497	-17
253.559	310
253.622	-500
253.685	-1076
253.748	-667
253.811	283
253.874	-470
253.937	-780
254.000	-979
254.062	-834
254.125	-1192
254.188	397
254.251	-682
254.314	-315
254.376	-1642
254.439	-207
254.502	-1097
254.565	-348
254.628	38
254.690	-365
254.753	-1084
254.816	-758
254.878	-267
254.941	-211
255.004	-556
255.067	766
255.129	-654
255.192	-392
255.255	-1849
255.317	-360
255.380	-129
255.443	-1045
255.505	-305
255.568	-1271
255.631	-543
255.693	134
255.756	-628
255.819	856
255.881	-27
255.944	505
256.006	-204
256.069	-795
256.132	-925
256.194	-1025
256.257	-729
256.319	-218
256.382	-535
256.444	2304
256.507	1118
256.569	-751
256.632	-454
256.694	-1129
256.757	-70
256.819	149
256.882	-1948
256.944	305
257.007	443
257.069	-220
257.132	-894
257.194	678
257.257	-984
257.319	-1368
257.381	-1637
257.444	765
257.506	-1219
257.569	-588
257.631	-311
257.693	-660
257.756	-1039
257.818	-652
257.880	-333
257.943	-323
258.005	-1489
258.067	-146
258.130	-320
258.192	-1114
258.254	-464
258.317	-492
258.379	-589
258.441	-791
258.503	-108
258.566	-570
258.628	89
258.690	-401
258.753	462
258.815	-174
258.877	-1386
258.939	-492
259.001	303
259.064	-878
259.126	-1030
259.188	418
259.250	-60
259.312	191
259.375	-1258
259.437	-516
259.499	-300
259.561	-260
259.623	-61
259.685	-687
259.747	-888
259.809	384
259.872	-363
259.934	-36
259.996	211
260.058	512
260.120	-741
260.182	-146
260.244	-574
260.306	67
260.368	376
260.430	-741
260.492	-591
260.554	764
260.616	-1037
260.678	-498
260.740	-521
260.802	-887
260.864	-14
260.926	-99
260.988	-64
261.050	238
261.112	-1039
261.174	914
261.236	-299
261.298	191
261.359	-816
261.421	1312
261.483	-588
261.545	1134
261.607	-1587
261.669	-61
261.731	-619
261.793	-80
261.854	-2055
261.916	-591
261.978	-361
262.040	284
262.102	382
262.164	-839
262.225	79
262.287	151
262.349	-824
262.411	-717
262.472	111
262.534	-1059
262.596	-1016
262.658	1169
262.719	-1533
262.781	626
262.843	-822
262.904	-327
262.966	-204
263.028	-308
263.090	-442
263.151	-662
263.213	305
263.275	-615
263.336	-232
263.398	282
263.459	-400
263.521	237
263.583	246
263.644	382
263.706	-678
263.767	-215
263.829	141
263.891	-250
263.952	-542
264.014	-373
264.075	-683
264.137	735
264.198	-384
264.260	-891
264.321	-361
264.383	-537
264.444	418
264.506	-685
264.567	-56
264.629	386
264.690	-2257
264.752	-580
264.813	-644
264.875	-944
264.936	-347
264.998	-551
265.059	24
265.120	826
265.182	-10
265.243	-979
265.305	-344
265.366	131
265.427	-448
265.489	1192
265.550	-708
265.611	-85
265.673	-433
265.734	-66
265.795	730
265.857	-623
265.918	-1504
265.979	603
266.040	-927
266.102	125
266.163	57
266.224	-268
266.286	-358
266.347	-412
266.408	397
266.469	-168
266.530	-612
266.592	-62
266.653	-463
266.714	-636
266.775	-368
266.836	-225
266.898	-926
266.959	-408
267.020	-1332
267.081	535
267.142	-538
267.203	101
267.264	-1189
267.326	324
267.387	-715
267.448	-286
267.509	105
267.570	-404
267.631	-360
267.692	-242
267.753	-188
267.814	-681
267.875	419
267.936	-200
267.997	-546
268.058	369
268.119	-493
268.180	503
268.241	-337
268.302	-431
268.363	-1506
268.424	-458
268.485	-391
268.546	-1068
268.607	-251
268.668	3
268.729	-411
268.790	-976
268.851	12
268.912	-710
268.972	-597
269.033	850
269.094	-841
269.155	208
269.216	88
269.277	-49
269.338	-468
269.398	-309
269.459	-1158
269.520	314
269.581	-1373
269.642	551
269.702	-994
269.763	-176
269.824	-1117
269.885	-547
269.945	340
270.006	-19
270.067	-504
270.128	-358
270.188	-704
270.249	-508
270.310	-628
270.370	249
270.431	-304
270.492	502
270.553	-1069
270.613	-673
270.674	-409
270.734	-340
270.795	-36
270.856	81
270.916	-869
270.977	420
271.038	521
271.098	52
271.159	-647
271.219	42
271.280	-433
271.340	567
271.401	-682
271.462	-225
271.522	-56
271.583	203
271.643	-233
271.704	374
271.764	-57
271.825	-255
271.885	137
271.946	2022
272.006	-376
272.066	684
272.127	1598
272.187	5453
272.248	2860
272.308	855
272.369	109
272.429	-390
272.489	-278
272.550	-646
272.610	-288
272.671	305
272.731	495
272.791	-841
272.852	152
272.912	480
272.972	-81
273.033	-363
273.093	-719
273.153	485
273.214	-422
273.274	-636
273.334	-616
273.394	128
273.455	-649
273.515	404
273.575	-711
273.635	-448
273.696	427
273.756	-31
273.816	-756
273.876	320
273.936	-759
273.997	486
274.057	-492
274.117	-602
274.177	-188
274.237	176
274.297	763
274.358	-488
274.418	-248
274.478	267
274.538	32
274.598	-220
274.658	-810
274.718	467
274.778	338
274.838	435
274.898	-6
274.958	608
275.018	-304
275.078	855
275.138	-265
275.198	12
275.258	443
275.318	761
275.378	-371
275.438	58
275.498	-125
275.558	493
275.618	184
275.678	-561
275.738	457
275.798	-123
275.858	-219
275.918	87
275.978	44
276.038	1530
276.098	379
276.157	-76
276.217	-62
276.277	1003
276.337	-312
276.397	356
276.457	-52
276.517	761
276.576	-75
276.636	527
276.696	308
276.756	186
276.815	173
276.875	333
276.935	9
276.995	127
277.055	101
277.114	1586
277.174	709
277.234	449
277.293	-166
277.353	-178
277.413	-331
277.472	139
277.532	-37
277.592	425
277.651	1489
277.711	4979
277.771	922
277.830	3624
277.890	3678
277.950	3076
278.009	9990
278.069	4972
278.128	2707
278.188	4118
278.248	1330
278.307	4577
278.367	3121
278.426	1754
278.486	859
278.545	865
278.605	453
278.664	1060
278.724	-263
278.783	164
278.843	520
278.902	363
278.962	85
279.021	561
279.081	1316
279.140	502
279.199	898
279.259	1379
279.318	667
279.378	2401
279.437	2528
279.496	8219
279.556	39845
279.615	34003
279.675	7090
279.734	4489
279.793	2671
279.853	5313
279.912	2996
279.971	2058
280.031	1665
280.090	2222
280.149	4423
280.208	3783
280.268	23826
280.327	27382
280.386	5426
280.445	2244
280.505	1034
280.564	1730
280.623	422
280.682	866
280.742	940
280.801	-247
280.860	-235
280.919	720
280.978	256
281.037	259
281.097	-209
281.156	1258
281.215	798
281.274	562
281.333	1043
281.392	593
281.451	-864
281.510	917
281.569	487
281.628	1246
281.688	276
281.747	857
281.806	323
281.865	665
281.924	-129
281.983	225
282.042	257
282.101	-254
282.160	-136
282.219	731
282.278	-140
282.337	319
282.396	338
282.454	-19
282.513	-44
282.572	662
282.631	274
282.690	686
282.749	-297
282.808	479
282.867	321
282.926	-11
282.985	328
283.043	11
283.102	570
283.161	468
283.220	369
283.279	1037
283.338	295
283.396	266
283.455	328
283.514	893
283.573	-23
283.631	490
283.690	408
283.749	1026
283.808	752
283.866	257
283.925	8
283.984	1039
284.043	498
284.101	1064
284.160	-58
284.219	749
284.277	548
284.336	379
284.395	1274
284.453	1063
284.512	817
284.570	584
284.629	278
284.688	1110
284.746	1422
284.805	1153
284.863	2028
284.922	2629
284.981	3372
285.039	5664
285.098	8991
285.156	20494
285.215	47683
285.273	50902
285.332	26420
285.390	13129
285.449	7614
285.507	4922
285.566	3343
285.624	3784
285.683	2716
285.741	2470
285.799	569
285.858	1335
285.916	468
285.975	1124
286.033	15
286.091	772
286.150	37
286.208	914
286.267	-404
286.325	1421
286.383	355
286.442	329
286.500	998
286.558	1174
286.616	133
286.675	835
286.733	677
286.791	597
286.850	507
286.908	719
286.966	483
287.024	546
287.083	-392
287.141	882
287.199	-65
287.257	1402
287.315	1371
287.374	843
287.432	456
287.490	866
287.548	-193
287.606	475
287.664	718
287.723	876
287.781	194
287.839	246
287.897	361
287.955	634
288.013	58
288.071	621
288.129	663
288.187	923
288.245	1043
288.303	974
288.361	312
288.419	624
288.477	-194
288.535	585
288.593	348
288.651	747
288.709	-53
288.767	580
288.825	-629
288.883	812
288.941	589
288.999	222
289.057	-106
289.115	171
289.173	126
289.231	1689
289.289	-63
289.346	383
289.404	650
289.462	2124
289.520	341
289.578	566
289.636	756
289.694	608
289.751	1263
289.809	678
289.867	-19
289.925	1696
289.983	435
290.040	1471
290.098	445
290.156	978
290.214	96
290.271	928
290.329	1155
290.387	1557
290.444	483
290.502	528
290.560	241
290.617	1398
290.675	636
290.733	-18
290.790	769
290.848	1601
290.906	-457
290.963	520
291.021	1044
291.078	899
291.136	620
291.194	516
291.251	406
291.309	1419
291.366	676
291.424	668
291.481	420
291.539	242
291.596	1032
291.654	356
291.711	288
291.769	1004
291.826	601
291.884	1474
291.941	-59
291.999	1702
292.056	916
292.114	462
292.171	772
292.228	962
292.286	1364
292.343	857
292.401	49
292.458	1
292.515	752
292.573	1674
292.630	571
292.687	1697
292.745	300
292.802	985
292.859	541
292.917	677
292.974	515
293.031	593
293.089	260
293.146	659
293.203	512
293.260	1226
293.318	813
293.375	900
293.432	11
293.489	1897
293.546	273
293.604	396
293.661	1142
293.718	1866
293.775	404
293.832	1082
293.889	985
293.947	1708
294.004	275
294.061	839
294.118	435
294.175	1612
294.232	1009
294.289	131
294.346	498
294.403	1495
294.460	80
294.517	959
294.574	417
294.631	1465
294.688	160
294.745	901
294.802	1202
294.859	1058
294.916	244
294.973	1056
295.030	327
295.087	1019
295.144	280
295.201	1275
295.258	276
295.315	213
295.372	558
295.429	738
295.486	1027
295.542	-431
295.599	163
295.656	747
295.713	-224
295.770	1160
295.827	-205
295.883	598
295.940	214
295.997	397
296.054	546
296.111	483
296.167	394
296.224	535
296.281	-98
296.338	840
296.394	213
296.451	265
296.508	452
296.564	672
296.621	860
296.678	1791
296.734	1167
296.791	972
296.848	948
296.904	735
296.961	-158
297.018	712
297.074	811
297.131	825
297.187	569
297.244	957
297.301	913
297.357	1458
297.414	544
297.470	1052
297.527	-218
297.583	1339
297.640	813
297.696	216
297.753	233
297.809	808
297.866	1118
297.922	776
297.979	96
298.035	439
298.092	220
298.148	833
298.204	1405
298.261	723
298.317	1275
298.374	1540
298.430	606
298.486	1083
298.543	-417
298.599	900
298.656	-94
298.712	748
298.768	297
298.824	1436
298.881	196
298.937	1127
298.993	1035
299.050	578
299.106	1107
299.162	860
299.218	1513
299.275	644
299.331	495
299.387	1906
299.443	3651
299.500	12276
299.556	13587
299.612	6198
299.668	4198
299.724	12969
299.780	17894
299.837	7199
299.893	4096
299.949	9000
300.005	16850
300.061	11641
300.117	17267
300.173	10273
300.229	3702
300.285	3317
300.341	1829
300.397	2154
300.453	2170
300.510	2518
300.566	2646
300.622	6122
300.678	19366
300.734	28798
300.790	12208
300.845	7144
300.901	10157
300.957	19379
301.013	8479
301.069	3888
301.125	1750
301.181	2331
301.237	2158
301.293	1396
301.349	1850
301.405	788
301.461	784
301.516	1789
301.572	401
301.628	867
301.684	262
301.740	1256
301.796	359
301.851	1131
301.907	1327
301.963	1561
302.019	691
302.074	3299
302.130	3638
302.186	2700
302.242	1180
302.297	1390
302.353	936
302.409	887
302.464	833
302.520	201
302.576	902
302.631	1285
302.687	1271
302.743	-46
302.798	422
302.854	408
302.910	778
302.965	518
303.021	1153
303.076	426
303.132	918
303.187	1125
303.243	-141
303.299	817
303.354	114
303.410	494
303.465	350
303.521	1359
303.576	527
303.632	1372
303.687	962
303.743	1624
303.798	790
303.853	1359
303.909	-199
303.964	347
304.020	428
304.075	580
304.130	243
304.186	1203
304.241	1070
304.297	1217
304.352	633
304.358	661
304.407	886
304.449	277
304.463	72
304.518	876
304.539	654
304.573	278
304.629	679
304.630	672
304.684	335
304.720	456
304.739	530
304.794	754
304.811	1024
304.850	1603
304.902	1175
304.905	1149
304.960	680
304.992	672
305.015	647
305.071	1110
305.083	1131
305.126	1223
305.173	578
305.181	475
305.236	877
305.264	876
305.292	810
305.347	121
305.354	286
305.402	1426
305.445	980
305.457	843
305.512	913
305.535	655
305.567	318
305.622	892
305.626	855
305.678	191
305.716	768
305.733	1047
305.788	116
305.807	251
305.843	575
305.897	1434
305.898	1445
305.953	1454
305.988	1441
306.008	1423
306.063	587
306.078	498
306.118	281
306.168	907
306.173	979
306.228	980
306.259	1314
306.283	1473
306.338	439
306.349	454
306.393	533
306.440	376
306.448	398
306.503	1265
306.530	1274
306.558	1167
306.613	1200
306.620	1042
306.668	-0
306.711	498
306.723	648
306.778	946
306.801	1060
306.833	1191
306.888	804
306.892	802
306.943	1040
306.982	1098
306.997	1049
307.052	685
307.072	589
307.107	482
307.162	338
307.163	334
307.217	495
307.253	1019
307.272	1204
307.327	966
307.343	1057
307.381	1218
307.434	505
307.436	488
307.491	1102
307.524	967
307.546	752
307.600	1461
307.614	1331
307.655	931
307.704	1056
307.710	1113
307.765	753
307.795	1186
307.819	1383
307.874	1061
307.885	1034
307.929	1237
307.975	1556
307.984	1572
308.038	1595
308.065	1440
308.093	1326
308.148	1250
308.156	1218
308.202	1100
308.246	1091
308.257	1104
308.312	1135
308.336	1424
308.366	1610
308.421	791
308.426	781
308.475	941
308.517	589
308.530	531
308.585	962
308.607	1039
308.639	912
308.694	810
308.697	795
308.748	1204
308.787	1433
308.803	1454
308.857	1324
308.877	1432
308.912	1539
308.967	1483
308.967	1480
309.021	1986
309.058	2006
309.076	1983
309.130	2393
309.148	2440
309.185	2939
309.238	3475
309.239	3484
309.293	3744
309.328	3944
309.348	3951
309.402	3587
309.418	3424
309.457	3251
309.508	2891
309.511	2904
309.566	3422
309.598	3564
309.620	3765
309.674	4904
309.688	5089
309.729	5143
309.778	4970
309.783	4885
309.837	3703
309.868	3115
309.892	3092
309.946	2648
309.959	2627
310.001	2756
310.049	2923
310.055	2888
310.109	2590
310.139	2169
310.163	1937
310.218	1965
310.229	1883
310.272	2155
310.319	2796
310.326	2762
310.381	2070
310.409	1799
310.435	1857
310.489	1826
310.499	1837
310.543	2002
310.589	2161
310.598	2164
310.652	2202
310.679	2150
310.706	2454
310.760	3014
310.769	3102
310.814	3121
310.859	3152
310.868	3099
310.923	2550
310.948	2353
310.977	2462
311.031	2618
311.038	2662
311.085	2868
311.128	2755
311.139	2717
311.193	2620
311.218	2541
311.247	2507
311.301	2665
311.308	2640
311.356	2770
311.398	3031
311.410	3024
311.464	2864
311.488	2787
311.518	2613
311.572	2316
311.578	2278
311.626	2802
311.668	3228
311.680	3199
311.734	2974
311.758	2895
311.788	2782
311.842	2580
311.847	2552
311.896	3092
311.937	3550
311.950	3430
312.004	2869
312.027	2623
312.058	2637
312.112	2649
312.117	2646
312.165	2739
312.207	2814
312.297	3060
312.386	2939
312.476	2804
312.566	3120
312.656	3588
312.745	2489
312.835	2886
312.925	3469
313.015	3673
313.104	3221
313.194	3282
313.284	3930
313.374	4198
313.463	4405
313.553	5441
313.643	5052
313.732	5032
313.822	4344
313.912	5490
314.001	5819
314.091	5316
314.180	4848
314.270	6671
314.360	5510
314.449	5827
314.539	5301
314.628	5914
314.718	5380
314.808	5965
314.897	6062
314.987	6911
315.076	6950
315.166	6536
315.255	6508
315.345	6874
315.434	5774
315.524	6708
315.613	8171
315.703	9130
315.792	22468
315.881	66043
315.971	24552
316.060	9125
316.150	7523
316.239	6879
316.328	6653
316.418	6624
316.507	7163
316.597	8399
316.686	8450
316.775	7599
316.865	7431
316.954	6650
317.043	6736
317.133	5507
317.222	4790
317.311	5241
317.400	3911
317.490	6703
317.579	6166
317.668	7681
317.757	12587
317.847	36445
317.936	94725
318.025	34750
318.114	30363
318.203	15986
318.293	8035
318.382	10242
318.471	11039
318.560	9437
318.649	8489
318.738	5805
318.828	5617
318.917	3619
319.006	3654
319.095	4409
319.184	4655
319.273	4216
319.362	4669
319.451	4076
319.540	4334
319.629	4477
319.718	4561
319.807	4172
319.896	3845
319.985	5190
320.074	4341
320.163	5088
320.252	4602
320.341	5096
320.430	5244
320.519	5997
320.608	5846
320.697	7631
320.786	8295
320.875	8407
320.964	9894
321.053	10545
321.142	10081
321.230	12263
321.319	12609
321.408	12760
321.497	12287
321.586	11371
321.675	9410
321.764	10279
321.852	10141
321.941	10724
322.030	10678
322.119	12384
322.207	12769
322.296	13796
322.385	16165
322.474	16642
322.562	17049
322.651	13602
322.740	11289
322.829	10044
322.917	9196
323.006	8035
323.095	8049
323.183	7460
323.272	7169
323.361	6892
323.449	6429
323.538	6177
323.626	5799
323.715	4911
323.804	4801
323.892	4823
323.981	5222
324.069	6032
324.158	5596
324.246	5407
324.335	4998
324.424	4904
324.512	4842
324.601	4542
324.689	4696
324.778	4318
324.866	3929
324.954	4549
325.043	4000
325.131	3997
325.220	4295
325.308	3508
325.397	3628
325.485	4491
325.574	3594
325.662	4793
325.750	4207
325.839	4765
325.927	4374
326.015	4208
326.104	3114
326.192	4812
326.280	4005
326.369	3873
326.457	3200
326.545	4945
326.634	4193
326.722	4505
326.810	4366
326.898	5296
326.987	5517
327.075	3675
327.163	5359
327.251	4099
327.340	5344
327.428	6271
327.516	7375
327.604	6098
327.692	5115
327.781	5026
327.869	3988
327.957	4698
328.045	3788
328.133	4287
328.221	3572
328.309	3966
328.397	3855
328.485	4663
328.574	6711
328.662	9376
328.750	6704
328.838	5186
328.926	4727
329.014	4072
329.102	4512
329.190	4367
329.278	4084
329.366	3491
329.454	3841
329.542	4133
329.630	2491
329.718	4176
329.806	2887
329.893	4246
329.981	2991
330.069	4654
330.157	3615
330.245	3751
330.333	3103
330.421	3744
330.509	3206
330.597	3582
330.684	3678
330.772	3736
330.860	2980
330.948	4057
331.036	4087
331.123	3723
331.211	3555
331.299	3384
331.387	3609
331.475	3854
331.562	4305
331.650	3708
331.738	3617
331.825	3466
331.913	3802
332.001	3662
332.089	4002
332.176	3537
332.264	3646
332.352	2540
332.439	2966
332.527	4772
332.614	3063
332.702	4007
332.790	3833
332.877	4416
332.965	5298
333.052	5354
333.140	4231
333.228	6044
333.315	4917
333.403	4850
333.490	5276
333.578	5130
333.665	7702
333.753	7708
333.840	6957
333.928	8416
334.015	8939
334.103	10610
334.190	12367
334.278	16379
334.365	21414
334.452	21495
334.540	16870
334.627	17670
334.715	20502
334.802	28086
334.889	36770
334.977	42526
335.064	31680
335.151	19071
335.239	15002
335.326	13784
335.413	13283
335.501	12478
335.588	14091
335.675	16733
335.762	19812
335.850	25911
335.937	33710
336.024	46334
336.111	60066
336.199	53079
336.286	30461
336.373	19175
336.460	14358
336.547	12279
336.635	10724
336.722	8477
336.809	7637
336.896	8015
336.983	6659
337.070	7226
337.157	6585
337.245	6553
337.332	7503
337.419	7407
337.506	5976
337.593	6069
337.680	5485
337.767	6289
337.854	5370
337.941	5609
338.028	5082
338.115	5268
338.202	5654
338.289	5480
338.376	4642
338.463	5519
338.550	4618
338.637	5240
338.724	4455
338.811	4530
338.898	4175
338.984	5222
339.071	4379
339.158	4675
339.245	3740
339.332	4755
339.419	4220
339.506	3917
339.593	3369
339.679	5456
339.766	3302
339.853	4223
339.940	4318
340.027	4387
340.113	4202
340.200	4689
340.287	4021
340.374	3774
340.460	4017
340.547	3207
340.634	3895
340.720	3959
340.807	3478
340.894	4340
340.980	3700
341.067	4161
341.154	4771
341.240	4187
341.327	3800
341.414	4746
341.500	3335
341.587	4409
341.674	4122
341.760	4803
341.847	3581
341.933	3388
342.020	3292
342.106	4370
342.193	4051
342.279	4457
342.366	3357
342.452	3645
342.539	4306
342.625	4073
342.712	3678
342.798	4258
342.885	3060
342.971	3398
343.058	3672
343.144	2738
343.230	4412
343.317	4596
343.403	3479
343.490	3844
343.576	3281
343.662	3765
343.749	4487
343.835	4095
343.921	3798
344.008	5234
344.094	5130
344.180	3580
344.267	3870
344.353	3697
344.439	4534
344.525	3351
344.612	3682
344.698	3797
344.784	3288
344.870	4221
344.957	3163
345.043	4783
345.129	3479
345.215	4319
345.301	3762
345.387	3151
345.474	3380
345.560	3815
345.646	2924
345.732	3599
345.818	3458
345.904	3624
345.990	3308
346.076	3945
346.162	3587
346.249	4392
346.335	2971
346.421	4638
346.507	4410
346.593	4398
346.679	3060
346.765	4996
346.851	7927
346.937	5952
347.023	5711
347.108	4633
347.194	3310
347.280	4423
347.366	6116
347.452	14502
347.538	14564
347.624	8576
347.710	5604
347.796	4487
347.882	4328
347.967	4624
348.053	3552
348.139	3995
348.225	4295
348.311	3588
348.397	4197
348.482	5356
348.568	4637
348.654	7171
348.740	19022
348.825	21753
348.911	11144
348.997	6641
349.083	5593
349.168	4689
349.254	4374
349.340	4729
349.425	3804
349.511	4545
349.597	3243
349.682	4184
349.768	4677
349.854	4351
349.939	3948
350.025	4756
350.110	5386
350.196	4763
350.282	3699
350.367	4606
350.453	4136
350.538	4035
350.624	3231
350.709	4961
350.795	3718
350.880	3362
350.966	4673
351.051	3312
351.137	3888
351.222	3609
351.308	3372
351.393	4140
351.479	4001
351.564	3661
351.649	4281
351.735	3991
351.820	3323
351.906	3704
351.991	3608
352.076	3690
352.162	3914
352.247	3733
352.332	3970
352.418	3447
352.503	2954
352.588	4678
352.673	3422
352.759	3816
352.844	3681
352.929	3255
353.014	3029
353.100	3869
353.185	3901
353.270	3357
353.355	4355
353.441	3888
353.526	3300
353.611	4051
353.696	2729
353.781	5156
353.866	2928
353.952	4828
354.037	3227
354.122	3804
354.207	3403
354.292	3306
354.377	4002
354.462	3713
354.547	3174
354.632	4667
354.717	3528
354.802	3388
354.887	3340
354.972	3035
355.057	3631
355.142	2833
355.227	4241
355.312	3624
355.397	3706
355.482	3819
355.567	3216
355.652	4215
355.737	3872
355.822	4060
355.907	2922
355.991	5729
356.076	3264
356.161	4320
356.246	4211
356.331	4639
356.416	3245
356.501	5858
356.585	3722
356.670	4043
356.755	5864
356.840	4092
356.924	5400
357.009	5416
357.094	4437
357.179	4164
357.263	3806
357.348	4933
357.433	4987
357.517	4832
357.602	3466
357.687	3625
357.771	4090
357.856	4132
357.941	4421
358.025	4769
358.110	7757
358.195	5686
358.279	4180
358.364	4108
358.448	4800
358.533	5633
358.617	5591
358.702	5461
358.787	3918
358.871	3761
358.956	4068
359.040	4555
359.125	3917
359.209	4849
359.294	4634
359.378	8401
359.462	6114
359.547	5065
359.631	4161
359.716	3039
359.800	4373
359.885	4782
359.969	3590
360.053	4626
360.138	3860
360.222	4834
360.306	3671
360.391	5200
360.475	5018
360.559	4474
360.644	3684
360.728	3437
360.812	7026
360.896	6674
360.981	5413
361.065	4026
361.149	4954
361.233	5897
361.318	5288
361.402	5866
361.486	6065
361.570	6140
361.654	6771
361.739	7494
361.823	7866
361.907	10742
361.991	9865
362.075	13441
362.159	17024
362.243	32101
362.327	57253
362.411	72108
362.495	34383
362.580	19946
362.664	20801
362.748	24653
362.832	38337
362.916	66591
363.000	130533
363.084	140955
363.168	63841
363.252	29617
363.336	19925
363.420	16275
363.503	13394
363.587	12446
363.671	13741
363.755	12678
363.839	16158
363.923	17090
364.007	21683
364.091	31075
364.175	45949
364.258	85919
364.342	150885
364.426	196356
364.510	115702
364.594	52937
364.677	28100
364.761	17041
364.845	15081
364.929	11067
365.013	9991
365.096	8581
365.180	7273
365.264	7349
365.347	7202
365.431	6170
365.515	5477
365.598	5393
365.682	7571
365.766	4806
365.849	6082
365.933	5830
366.017	6694
366.100	6065
366.184	6247
366.267	7462
366.351	6758
366.435	5889
366.518	5799
366.602	6310
366.685	5499
366.769	5416
366.852	6275
366.936	5773
367.019	5871
367.103	4243
367.186	6524
367.270	5686
367.353	5207
367.436	7692
367.520	6274
367.603	7364
367.687	5308
367.770	5860
367.853	6627
367.937	6826
368.020	5144
368.104	4483
368.187	6494
368.270	5211
368.353	4746
368.437	4515
368.520	5399
368.603	4716
368.687	2994
368.770	4931
368.853	4624
368.936	4847
369.020	3796
369.103	5200
369.186	3185
369.269	4119
369.352	4599
369.436	4542
369.519	4299
369.602	2715
369.685	6216
369.768	3649
369.851	5465
369.934	4379
370.018	4245
370.101	3750
370.184	6624
370.267	5260
370.350	5191
370.433	5491
370.516	13180
370.599	36829
370.682	18255
370.765	7576
370.848	5816
370.931	4551
371.014	5081
371.097	3614
371.180	4956
371.263	4816
371.346	3427
371.429	5031
371.511	3635
371.594	4589
371.677	4851
371.760	4996
371.843	4407
371.926	5978
372.009	6326
372.091	8102
372.174	4266
372.257	5836
372.340	5051
372.423	4867
372.505	5861
372.588	4827
372.671	5716
372.754	4241
372.836	4630
372.919	5673
373.002	5314
373.085	4408
373.167	5974
373.250	4308
373.332	5702
373.415	7923
373.498	8737
373.580	15146
373.663	49615
373.746	47004
373.828	11831
373.911	8052
373.993	5527
374.076	6733
374.159	5130
374.241	6566
374.324	6906
374.406	6883
374.489	5960
374.571	8315
374.654	6190
374.736	6846
374.819	6478
374.901	9377
374.983	8134
375.066	7471
375.148	6685
375.231	6886
375.313	7374
375.395	6797
375.478	7245
375.560	7910
375.643	7576
375.725	7200
375.807	6614
375.890	8567
375.972	5735
376.054	6806
376.136	6196
376.219	5108
376.301	6427
376.383	5968
376.465	5762
376.548	5181
376.630	5066
376.712	6070
376.794	4469
376.877	5400
376.959	3829
377.041	5761
377.123	4338
377.205	4887
377.287	3988
377.369	5437
377.452	4000
377.534	5370
377.616	5099
377.698	4954
377.780	4820
377.862	5161
377.944	5484
378.026	4464
378.108	5424
378.190	4569
378.272	5931
378.354	4669
378.436	3987
378.518	3689
378.600	4263
378.682	5679
378.764	4284
378.846	5307
378.928	4843
379.010	4151
379.091	4706
379.173	5312
379.255	3280
379.337	4179
379.419	3991
379.501	5393
379.583	3997
379.664	4147
379.746	3447
379.828	6163
379.910	3164
379.991	5664
380.073	3774
380.155	4574
380.237	4483
380.318	4755
380.400	4569
380.482	5029
380.564	4608
380.645	4049
380.727	4583
380.809	5774
380.890	4176
380.972	3148
381.053	4810
381.135	5090
381.217	3994
381.298	6268
381.380	3951
381.461	3601
381.543	4473
381.624	6659
381.706	4320
381.787	4978
381.869	5222
381.951	5229
382.032	5528
382.113	8582
382.195	3986
382.276	7369
382.358	4774
382.439	5475
382.521	6193
382.602	7385
382.684	7048
382.765	8918
382.846	13707
382.928	26183
383.009	16741
383.090	16277
383.172	40394
383.253	52092
383.334	18524
383.416	10961
383.497	9250
383.578	10296
383.659	15324
383.741	42158
383.822	82755
383.903	40219
383.984	12374
384.066	12004
384.147	8301
384.228	9148
384.309	9659
384.390	9956
384.471	9854
384.553	8354
384.634	7387
384.715	7846
384.796	6680
384.877	6093
384.958	7120
385.039	6570
385.120	7240
385.201	8296
385.282	6611
385.363	8129
385.444	7318
385.525	9575
385.606	9216
385.687	9240
385.768	9001
385.849	9070
385.930	10939
386.011	11637
386.092	9406
386.173	10286
386.254	8897
386.335	10434
386.416	8698
386.496	9215
386.577	9317
386.658	9131
386.739	7981
386.820	11041
386.901	9686
386.981	11695
387.062	12094
387.143	12948
387.224	12963
387.304	13871
387.385	14956
387.466	13133
387.547	15279
387.627	15979
387.708	16130
387.789	15489
387.869	13367
387.950	14310
388.031	12995
388.111	10549
388.192	13319
388.273	13063
388.353	11440
388.434	9784
388.514	9017
388.595	9225
388.676	8180
388.756	9561
388.837	8890
388.917	8695
388.998	6277
389.078	9948
389.159	8141
389.239	6195
389.320	8781
389.400	5552
389.480	7982
389.561	8145
389.641	8033
389.722	8285
389.802	6137
389.883	8151
389.963	8518
390.043	7411
390.124	6554
390.204	7936
390.284	7317
390.365	6922
390.445	8229
390.525	7191
390.605	7992
390.686	6294
390.766	9145
390.846	8759
390.927	7899
391.007	7549
391.087	9856
391.167	9000
391.247	7918
391.328	10203
391.408	10660
391.488	9998
391.568	8727
391.648	10727
391.728	10780
391.808	12217
391.888	10604
391.969	13051
392.049	13309
392.129	15405
392.209	14712
392.289	17951
392.369	19253
392.449	20724
392.529	21801
392.609	26630
392.689	29772
392.769	33611
392.849	40222
392.929	54134
393.009	70398
393.089	100554
393.169	162131
393.248	277679
393.328	439343
393.408	399334
393.488	248249
393.568	149133
393.648	93774
393.728	63322
393.807	43891
393.887	36882
393.967	29656
394.047	25527
394.127	20597
394.206	19289
394.286	17153
394.366	16226
394.446	15545
394.525	14401
394.605	13613
394.685	14459
394.764	15118
394.844	24679
394.924	31988
395.003	17084
395.083	13450
395.163	11762
395.242	11689
395.322	11873
395.402	9723
395.481	13378
395.561	14367
395.640	35639
395.720	67861
395.799	38675
395.879	18492
395.958	16114
396.038	16111
396.117	16740
396.197	20553
396.276	23019
396.356	26292
396.435	34609
396.515	46770
396.594	70529
396.673	127652
396.753	258613
396.832	399520
396.912	297383
396.991	151074
397.070	82512
397.150	51052
397.229	43274
397.308	61751
397.388	101717
397.467	58072
397.546	26107
397.625	16428
397.705	17492
397.784	12705
397.863	12825
397.942	11900
398.022	11245
398.101	8649
398.180	9763
398.259	7776
398.338	10764
398.417	8476
398.497	7658
398.576	8774
398.655	6386
398.734	7382
398.813	7405
398.892	7086
398.971	7059
399.050	6164
399.129	5920
399.208	5853
399.287	7503
399.366	5090
399.445	5621
399.524	6023
399.603	4356
399.682	5165
399.761	5791
399.840	5711
399.919	6130
399.998	4670
400.077	4246
400.156	4486
400.235	8061
400.313	3589
400.392	4089
400.471	5027
400.550	5780
400.629	3609
400.708	4920
400.786	3484
400.865	4367
400.944	3213
401.023	6244
401.102	3801
401.180	4345
401.259	3455
401.338	3875
401.416	3855
401.495	3243
401.574	4214
401.652	3444
401.731	4444
401.810	3866
401.888	3795
401.967	3962
402.046	4172
402.124	4040
402.203	2603
402.281	4278
402.360	3101
402.438	4732
402.517	3295
402.596	4357
402.674	3136
402.753	3897
402.831	4053
402.910	5127
402.988	3214
403.066	6001
403.145	5991
403.223	5371
403.302	4258
403.380	5984
403.459	6346
403.537	4915
403.615	4462
403.694	3725
403.772	5825
403.850	4506
403.929	4574
404.007	4191
404.085	6188
404.164	3616
404.242	4266
404.320	5005
404.398	4389
404.477	3873
404.555	5709
404.633	5288
404.711	4232
404.789	4367
404.868	3829
404.946	2966
405.024	4122
405.102	3694
405.180	2268
405.258	2366
405.336	2937
405.415	2272
405.493	3137
405.571	4029
405.649	1836
405.727	2747
405.805	4671
405.883	5131
405.961	3670
406.039	3294
406.117	1996
406.195	3976
406.273	1875
406.351	4540
406.429	4138
406.507	2991
406.585	2750
406.663	3283
406.740	3578
406.818	3074
406.896	3013
406.974	5519
407.052	1710
407.130	4701
407.208	4484
407.285	4993
407.363	3133
407.441	4251
407.519	4445
407.596	7328
407.674	23230
407.752	76444
407.830	51966
407.907	10647
407.985	4674
408.063	4255
408.141	3169
408.218	3779
408.296	2509
408.373	2948
408.451	4866
408.529	4863
408.606	4577
408.684	6004
408.762	4703
408.839	5801
408.917	6974
408.994	7446
409.072	6497
409.149	9222
409.227	13863
409.304	19938
409.382	20948
409.459	23982
409.537	29723
409.614	27380
409.692	24193
409.769	24480
409.846	30435
409.924	35988
410.001	27117
410.079	23206
410.156	18402
410.233	15273
410.311	11706
410.388	11121
410.465	10505
410.543	8499
410.620	9171
410.697	8454
410.775	7785
410.852	7669
410.929	8678
411.006	8834
411.083	7155
411.161	6360
411.238	6848
411.315	6057
411.392	5582
411.469	6616
411.547	6276
411.624	3788
411.701	4372
411.778	4614
411.855	4051
411.932	4211
412.009	3727
412.086	5404
412.163	4913
412.240	3952
412.317	4641
412.394	4534
412.471	4261
412.548	3261
412.625	3141
412.702	4152
412.779	3875
412.856	5011
412.933	3375
413.010	3637
413.087	3589
413.164	2909
413.241	4128
413.318	3247
413.395	3411
413.471	3133
413.548	3122
413.625	3450
413.702	1996
413.779	4290
413.855	2951
413.932	2846
414.009	1284
414.086	3522
414.162	3902
414.239	3279
414.316	3344
414.393	4592
414.469	1797
414.546	2801
414.623	2476
414.699	2989
414.776	2571
414.853	3551
414.929	3070
415.006	2951
415.082	3341
415.159	2646
415.236	2828
415.312	3578
415.389	3454
415.465	1817
415.542	2216
415.618	2129
415.695	2515
415.771	1698
415.848	2167
415.924	2836
416.000	2411
416.077	3015
416.153	1889
416.230	2704
416.306	2897
416.383	2181
416.459	2985
416.535	2288
416.612	2106
416.688	2339
416.764	2405
416.841	1509
416.917	2416
416.993	3080
417.069	2853
417.146	1846
417.222	1453
417.298	2958
417.374	2063
417.451	2727
417.527	1691
417.603	2110
417.679	2846
417.755	2349
417.831	1718
417.908	2618
417.984	2551
418.060	1975
418.136	3046
418.212	2668
418.288	2886
418.364	2935
418.440	2364
418.516	3180
418.592	2406
418.668	2976
418.744	2135
418.820	3815
418.896	3184
418.972	2816
419.048	2992
419.124	4281
419.200	1654
419.276	3964
419.352	3484
419.428	3709
419.504	4173
419.579	4887
419.655	4443
419.731	4504
419.807	4843
419.883	4178
419.959	5326
420.034	5238
420.110	5401
420.186	5441
420.262	5864
420.337	6415
420.413	6464
420.489	7286
420.565	8565
420.640	7728
420.716	8932
420.792	8298
420.867	10457
420.943	9975
421.019	10514
421.094	10936
421.170	13138
421.245	13750
421.321	15125
421.397	18072
421.472	34247
421.548	68230
421.623	44075
421.699	27040
421.774	28568
421.850	31398
421.925	36297
422.001	43577
422.076	52320
422.152	64341
422.227	81635
422.302	106169
422.378	138019
422.453	174884
422.529	191524
422.604	152628
422.679	118053
422.755	150828
422.830	192418
422.905	175625
422.981	141154
423.056	110527
423.131	88032
423.207	68802
423.282	56034
423.357	47082
423.432	38837
423.508	35068
423.583	28784
423.658	26338
423.733	23403
423.808	22025
423.883	21607
423.959	22116
424.034	22029
424.109	22172
424.184	16076
424.259	15036
424.334	13560
424.409	11217
424.484	10197
424.559	9983
424.634	8931
424.709	8960
424.784	7934
424.859	7997
424.934	6438
425.009	7227
425.084	7794
425.159	6137
425.234	6489
425.309	6516
425.384	5636
425.459	4784
425.534	6690
425.609	4354
425.683	5401
425.758	5030
425.833	5115
425.908	5738
425.983	4831
426.058	5912
426.132	5170
426.207	4036
426.282	4965
426.357	4344
426.431	4598
426.506	4823
426.581	3867
426.655	4480
426.730	3926
426.805	3094
426.879	4295
426.954	4547
427.029	3832
427.103	4120
427.178	3271
427.253	3945
427.327	3148
427.402	3829
427.476	3192
427.551	3510
427.625	4460
427.700	4364
427.774	3205
427.849	4496
427.923	3266
427.998	4371
428.072	6409
428.147	13533
428.221	43316
428.296	101203
428.370	56112
428.444	15136
428.519	6558
428.593	5854
428.667	5901
428.742	7762
428.816	18535
428.890	67422
428.965	88855
429.039	29027
429.113	8190
429.188	5289
429.262	4284
429.336	4627
429.410	3648
429.485	4239
429.559	4605
429.633	5503
429.707	7432
429.781	17706
429.855	65000
429.930	80609
430.004	28312
430.078	22891
430.152	55890
430.226	133849
430.300	122442
430.374	40995
430.448	16614
430.522	10138
430.596	10886
430.670	27469
430.744	82155
430.818	79001
430.892	19364
430.966	7464
431.040	4590
431.114	3268
431.188	3159
431.262	3600
431.336	1952
431.410	4592
431.484	2990
431.557	4410
431.631	4203
431.705	10048
431.779	37290
431.853	98404
431.927	63828
432.000	15046
432.074	5824
432.148	3483
432.222	2426
432.295	2704
432.369	1702
432.443	662
432.516	1864
432.590	2246
432.664	874
432.737	1271
432.811	656
432.885	1303
432.958	1707
433.032	1062
433.106	1311
433.179	1559
433.253	1764
433.326	2469
433.400	835
433.473	2914
433.547	1003
433.620	1393
433.694	1279
433.767	1670
433.841	1749
433.914	1575
433.988	1406
434.061	1443
434.134	1465
434.208	1787
434.281	1021
434.355	1430
434.428	1615
434.501	1614
434.575	1265
434.648	1789
434.721	1629
434.795	1525
434.868	899
434.941	1353
435.014	1687
435.088	2995
435.161	2893
435.234	3519
435.307	3838
435.381	5016
435.454	8107
435.527	13547
435.600	15123
435.673	13439
435.746	10951
435.819	9252
435.892	6907
435.966	6254
436.039	4567
436.112	4884
436.185	2890
436.258	3335
436.331	2966
436.404	2289
436.477	1943
436.550	2321
436.623	2457
436.696	1607
436.769	1417
436.842	1497
436.915	1894
436.987	2064
437.060	1829
437.133	1064
437.206	1356
437.279	1713
437.352	1841
437.425	1902
437.498	1823
437.570	1972
437.643	832
437.716	1700
437.789	763
437.861	1699
437.934	923
438.007	954
438.080	837
438.152	1644
438.225	1959
438.298	1435
438.370	2171
438.443	2453
438.516	1688
438.588	2204
438.661	695
438.734	949
438.806	963
438.879	1561
438.951	1364
439.024	1495
439.096	1249
439.169	1000
439.241	775
439.314	1024
439.386	580
439.459	1090
439.531	1334
439.604	360
439.676	1057
439.749	720
439.821	720
439.893	939
439.966	1438
440.038	1483
440.110	826
440.183	1582
440.255	999
440.327	1744
440.400	1682
440.472	1017
440.544	1064
440.617	1117
440.689	2297
440.761	1869
440.833	1261
440.905	1984
440.978	1295
441.050	1678
441.122	1967
441.194	1411
441.266	2024
441.338	1253
441.411	1539
441.483	2125
441.555	2153
441.627	2732
441.699	2190
441.771	2569
441.843	2081
441.915	2943
441.987	3193
442.059	3863
442.131	5907
442.203	6348
442.275	7797
442.347	14944
442.419	31453
442.491	97406
442.563	155379
442.635	80840
442.706	24676
442.778	12185
442.850	9663
442.922	7633
442.994	7299
443.066	9210
443.137	11941
443.209	15322
443.281	24676
443.353	49209
443.425	116782
443.496	209614
443.568	213671
443.640	116701
443.711	44069
443.783	21020
443.855	13063
443.926	9894
443.998	6776
444.070	7000
444.141	5130
444.213	4994
444.285	4761
444.356	4639
444.428	4640
444.499	4930
444.571	4653
444.642	4746
444.714	5047
444.785	6196
444.857	6601
444.928	7875
445.000	9371
445.071	12519
445.143	16459
445.214	25752
445.285	41686
445.357	88212
445.428	179809
445.500	231294
445.571	221645
445.642	167298
445.714	79347
445.785	33313
445.856	17182
445.928	12578
445.999	9341
446.070	7342
446.141	6191
446.213	4813
446.284	3786
446.355	4128
446.426	3720
446.497	2919
446.569	2250
446.640	2847
446.711	2911
446.782	1404
446.853	1884
446.924	1940
446.995	1858
447.066	1575
447.138	1298
447.209	2178
447.280	1244
447.351	1001
447.422	1127
447.493	1270
447.564	829
447.635	255
447.706	826
447.777	707
447.847	463
447.918	-60
447.989	516
448.060	928
448.131	399
448.202	944
448.273	849
448.344	1061
448.414	866
448.485	794
448.556	1337
448.627	666
448.698	1495
448.768	1035
448.839	234
448.910	826
448.981	704
449.051	725
449.122	385
449.193	467
449.263	611
449.334	43
449.405	1563
449.475	19
449.546	810
449.616	1668
449.687	1622
449.758	1039
449.828	-80
449.899	119
449.969	279
450.040	612
450.110	569
450.181	-1
450.251	382
450.322	329
450.392	687
450.463	1448
450.533	378
450.604	1520
450.674	1090
450.744	1944
450.815	2091
450.885	2155
450.955	2387
451.026	1901
451.096	2052
451.166	1694
451.237	3184
451.307	3366
451.377	2023
451.447	2008
451.518	743
451.588	2081
451.658	951
451.728	1371
451.799	589
451.869	781
451.939	621
452.009	969
452.079	788
452.149	1684
452.219	1263
452.289	2127
452.360	1672
452.430	2734
452.500	4310
452.570	7413
452.640	14760
452.710	33486
452.780	38986
452.850	25011
452.920	13210
452.990	8679
453.060	6166
453.129	3815
453.199	2710
453.269	3063
453.339	2262
453.409	1471
453.479	1771
453.549	955
453.619	648
453.688	1020
453.758	1673
453.828	830
453.898	279
453.968	1632
454.037	810
454.087	704
454.107	643
454.168	449
454.177	403
454.247	815
454.249	831
454.316	808
454.330	687
454.386	193
454.411	190
454.456	67
454.492	354
454.525	624
454.574	1044
454.595	1190
454.655	1111
454.665	1084
454.734	985
454.736	1001
454.804	777
454.817	935
454.873	1578
454.898	1417
454.943	1056
454.979	826
455.013	596
455.060	1114
455.082	1318
455.141	746
455.152	628
455.221	1203
455.222	1216
455.291	810
455.303	933
455.360	1374
455.384	1669
455.430	1970
455.465	1780
455.499	1622
455.546	956
455.569	626
455.627	1316
455.638	1444
455.707	825
455.708	846
455.777	748
455.789	800
455.846	1221
455.869	1498
455.916	1796
455.950	1474
455.985	1186
456.031	1487
456.054	1625
456.112	1590
456.124	1575
456.193	1784
456.193	1764
456.262	2011
456.274	2078
456.332	2272
456.355	2109
456.401	1727
456.436	1824
456.470	1884
456.516	2137
456.540	2196
456.597	2429
456.609	2483
456.678	2478
456.678	2457
456.747	2273
456.759	2147
456.817	1812
456.840	2288
456.886	2790
456.920	2585
456.955	2653
457.001	2929
457.024	2932
457.082	2884
457.093	2872
457.162	3065
457.163	3089
457.232	3453
457.243	3560
457.301	3956
457.324	3893
457.370	3796
457.405	4605
457.439	5477
457.485	5547
457.508	5639
457.566	7410
457.577	8032
457.646	11894
457.647	11985
457.715	26042
457.727	29347
457.784	51666
457.808	67159
457.853	84402
457.889	98215
457.922	98199
457.969	72909
457.991	74425
458.050	83341
458.060	85664
458.129	136958
458.130	138559
458.198	137264
458.211	127369
458.267	83552
458.292	61209
458.336	42229
458.372	37727
458.405	45809
458.453	64502
458.474	79653
458.533	137304
458.543	141285
458.611	202287
458.614	203577
458.680	140100
458.694	117032
458.749	65215
458.775	47094
458.818	28752
458.855	21945
458.887	17943
458.936	13364
458.955	11786
459.016	10095
459.024	9940
459.093	9101
459.097	9024
459.162	7047
459.177	6900
459.230	6861
459.257	6881
459.299	6525
459.338	6367
459.368	6575
459.418	6057
459.437	5746
459.499	5827
459.505	5839
459.574	5986
459.579	6006
459.643	6019
459.659	5892
459.711	5585
459.740	5609
459.780	5555
459.820	5751
459.849	5889
459.900	5796
459.917	5671
459.981	5244
459.986	5254
460.054	5797
460.061	5864
460.123	5784
460.141	5707
460.191	6066
460.222	6153
460.260	5754
460.302	5638
460.328	6233
460.382	7593
460.397	8038
460.462	10201
460.465	10673
460.534	21585
460.543	23247
460.602	61802
460.623	76712
460.671	115448
460.703	150063
460.739	133968
460.783	100680
460.808	84690
460.864	25831
460.876	20767
460.944	9375
460.945	9268
461.013	7065
461.024	6730
461.081	6036
461.104	6198
461.150	6477
461.184	6498
461.218	6371
461.264	6055
461.286	5880
461.345	5630
461.355	5619
461.423	5598
461.425	5596
461.491	5260
461.505	5314
461.559	5432
461.585	5209
461.628	5321
461.665	5703
461.696	5521
461.745	5064
461.764	5154
461.825	5599
461.832	5602
461.901	5503
461.905	5495
461.969	5093
461.985	4968
462.037	5593
462.065	6115
462.105	5843
462.145	5383
462.173	5370
462.225	5449
462.241	5564
462.305	5951
462.310	5980
462.378	6387
462.385	6451
462.446	6413
462.465	6335
462.514	6347
462.545	6292
462.582	6106
462.625	6070
462.650	5819
462.705	5159
462.718	5281
462.785	5833
462.786	5820
462.854	4915
462.865	4782
462.922	5439
462.945	5659
462.990	5524
463.025	5442
463.058	5657
463.104	6024
463.126	5902
463.184	5573
463.194	5604
463.262	5468
463.264	5466
463.330	5546
463.344	5591
463.398	6366
463.424	6648
463.466	6003
463.504	5471
463.533	5933
463.583	6541
463.601	6248
463.663	5440
463.669	5432
463.737	5192
463.743	5155
463.805	5523
463.823	5664
463.873	5818
463.903	5934
463.940	5837
463.982	5578
464.008	5628
464.062	5707
464.076	5660
464.142	5680
464.144	5689
464.211	5547
464.221	5529
464.279	5346
464.301	5208
464.347	5905
464.381	6549
464.414	6215
464.461	5635
464.482	5744
464.540	6060
464.550	6040
464.617	5756
464.620	5739
464.685	5693
464.699	5702
464.753	5890
464.779	5891
464.820	5834
464.859	5878
464.888	5356
464.938	4476
464.956	5081
465.018	6994
465.023	7006
465.091	7069
465.098	7075
465.158	6681
465.177	6557
465.226	6619
465.257	6586
465.293	6630
465.336	6679
465.361	6650
465.416	6563
465.428	6536
465.495	6500
465.496	6506
465.563	5686
465.575	5571
465.631	6197
465.654	6495
465.698	5969
465.734	5423
465.765	5999
465.813	6819
465.833	6692
465.893	6389
465.900	6418
465.968	6503
465.972	6504
466.035	6485
466.052	6402
466.102	6336
466.131	6329
466.170	6026
466.210	5710
466.237	6088
466.290	6871
466.304	6833
466.369	6416
466.372	6434
466.439	6732
466.449	6738
466.506	7066
466.528	7203
466.573	6970
466.607	6748
466.641	6620
466.687	6459
466.708	6804
466.766	7647
466.775	7516
466.842	6468
466.845	6404
466.909	6875
466.925	6986
466.977	7211
467.004	7292
467.044	7904
467.083	8483
467.111	8164
467.163	7534
467.178	7493
467.242	7245
467.245	7299
467.312	8152
467.321	8252
467.379	8216
467.400	8178
467.446	8237
467.480	8255
467.559	8990
467.638	8916
467.717	9682
467.796	10299
467.875	10760
467.955	10454
468.034	11408
468.113	13059
468.192	17269
468.271	21002
468.350	29088
468.429	38966
468.508	39719
468.588	25237
468.667	16555
468.746	12423
468.825	12062
468.904	10563
468.983	9474
469.062	9262
469.141	9337
469.220	8210
469.299	8728
469.378	7580
469.456	8667
469.535	8262
469.614	7520
469.693	7225
469.772	8995
469.851	7626
469.930	8671
470.009	7345
470.088	8977
470.166	7922
470.245	9031
470.324	9584
470.403	9513
470.482	9023
470.560	8943
470.639	7855
470.718	8703
470.797	7737
470.875	8014
470.954	7121
471.033	7646
471.111	7536
471.190	7999
471.269	7759
471.347	6974
471.426	8119
471.505	8105
471.583	7863
471.662	7416
471.740	8085
471.819	7639
471.898	6850
471.976	9278
472.055	7910
472.133	13759
472.212	18829
472.290	9447
472.369	7875
472.447	7226
472.526	7173
472.604	8033
472.683	8207
472.761	7937
472.839	7621
472.918	8388
472.996	7444
473.075	8514
473.153	8729
473.231	7806
473.310	7394
473.388	8837
473.466	8211
473.545	8630
473.623	7863
473.701	9097
473.780	8144
473.858	7425
473.936	10198
474.014	8677
474.093	12965
474.171	16545
474.249	11721
474.327	9116
474.405	8076
474.484	8708
474.562	7649
474.640	7511
474.718	8032
474.796	7619
474.874	8418
474.952	8110
475.030	7469
475.108	8292
475.187	8392
475.265	7614
475.343	7969
475.421	8376
475.499	7671
475.577	8268
475.655	7916
475.733	8059
475.811	7249
475.889	7707
475.966	7517
476.044	8375
476.122	6934
476.200	7059
476.278	6772
476.356	7469
476.434	6911
476.512	7258
476.590	7814
476.667	9168
476.745	7323
476.823	8660
476.901	7369
476.979	7759
477.056	8388
477.134	7530
477.212	6960
477.290	8099
477.367	7203
477.445	7852
477.523	6878
477.601	6857
477.678	7641
477.756	7560
477.834	7252
477.911	8320
477.989	7476
478.066	7045
478.144	8235
478.222	7642
478.299	9720
478.377	13857
478.454	13634
478.532	7858
478.609	7446
478.687	7986
478.764	6971
478.842	6613
478.919	8062
478.997	7667
479.074	6662
479.152	8280
479.229	7468
479.307	6574
479.384	7570
479.461	7950
479.539	7704
479.616	7967
479.694	7089
479.771	8383
479.848	6536
479.926	6584
480.003	8248
480.080	7796
480.157	8345
480.235	8542
480.312	8214
480.389	8196
480.467	8418
480.544	9101
480.621	9305
480.698	9964
480.775	9818
480.853	9524
480.930	9422
481.007	11312
481.084	22295
481.161	41608
481.238	21365
481.315	8915
481.392	9100
481.470	9201
481.547	9140
481.624	8959
481.701	9022
481.778	9216
481.855	9660
481.932	11880
482.009	12313
482.086	12017
482.163	13273
482.240	15127
482.317	14388
482.393	12896
482.470	12580
482.547	12245
482.624	11015
482.701	11978
482.778	11096
482.855	11976
482.932	11870
483.009	14088
483.085	20193
483.162	32578
483.239	27050
483.316	16167
483.393	16210
483.469	13800
483.546	13256
483.623	11378
483.699	9736
483.776	10451
483.853	9524
483.930	9530
484.006	9396
484.083	11359
484.160	9684
484.236	11185
484.313	10822
484.389	11756
484.466	14696
484.543	16917
484.619	20547
484.696	22784
484.772	15476
484.849	12428
484.925	11095
485.002	10792
485.078	9431
485.155	9828
485.231	8924
485.308	8738
485.384	9949
485.461	11359
485.537	9269
485.614	10424
485.690	8136
485.766	8073
485.843	8143
485.919	7705
485.995	7926
486.072	8916
486.148	7758
486.224	8217
486.301	8306
486.377	8926
486.453	7480
486.530	10021
486.606	10452
486.682	10048
486.758	10396
486.835	13223
486.911	13317
486.987	13301
487.063	13756
487.139	22357
487.215	36076
487.292	30887
487.368	24976
487.444	31840
487.520	48892
487.596	81227
487.672	156346
487.748	429055
487.824	626146
487.900	257619
487.976	86453
488.052	42838
488.128	29220
488.204	19571
488.280	18017
488.356	15148
488.432	13290
488.508	13229
488.584	10200
488.660	10767
488.736	10638
488.812	9498
488.888	9468
488.964	9119
489.039	8640
489.115	11490
489.191	14700
489.267	12191
489.343	8913
489.418	8169
489.494	8222
489.570	7929
489.646	10515
489.722	7242
489.797	8672
489.873	9044
489.949	8380
490.024	7894
490.100	8242
490.176	8930
490.251	7837
490.327	8767
490.403	7094
490.478	7288
490.554	8688
490.629	8727
490.705	7919
490.781	8462
490.856	6388
490.932	7375
491.007	7244
491.083	6589
491.158	7408
491.234	7120
491.309	6737
491.385	6670
491.460	6084
491.536	7783
491.611	6519
491.686	7010
491.762	6283
491.837	6580
491.913	6078
491.988	6517
492.063	5321
492.139	7797
492.214	6150
492.289	7035
492.365	5234
492.440	6152
492.515	6116
492.590	7162
492.666	6189
492.741	7127
492.816	6092
492.891	6356
492.967	6489
493.042	6742
493.117	5423
493.192	6198
493.267	7114
493.342	7908
493.418	8497
493.493	6599
493.568	5753
493.643	6410
493.718	5198
493.793	5117
493.868	5352
493.943	6056
494.018	5976
494.093	5430
494.168	6614
494.243	5170
494.318	6328
494.393	6473
494.468	5081
494.543	5827
494.618	5169
494.693	5568
494.768	5080
494.842	5369
494.917	6127
494.992	6691
495.067	5914
495.142	5317
495.217	5250
495.292	6139
495.366	5150
495.441	5246
495.516	5963
495.591	6828
495.665	6212
495.740	6510
495.815	5957
495.890	7414
495.964	5159
496.039	11127
496.114	17154
496.188	40223
496.263	25247
496.338	7303
496.412	5718
496.487	6888
496.561	6500
496.636	6687
496.710	8330
496.785	11392
496.860	6128
496.934	5615
497.009	6396
497.083	5438
497.158	5149
497.232	6160
497.307	5943
497.381	5667
497.455	5704
497.530	7008
497.604	4928
497.679	5824
497.753	5647
497.827	5510
497.902	5193
497.976	5803
498.050	6332
498.125	6283
498.199	6816
498.273	6059
498.348	5381
498.422	6044
498.496	5288
498.570	7315
498.645	5777
498.719	4382
498.793	6405
498.867	6014
498.941	4952
499.016	6216
499.090	5533
499.164	5573
499.238	5936
499.312	6696
499.386	6920
499.460	6106
499.534	6654
499.609	6390
499.683	4819
499.757	7050
499.831	6448
499.905	5579
499.979	6011
500.053	6252
500.127	5378
500.201	5898
500.275	6656
500.349	6522
500.422	5855
500.496	6381
500.570	5199
500.644	7543
500.718	6480
500.792	7399
500.866	7653
500.940	6603
501.013	7146
501.087	6442
501.161	6067
501.235	5686
501.309	8070
501.382	7104
501.456	6971
501.530	7074
501.603	5366
501.677	5450
501.751	4362
501.825	8453
501.898	6025
501.972	5700
502.046	6196
502.119	6137
502.193	6252
502.266	6198
502.340	6068
502.413	6620
502.487	7103
502.561	6233
502.634	6432
502.708	7113
502.781	6587
502.855	6992
502.928	5257
503.002	7591
503.075	5774
503.149	7404
503.222	7313
503.295	7903
503.369	8479
503.442	9667
503.516	10954
503.589	11654
503.662	14578
503.736	18678
503.809	22627
503.882	29780
503.956	46742
504.029	96180
504.102	250190
504.175	343817
504.249	153053
504.322	65080
504.395	35619
504.468	23968
504.542	16565
504.615	12286
504.688	11887
504.761	9171
504.834	10919
504.907	8961
504.980	8166
505.053	6656
505.127	4888
505.200	9117
505.273	6432
505.346	5956
505.419	4672
505.492	7278
505.565	5639
505.638	6127
505.711	4495
505.784	5165
505.857	4510
505.930	7188
506.003	3737
506.076	7311
506.149	4130
506.221	3097
506.294	6012
506.367	3574
506.440	4676
506.513	5742
506.586	4554
506.659	3787
506.731	4110
506.804	4117
506.877	3055
506.950	5236
507.022	4748
507.095	3128
507.168	4300
507.241	4689
507.313	2846
507.386	3880
507.459	4954
507.531	4383
507.604	3713
507.677	4863
507.749	3497
507.822	5210
507.894	4090
507.967	4920
508.040	2128
508.112	5144
508.185	4593
508.257	2913
508.330	5979
508.402	3813
508.475	3521
508.547	4442
508.620	3688
508.692	4427
508.765	4941
508.837	3759
508.909	4821
508.982	3532
509.054	4654
509.127	4261
509.199	3548
509.271	3673
509.344	3661
509.416	4307
509.488	4302
509.560	4647
509.633	3445
509.705	4274
509.777	3632
509.849	4737
509.922	2856
509.994	3910
510.066	4835
510.138	2147
510.210	5648
510.283	3194
510.355	4444
510.427	4843
510.499	4275
510.571	3827
510.643	2254
510.715	5452
510.787	2677
510.859	5569
510.931	2971
511.003	3659
511.076	4602
511.148	3062
511.219	2275
511.291	4798
511.363	4132
511.435	3756
511.507	2445
511.579	4308
511.651	4789
511.723	4263
511.795	3723
511.867	3779
511.939	3300
512.010	3069
512.082	4646
512.154	2391
512.226	3782
512.298	5019
512.369	3201
512.441	4641
512.513	4156
512.585	2950
512.656	4586
512.728	3235
512.800	3225
512.871	4928
512.943	5069
513.015	2833
513.086	5304
513.158	4934
513.230	2690
513.301	3420
513.373	4194
513.444	4104
513.516	3002
513.588	4190
513.659	5120
513.731	4273
513.802	2470
513.874	5517
513.945	3933
514.016	2929
514.088	4138
514.159	2755
514.231	4558
514.302	3941
514.374	4554
514.445	2594
514.516	6381
514.588	3594
514.659	3731
514.730	2979
514.802	5236
514.873	2424
514.944	6267
515.016	4368
515.087	3711
515.158	4556
515.229	5087
515.301	2685
515.372	5389
515.443	3811
515.514	4743
515.585	4555
515.656	6634
515.728	6648
515.799	3320
515.870	5629
515.941	5374
516.012	3160
516.083	5363
516.154	4028
516.225	5318
516.296	6894
516.367	5135
516.438	5917
516.509	5305
516.580	7100
516.651	16914
516.722	38471
516.793	17596
516.864	7262
516.935	7706
517.006	9450
517.077	9517
517.148	16306
517.219	62636
517.289	88685
517.360	15720
517.431	9293
517.502	6361
517.573	7806
517.643	7407
517.714	5990
517.785	7673
517.856	8257
517.926	10976
517.997	11785
518.068	12192
518.138	18311
518.209	20966
518.280	55134
518.350	167229
518.421	75156
518.492	34898
518.562	41290
518.633	57278
518.703	91390
518.774	197385
518.845	439228
518.915	373843
518.986	132333
519.056	60683
519.127	36724
519.197	25233
519.268	18369
519.338	15936
519.408	12214
519.479	10487
519.549	9286
519.620	10758
519.690	8589
519.760	6658
519.831	7714
519.901	6651
519.971	6290
520.042	5793
520.112	4863
520.182	7063
520.253	6262
520.323	5248
520.393	4296
520.463	8012
520.534	3182
520.604	6954
520.674	6777
520.744	4633
520.814	3408
520.885	5005
520.955	4983
521.025	4153
521.095	5548
521.165	6735
521.235	4040
521.305	4135
521.375	6398
521.445	5189
521.515	5028
521.585	5672
521.655	3134
521.725	5948
521.795	6321
521.865	2410
521.935	7203
522.005	5275
522.075	5190
522.145	7323
522.215	6825
522.285	6610
522.355	5734
522.424	6613
522.494	7266
522.564	7328
522.634	6065
522.704	6535
522.774	5113
522.843	6396
522.913	9027
522.983	5980
523.053	5829
523.122	6639
523.192	5257
523.262	3809
523.331	4333
523.401	6379
523.471	6035
523.540	6149
523.610	6108
523.680	7575
523.749	7020
523.819	12697
523.888	11677
523.958	6395
524.027	7276
524.097	6783
524.166	6238
524.236	4982
524.305	8583
524.375	5832
524.444	5046
524.514	8044
524.583	6591
524.653	6549
524.722	7227
524.791	5727
524.861	8710
524.930	6013
524.999	7926
525.069	9007
525.138	7647
525.207	8519
525.277	9927
525.346	10338
525.415	12598
525.484	12498
525.554	15445
525.623	22921
525.692	34189
525.761	31417
525.830	36732
525.900	47131
525.969	77416
526.038	145886
526.107	299047
526.176	709787
526.245	538135
526.314	195349
526.383	400265
526.452	496883
526.522	651286
526.591	536060
526.660	128358
526.729	75674
526.797	78136
526.867	110226
526.935	298443
527.004	826989
527.073	530237
527.142	116650
527.211	51111
527.280	32089
527.349	23765
527.418	16311
527.487	16933
527.555	13309
527.624	11780
527.693	8753
527.762	10677
527.831	8447
527.899	9925
527.968	9073
528.037	6336
528.106	8106
528.174	7427
528.243	7504
528.312	6928
528.380	6125
528.449	6549
528.518	8939
528.586	5687
528.655	7922
528.723	7533
528.792	6337
528.861	6547
528.929	5529
528.998	7002
529.066	5895
529.135	7275
529.203	5863
529.272	5144
529.340	6640
529.409	7290
529.477	5147
529.545	5205
529.614	8648
529.682	4540
529.751	5179
529.819	9658
529.887	5459
529.956	6157
530.024	6174
530.092	5668
530.161	7084
530.229	6942
530.297	5891
530.365	7541
530.434	5839
530.502	5785
530.570	6847
530.638	5096
530.707	5858
530.775	8067
530.843	6290
530.911	6795
530.979	6922
531.047	6837
531.115	6701
531.183	7463
531.252	8321
531.320	6782
531.388	6304
531.456	7192
531.524	5659
531.592	7815
531.660	8672
531.728	6630
531.796	6670
531.864	7501
531.932	6844
532.000	6960
532.067	7113
532.135	8279
532.203	8626
532.271	8324
532.339	10341
532.407	9233
532.475	8898
532.542	9841
532.610	9369
532.678	8079
532.746	10113
532.814	10063
532.881	9474
532.949	10405
533.017	9672
533.084	8963
533.152	8269
533.220	9021
533.287	7816
533.355	8617
533.423	9075
533.490	8760
533.558	9635
533.625	10233
533.693	9445
533.761	10087
533.828	9807
533.896	9433
533.963	10629
534.031	11306
534.098	14879
534.166	15857
534.233	16291
534.300	19666
534.368	18486
534.435	18136
534.503	19832
534.570	23105
534.637	25737
534.705	29625
534.772	39032
534.840	80270
534.907	327853
534.974	353852
535.041	57429
535.109	26744
535.176	19540
535.243	19076
535.310	17489
535.378	16776
535.445	17249
535.512	18205
535.579	16345
535.646	16018
535.714	17200
535.781	17871
535.848	17790
535.915	17869
535.982	15351
536.049	16555
536.116	17942
536.183	16283
536.250	15134
536.317	16209
536.384	17853
536.451	17830
536.518	17788
536.585	16475
536.652	19215
536.719	17879
536.786	15984
536.853	17238
536.920	18310
536.987	16896
537.053	15556
537.120	18577
537.187	18668
537.254	20156
537.321	18381
537.388	20077
537.454	18653
537.521	19005
537.588	18510
537.654	20162
537.721	21400
537.788	21103
537.855	18819
537.921	20358
537.988	18588
538.055	18880
538.121	17484
538.188	17835
538.254	16420
538.321	16289
538.388	18984
538.454	21854
538.521	20739
538.587	20583
538.654	19159
538.720	19172
538.787	19781
538.853	20793
538.920	18938
538.986	16904
539.053	17144
539.119	18569
539.185	17974
539.252	20505
539.318	18942
539.385	22680
539.451	19480
539.517	20641
539.583	20945
539.650	19297
539.716	18407
539.782	19297
539.849	18036
539.915	19040
539.981	18899
540.047	18507
540.114	18336
540.180	20721
540.246	19383
540.312	22460
540.378	20467
540.444	21315
540.510	21348
540.576	21487
540.643	19393
540.709	18705
540.775	18638
540.841	18528
540.907	18508
540.973	18911
541.039	18132
541.105	20111
541.171	20511
541.237	21950
541.303	21920
541.369	22281
541.435	21253
541.500	19343
541.566	18309
541.632	18906
541.698	19919
541.764	21768
541.830	19937
541.896	19250
541.961	19275
542.027	19272
542.093	21531
542.159	22075
542.224	18430
542.290	21613
542.356	18732
542.421	19897
542.487	19233
542.553	18661
542.618	18949
542.684	18526
542.750	19742
542.815	20498
542.881	18698
542.947	21243
543.012	20825
543.078	19325
543.143	17947
543.209	20143
543.274	18898
543.340	19213
543.405	19892
543.471	20145
543.536	21146
543.602	20388
543.667	19111
543.732	21588
543.798	19992
543.863	20983
543.928	20839
543.994	21035
544.059	21627
544.124	22137
544.190	21294
544.255	22213
544.320	22797
544.386	21759
544.451	22628
544.516	22209
544.581	22077
544.646	22556
544.712	24088
544.777	24376
544.842	23212
544.907	23553
544.972	23574
545.037	26832
545.102	27471
545.168	26174
545.233	26033
545.298	26442
545.363	24880
545.428	27329
545.493	28649
545.558	26992
545.623	26814
545.688	27084
545.753	28927
545.818	29033
545.883	31658
545.947	32138
546.012	34681
546.077	34562
546.142	36272
546.207	38131
546.272	40099
546.337	40199
546.401	42183
546.466	45870
546.531	44745
546.596	49138
546.661	51892
546.725	55347
546.790	57543
546.855	64130
546.919	69426
546.984	77654
547.049	81398
547.113	93155
547.178	103536
547.243	118007
547.307	135129
547.372	150011
547.436	148713
547.501	157048
547.565	167423
547.630	152734
547.695	149022
547.759	151343
547.823	152051
547.888	153913
547.952	160539
548.017	169869
548.081	186811
548.146	170670
548.210	170892
548.274	184066
548.339	179802
548.403	162615
548.468	156301
548.532	155627
548.596	158295
548.660	160897
548.725	173703
548.789	185897
548.853	177629
548.917	173383
548.982	167455
549.046	151255
549.110	137291
549.174	145620
549.238	165634
549.303	181737
549.367	184507
549.431	175990
549.495	164515
549.559	167995
549.623	193034
549.687	209849
549.751	206511
549.815	241781
549.879	244166
549.943	236503
550.007	246323
550.071	242676
550.135	216897
550.199	210436
550.263	208153
550.327	196380
550.391	208645
550.455	230446
550.519	232723
550.582	246389
550.646	276290
550.710	280074
550.774	274602
550.838	280942
550.901	289005
550.965	307090
551.029	317659
551.093	339532
551.156	365537
551.220	394787
551.284	404484
551.347	335198
551.411	299921
551.475	289192
551.538	295461
551.602	279471
551.666	263098
551.729	249905
551.793	246112
551.856	242507
551.920	235478
551.983	239396
552.047	234515
552.110	239025
552.174	245944
552.237	245074
552.301	226302
552.364	218210
552.428	212264
552.491	221195
552.554	223376
552.618	222406
552.681	224037
552.745	217143
552.808	223201
552.871	232878
552.934	227554
552.998	222184
553.061	217991
553.124	208854
553.187	209140
553.251	216645
553.314	217126
553.377	217050
553.440	232519
553.503	239039
553.567	233193
553.630	235151
553.693	232408
553.756	234016
553.819	229989
553.882	222511
553.945	226215
554.008	226994
554.071	227919
554.134	228475
554.197	214656
554.260	213401
554.323	216038
554.386	218609
554.449	225698
554.512	223880
554.575	215537
554.638	215800
554.701	212771
554.764	210940
554.827	205421
554.889	197879
554.952	187026
555.015	184194
555.078	187738
555.141	187761
555.203	185623
555.266	185789
555.329	183892
555.391	175731
555.454	173107
555.517	167678
555.580	163565
555.642	157512
555.705	154136
555.768	154925
555.830	150750
555.893	141216
555.955	136763
556.018	136112
556.080	135154
556.143	140897
556.206	137902
556.268	133868
556.330	130293
556.393	128083
556.455	125190
556.518	123011
556.580	117374
556.643	113791
556.705	111950
556.767	109648
556.830	108151
556.892	106382
556.955	104233
557.017	102205
557.079	101599
557.142	98396
557.204	99295
557.266	96220
557.328	92371
557.391	87344
557.453	83777
557.515	84008
557.577	85121
557.639	85460
557.701	84755
557.764	85033
557.826	85743
557.888	88906
557.950	91422
558.012	99301
558.074	125492
558.136	246828
558.198	466533
558.260	189654
558.322	96866
558.384	95308
558.446	95848
558.508	101963
558.570	112117
558.632	127959
558.694	160466
558.756	261831
558.818	601056
558.880	891331
558.942	516586
559.003	523219
559.065	262962
559.127	127172
559.189	116554
559.251	127019
559.312	174456
559.374	363778
559.436	753752
559.498	423518
559.559	148785
559.621	117674
559.683	129833
559.744	199541
559.806	496557
559.868	596854
559.929	193968
559.991	133079
560.052	200892
560.114	464806
560.176	298758
560.237	301703
560.299	404710
560.360	112749
560.422	54938
560.483	47038
560.545	43462
560.606	42083
560.667	39275
560.729	37026
560.790	35411
560.852	35030
560.913	33762
560.974	32687
561.036	32848
561.097	33768
561.158	31256
561.220	31830
561.281	29288
561.342	30668
561.403	30156
561.465	30600
561.526	29104
561.587	29345
561.648	27371
561.709	27345
561.771	26902
561.832	25974
561.893	25160
561.954	25791
562.015	25146
562.076	25054
562.137	23809
562.198	24773
562.259	24391
562.320	25598
562.381	24489
562.442	23966
562.503	24150
562.564	24202
562.625	23069
562.686	23240
562.747	21323
562.808	22422
562.869	22259
562.930	21557
562.991	21104
563.051	20867
563.112	21798
563.173	21459
563.234	20732
563.294	21143
563.355	20213
563.416	21222
563.477	20607
563.537	21435
563.598	20528
563.659	20843
563.720	19533
563.780	20221
563.841	19109
563.901	21511
563.962	18728
564.023	20090
564.083	19492
564.144	20411
564.204	18312
564.265	19050
564.325	19455
564.386	18976
564.446	18182
564.507	19429
564.567	16978
564.628	18617
564.688	18203
564.749	17998
564.809	18327
564.869	18570
564.930	17701
564.990	18402
565.050	17759
565.111	18175
565.171	17267
565.231	17436
565.292	19200
565.352	17579
565.412	18078
565.472	17629
565.532	16787
565.593	18044
565.653	17591
565.713	17150
565.773	18475
565.833	18746
565.893	19009
565.953	17101
566.013	16263
566.074	17072
566.134	16545
566.194	15509
566.254	16662
566.314	15949
566.374	15318
566.434	16848
566.494	16182
566.554	16711
566.614	17392
566.673	18384
566.733	18493
566.793	17833
566.853	17769
566.913	18134
566.973	16785
567.033	17953
567.092	17292
567.152	17171
567.212	17330
567.272	17694
567.331	18706
567.391	18447
567.451	19251
567.511	19898
567.570	18427
567.630	18824
567.690	16560
567.749	17420
567.809	17578
567.868	18407
567.928	17503
567.988	17932
568.047	18099
568.107	18077
568.166	18208
568.226	18225
568.285	18383
568.345	17510
568.404	18781
568.464	18212
568.523	17586
568.582	17870
568.642	16816
568.701	17419
568.761	15464
568.820	16618
568.879	17313
568.939	18041
568.998	16763
569.057	16635
569.116	17241
569.176	18287
569.235	17744
569.294	17374
569.353	15951
569.413	17534
569.472	16001
569.531	16712
569.590	16739
569.649	16812
569.708	16207
569.767	17227
569.827	16951
569.886	16453
569.945	15867
570.004	17117
570.063	17237
570.122	17058
570.181	17905
570.240	16627
570.299	17230
570.358	17486
570.417	17455
570.475	18596
570.534	19326
570.593	17397
570.652	18347
570.711	18092
570.770	16784
570.829	17703
570.887	17198
570.946	17701
571.005	17764
571.064	18420
571.122	17436
571.181	17592
571.240	18461
571.299	16446
571.357	17233
571.416	17547
571.475	16953
571.533	18930
571.592	19145
571.650	19367
571.709	19657
571.768	21612
571.826	22503
571.885	21552
571.943	18848
572.002	17890
572.060	18240
572.119	17494
572.177	17425
572.236	18161
572.294	17850
572.352	19256
572.411	19042
572.469	18384
572.528	17478
572.586	17494
572.644	16840
572.703	17974
572.761	16154
572.819	16471
572.877	15209
572.936	15960
572.994	16362
573.052	16203
573.110	15869
573.169	18071
573.227	17329
573.285	17609
573.343	16903
573.401	16514
573.459	16736
573.517	17403
573.576	17233
573.634	17647
573.692	17292
573.750	17094
573.808	16591
573.866	16684
573.924	15881
573.982	16682
574.040	15825
574.098	16451
574.155	16322
574.213	15636
574.271	16112
574.329	17922
574.387	15714
574.445	15361
574.503	15219
574.560	15024
574.618	15329
574.676	14451
574.734	14732
574.792	15220
574.849	13804
574.907	13197
574.965	13136
575.022	12827
575.080	11107
575.138	12522
575.195	11882
575.253	12007
575.311	12004
575.368	12222
575.426	11007
575.483	12993
575.541	13512
575.598	12928
575.656	13023
575.713	13189
575.771	14344
575.828	13350
575.886	12019
575.943	12858
576.001	12415
576.058	11539
576.115	11250
576.173	12229
576.230	12899
576.287	12643
576.345	12299
576.402	12714
576.459	12904
576.517	12768
576.574	11319
576.631	12584
576.688	11959
576.746	11369
576.803	10809
576.860	11175
576.917	10879
576.974	11573
577.031	11303
577.089	11441
577.146	10453
577.203	10504
577.260	10572
577.317	10718
577.374	10503
577.431	11390
577.488	10805
577.545	10387
577.602	11431
577.659	10923
577.716	11162
577.773	10815
577.830	10362
577.886	11564
577.943	10590
578.000	10396
578.057	10648
578.114	11380
578.171	11169
578.227	10692
578.284	10319
578.341	11396
578.398	11481
578.454	11143
578.511	11066
578.568	11463
578.625	10034
578.681	10848
578.738	10654
578.794	11592
578.851	10698
578.908	11180
578.964	10694
579.021	11590
579.077	10968
579.134	10664
579.190	10426
579.247	11694
579.303	10099
579.360	10970
579.416	11136
579.473	11248
579.529	11408
579.586	11645
579.642	11206
579.698	11584
579.755	11213
579.811	10928
579.867	11444
579.924	11304
579.980	10604
580.036	11748
580.093	11823
580.149	12246
580.205	11073
580.261	11910
580.317	13515
580.374	12402
580.430	12247
580.486	12306
580.542	12218
580.598	13338
580.619	13101
580.654	12695
580.692	12597
580.710	12568
580.765	12941
580.767	12963
580.823	13753
580.838	13342
580.879	12267
580.911	12578
580.935	12852
580.984	12354
580.991	12286
581.047	13511
581.057	13198
581.103	11852
581.130	12342
581.159	12842
581.203	12408
581.215	12318
581.270	11689
581.276	11760
581.326	12438
581.349	11891
581.382	11094
581.422	11238
581.438	11296
581.494	12286
581.494	12270
581.550	11102
581.567	11444
581.606	12133
581.640	12044
581.661	12028
581.713	13380
581.717	13486
581.773	11695
581.786	11836
581.829	12370
581.859	12030
581.885	11771
581.932	12078
581.940	12111
581.996	12378
582.004	12432
582.052	12756
582.077	12368
582.107	11931
582.150	12650
582.163	12880
582.219	11445
582.223	11504
582.274	12317
582.296	12088
582.330	11656
582.368	12185
582.386	12455
582.441	12106
582.441	12105
582.497	12002
582.514	12087
582.552	12427
582.587	12537
582.608	12566
582.659	11574
582.663	11497
582.719	12161
582.732	12128
582.774	12047
582.805	12423
582.830	12769
582.877	12576
582.885	12518
582.941	12309
582.950	12233
582.996	11921
583.023	12256
583.052	12704
583.095	12724
583.107	12698
583.162	12192
583.168	12227
583.218	12304
583.240	12308
583.273	12553
583.313	11831
583.328	11578
583.384	12636
583.385	12627
583.439	11988
583.458	12265
583.494	12770
583.531	12817
583.549	13048
583.603	13203
583.605	13193
583.660	12654
583.676	12752
583.715	13007
583.748	13269
583.770	13472
583.820	13085
583.825	13053
583.881	13302
583.893	13436
583.936	13870
583.965	13541
583.991	13327
584.038	14062
584.046	14182
584.101	13441
584.110	13601
584.156	14222
584.183	13579
584.211	13079
584.255	14346
584.266	14670
584.321	14361
584.328	14465
584.376	15180
584.400	15032
584.431	14884
584.472	15312
584.486	15429
584.541	16028
584.545	16038
584.596	16500
584.617	16607
584.651	16970
584.689	17756
584.706	17957
584.761	18081
584.762	18084
584.816	19307
584.834	19813
584.871	21005
584.906	21259
584.926	21311
584.978	22389
584.980	22472
585.035	25239
585.051	26303
585.090	29302
585.123	31150
585.145	32166
585.195	35847
585.200	36358
585.254	42575
585.267	44020
585.309	49202
585.340	54464
585.364	59184
585.412	68968
585.419	70815
585.473	91119
585.484	96296
585.528	126476
585.556	154048
585.583	203198
585.628	314786
585.637	347625
585.692	618603
585.700	655861
585.747	756862
585.772	678552
585.801	504387
585.845	269807
585.856	228674
585.910	117946
585.917	107562
585.965	76244
585.989	64827
586.019	56910
586.061	47885
586.074	45941
586.128	41041
586.133	40530
586.183	37095
586.205	36297
586.237	35424
586.277	33946
586.292	33666
586.346	33087
586.349	33041
586.401	32921
586.421	32715
586.455	32366
586.493	32189
586.509	32390
586.564	33056
586.565	33049
586.618	35197
586.637	36251
586.672	40257
586.709	45294
586.727	47584
586.781	53459
586.781	53500
586.835	44169
586.853	41613
586.889	38127
586.925	35345
586.944	34366
586.996	32860
586.998	32892
587.052	31999
587.068	32006
587.106	32845
587.140	33304
587.161	33243
587.212	33303
587.215	33356
587.269	32397
587.284	32639
587.323	34221
587.356	34574
587.377	34582
587.427	35420
587.431	35554
587.485	35980
587.499	36224
587.539	37046
587.571	37563
587.593	38385
587.643	40590
587.648	40801
587.702	41680
587.715	41861
587.755	41983
587.786	41988
587.810	42122
587.858	41981
587.864	42063
587.917	42010
587.930	42059
587.971	42317
588.001	42643
588.025	42886
588.073	42762
588.079	42831
588.133	42046
588.145	42101
588.187	42891
588.217	42748
588.241	42926
588.288	44203
588.295	44340
588.348	44112
588.360	44151
588.402	45385
588.431	45514
588.456	45638
588.503	46619
588.510	46999
588.564	49041
588.575	49541
588.617	51358
588.646	52278
588.671	52999
588.718	55067
588.725	55940
588.778	62220
588.789	63975
588.832	84333
588.861	100046
588.886	137609
588.932	218888
588.939	225895
588.993	273381
589.004	271326
589.047	149467
589.075	81065
589.100	68768
589.147	54248
589.154	54007
589.207	51479
589.218	51046
589.261	52362
589.290	53373
589.314	54687
589.361	57072
589.368	58174
589.421	67768
589.433	70227
589.475	106351
589.504	133930
589.528	169719
589.576	244787
589.582	237120
589.635	128206
589.647	106588
589.689	72467
589.718	53131
589.742	52301
589.790	50341
589.795	50412
589.849	50340
589.861	50229
589.902	49920
589.932	49508
589.955	49561
590.004	49185
590.009	49325
590.062	49919
590.075	50029
590.115	50013
590.146	49796
590.168	50048
590.218	49862
590.222	50019
590.275	51040
590.289	51232
590.328	52865
590.360	53872
590.381	54210
590.431	54689
590.435	54859
590.488	55564
590.503	55692
590.541	56170
590.574	56357
590.594	57024
590.645	58418
590.647	58625
590.700	60434
590.716	61011
590.753	62405
590.787	63190
590.806	63885
590.859	65465
590.859	65637
590.912	67068
590.930	67444
590.965	67784
591.001	67918
591.018	67942
591.071	66981
591.072	66819
591.124	66242
591.143	65808
591.177	66713
591.214	67606
591.230	68353
591.283	70142
591.285	70039
591.336	69021
591.356	68533
591.389	68855
591.427	68670
591.442	68690
591.495	68149
591.498	67961
591.547	69291
591.569	69653
591.600	70184
591.640	70449
591.653	70941
591.706	72337
591.711	72323
591.759	74503
591.782	75354
591.811	76963
591.853	78794
591.864	79133
591.917	79842
591.924	79736
591.969	79132
591.995	78536
592.022	79509
592.066	80637
592.075	81296
592.127	84042
592.137	84352
592.180	85193
592.208	85397
592.233	86627
592.279	88320
592.285	88838
592.338	91325
592.350	91649
592.390	91582
592.421	91144
592.443	92120
592.491	93512
592.495	93956
592.548	96730
592.562	97241
592.600	96896
592.633	96142
592.653	96426
592.704	95983
592.705	96557
592.775	97651
592.846	101903
592.916	101865
592.987	104140
593.058	102767
593.128	105327
593.199	106359
593.270	107712
593.341	108989
593.411	113029
593.482	117149
593.553	120840
593.623	121616
593.694	125504
593.764	128837
593.835	125595
593.906	128717
593.976	131009
594.047	134532
594.117	142339
594.188	144392
594.258	142922
594.329	144571
594.399	148662
594.470	152714
594.540	157459
594.611	159563
594.681	159162
594.751	160442
594.822	166295
594.892	173171
594.963	176228
595.033	179870
595.103	185971
595.174	185414
595.244	190641
595.314	194778
595.384	201893
595.455	206952
595.525	214406
595.595	220892
595.665	220518
595.736	215288
595.806	220644
595.876	223031
595.946	224030
596.016	234357
596.087	241826
596.157	241314
596.227	243084
596.297	255584
596.367	272384
596.437	285556
596.507	281502
596.577	280256
596.647	294622
596.717	306049
596.787	311335
596.857	308604
596.927	312213
596.997	312470
597.067	315548
597.137	318620
597.207	323600
597.277	324501
597.347	312214
597.417	301664
597.487	304626
597.557	311638
597.626	316731
597.696	319915
597.766	318801
597.836	295237
597.906	285586
597.975	282623
598.045	286606
598.115	298943
598.185	320660
598.254	354006
598.324	379353
598.394	384567
598.464	373024
598.533	366564
598.603	344286
598.672	332876
598.742	340926
598.812	342892
598.881	352182
598.951	349717
599.020	358211
599.090	367535
599.159	371353
599.229	357826
599.299	353111
599.368	362231
599.437	355481
599.507	327567
599.576	318475
599.646	311884
599.715	309739
599.785	306041
599.854	298728
599.924	292240
599.993	291954
600.062	298642
600.132	304363
600.201	327123
600.270	373596
600.340	389293
600.409	380018
600.478	378264
600.547	387373
600.617	344084
600.686	281710
600.755	256392
600.824	244452
600.894	238301
600.963	238839
601.032	237313
601.101	227058
601.170	215906
601.239	209554
601.308	210053
601.378	209430
601.447	209584
601.516	211375
601.585	212497
601.654	215845
601.723	215126
601.792	220968
601.861	228657
601.930	235125
601.999	235541
602.068	235422
602.137	237961
602.206	242266
602.275	245952
602.343	248544
602.412	249014
602.481	251485
602.550	254702
602.619	262487
602.688	265106
602.756	264893
602.825	269482
602.894	276692
602.963	283671
603.032	285476
603.100	288106
603.169	287695
603.238	288354
603.307	291873
603.375	293507
603.444	299597
603.513	305418
603.581	308101
603.650	311207
603.719	309587
603.787	320115
603.856	329357
603.924	334695
603.993	349223
604.061	359133
604.130	375965
604.198	379064
604.267	386953
604.335	393352
604.404	396754
604.472	400951
604.541	404582
604.609	409729
604.678	406216
604.746	409649
604.815	421881
604.883	429193
604.951	428127
605.020	437028
605.088	445782
605.156	457331
605.225	460885
605.293	461223
605.361	460908
605.429	467269
605.498	474630
605.566	488517
605.634	508662
605.702	527580
605.771	538352
605.839	539688
605.907	529522
605.975	509725
606.043	505346
606.111	508502
606.180	503351
606.248	502032
606.316	493996
606.384	492840
606.452	497608
606.520	514402
606.588	530931
606.656	533487
606.724	523117
606.792	497988
606.860	453383
606.928	421041
606.996	406041
607.064	401116
607.132	411773
607.200	433943
607.267	444757
607.335	452401
607.403	462016
607.471	442818
607.539	436548
607.607	433583
607.674	389544
607.742	389563
607.810	386130
607.878	388024
607.946	397086
608.013	414221
608.081	419379
608.149	423448
608.216	439781
608.284	449384
608.352	450384
608.419	445217
608.487	436827
608.555	429324
608.622	444212
608.690	468457
608.757	511479
608.825	516421
608.893	505245
608.960	479260
609.028	461285
609.095	462594
609.163	458944
609.230	411702
609.298	385985
609.365	409247
609.432	436031
609.500	468414
609.567	526141
609.635	587817
609.702	604458
609.769	574822
609.837	460162
609.904	415213
609.971	427977
610.039	461195
610.106	545555
610.173	818535
610.241	1225791
610.308	931042
610.375	543914
610.442	465656
610.509	438804
610.577	434972
610.644	438438
610.711	453954
610.778	460019
610.845	478006
610.912	502237
610.980	521138
611.047	517136
611.114	508007
611.181	496408
611.248	499016
611.315	521245
611.382	532912
611.449	552253
611.516	556234
611.583	548708
611.650	551445
611.717	559594
611.784	569496
611.851	587459
611.918	611478
611.984	678710
612.051	824439
612.118	1138062
612.185	1524708
612.252	1277406
612.319	880269
612.386	732777
612.452	661750
612.519	626148
612.586	609015
612.653	615102
612.719	632143
612.786	608036
612.853	574133
612.919	565385
612.986	571470
613.053	541186
613.120	517675
613.186	503286
613.253	503859
613.319	503208
613.386	507907
613.453	515416
613.519	514459
613.586	502804
613.652	512762
613.719	507450
613.785	514820
613.852	521056
613.918	516256
613.985	519441
614.051	538447
614.118	532432
614.184	514156
614.250	518385
614.317	523926
614.383	518300
614.449	528719
614.516	524211
614.582	525859
614.648	519024
614.715	513816
614.781	504223
614.847	506042
614.914	503827
614.980	490464
615.046	495409
615.112	507367
615.179	509235
615.245	513759
615.311	505594
615.377	517323
615.443	520035
615.509	527176
615.575	541696
615.642	539086
615.708	552154
615.774	575883
615.840	599720
615.906	626773
615.972	706449
616.038	898666
616.104	1247346
616.170	1601099
616.236	1451634
616.302	1058691
616.368	914765
616.434	730282
616.500	660977
616.565	711361
616.631	831601
616.697	736565
616.763	734731
616.829	945731
616.895	1279017
616.961	1206704
617.026	832465
617.092	628374
617.158	573286
617.224	542336
617.289	505674
617.355	484400
617.421	476242
617.487	473653
617.552	453162
617.618	450078
617.684	448816
617.749	453143
617.815	435399
617.880	424745
617.946	426908
618.012	435219
618.077	442339
618.143	422773
618.208	428452
618.274	455655
618.339	450549
618.405	386019
618.470	390548
618.536	386413
618.601	379729
618.667	356728
618.732	340808
618.798	338153
618.863	336906
618.928	336256
618.994	338698
619.059	334219
619.124	336891
619.190	333950
619.255	330379
619.320	333366
619.386	337381
619.451	332559
619.516	323608
619.581	329176
619.647	339643
619.712	337317
619.777	324046
619.842	327092
619.907	335035
619.972	336771
620.038	335676
620.103	329329
620.168	329849
620.233	334853
620.298	334710
620.363	337965
620.428	347189
620.493	354554
620.558	356587
620.623	363483
620.688	359806
620.753	356770
620.818	363429
620.883	363669
620.948	363966
621.013	358036
621.078	353388
621.143	358902
621.207	362068
621.272	357082
621.337	346796
621.402	342654
621.467	340884
621.532	340535
621.596	344784
621.661	334626
621.726	332151
621.791	334667
621.855	334168
621.920	332995
621.985	337234
622.049	343263
622.114	343626
622.179	347012
622.243	352774
622.308	365350
622.373	375046
622.437	367712
622.502	350255
622.566	347081
622.631	346540
622.695	354123
622.760	351986
622.824	351157
622.889	351996
622.953	354078
623.018	370860
623.082	373409
623.147	370634
623.211	360984
623.276	362906
623.340	349979
623.404	344557
623.469	343834
623.533	347265
623.597	339987
623.662	337531
623.726	318957
623.790	302142
623.854	293495
623.919	299289
623.983	304376
624.047	311512
624.111	312251
624.176	315871
624.240	317968
624.304	326013
624.368	315841
624.432	316863
624.496	322342
624.560	337806
624.625	340607
624.689	337837
624.753	351422
624.817	335525
624.881	330227
624.945	300006
625.009	297565
625.073	298453
625.137	309117
625.201	318943
625.265	319513
625.329	307590
625.393	310241
625.456	314239
625.520	320395
625.584	325013
625.648	332077
625.712	336524
625.776	334185
625.839	314237
625.903	275676
625.967	261495
626.031	277117
626.095	319749
626.158	295613
626.222	242020
626.286	230389
626.349	222920
626.413	209275
626.477	207088
626.540	212960
626.604	209828
626.668	206009
626.731	201601
626.795	204021
626.858	203300
626.922	199044
626.986	197966
627.049	199221
627.113	207035
627.176	199461
627.240	194890
627.303	195259
627.366	192430
627.430	197513
627.493	192587
627.557	189645
627.620	193339
627.684	200811
627.747	201323
627.810	182640
627.874	167755
627.937	163095
628.000	169473
628.064	162238
628.127	147763
628.190	146904
628.253	141445
628.317	138748
628.380	131797
628.443	129022
628.506	124849
628.569	122182
628.632	116621
628.696	116603
628.759	117135
628.822	112000
628.885	108778
628.948	107782
629.011	106024
629.074	103893
629.137	99780
629.200	97848
629.263	97274
629.326	96033
629.389	95497
629.452	95250
629.515	91650
629.578	92016
629.641	93763
629.704	93626
629.767	91577
629.830	90446
629.892	88485
629.955	86606
630.018	89149
630.081	87141
630.144	87555
630.207	84180
630.269	86015
630.332	81640
630.395	82960
630.458	81846
630.520	78074
630.583	80435
630.646	81191
630.708	81988
630.771	83055
630.834	87189
630.896	85863
630.959	84610
631.021	81641
631.084	82419
631.146	82769
631.209	83798
631.272	82395
631.334	86808
631.397	86033
631.459	86011
631.522	90199
631.584	93284
631.646	97742
631.709	100088
631.771	98230
631.834	94868
631.896	91952
631.958	85864
632.021	85625
632.083	82219
632.145	79996
632.208	79225
632.270	80035
632.332	78038
632.395	77914
632.457	78603
632.519	75821
632.581	78006
632.643	74680
632.706	74842
632.768	73017
632.830	77275
632.892	79201
632.954	79216
633.016	79851
633.078	77908
633.141	78286
633.203	77787
633.265	77020
633.327	76225
633.389	77309
633.451	78920
633.513	76452
633.575	80509
633.637	78126
633.698	79735
633.760	85403
633.822	88393
633.884	89957
633.946	93207
634.008	94137
634.070	98142
634.132	101211
634.193	109606
634.255	114983
634.317	117696
634.379	114220
634.441	105916
634.502	98152
634.564	90831
634.626	85194
634.687	81742
634.749	77836
634.811	78057
634.873	76369
634.934	77315
634.996	77050
635.057	76138
635.119	78454
635.181	80494
635.242	81170
635.304	78343
635.365	82386
635.427	80298
635.488	78810
635.550	78522
635.611	79325
635.673	78790
635.734	86404
635.796	89716
635.857	97982
635.918	102764
635.980	112718
636.041	118299
636.102	123131
636.164	123532
636.225	118255
636.286	104752
636.348	95981
636.409	88666
636.470	84109
636.531	81561
636.593	76640
636.654	75058
636.715	72752
636.776	72211
636.838	68351
636.899	69653
636.960	67143
637.021	67697
637.082	64386
637.143	65174
637.204	63466
637.265	63383
637.326	64590
637.387	66956
637.448	62731
637.509	64199
637.570	64340
637.631	63894
637.692	60751
637.753	60120
637.814	59661
637.875	59191
637.936	59598
637.997	60232
638.058	61153
638.119	60188
638.179	59969
638.240	58188
638.301	60092
638.362	57305
638.423	56457
638.483	57552
638.544	55139
638.605	58380
638.666	57732
638.726	57417
638.787	57874
638.848	57224
638.908	55270
638.969	53118
639.030	51264
639.090	52309
639.151	52225
639.211	53893
639.272	54830
639.332	55952
639.393	56086
639.453	59097
639.514	60293
639.574	53766
639.635	50336
639.695	51819
639.756	49233
639.816	50087
639.877	49392
639.937	51234
639.997	50956
640.058	48115
640.118	48478
640.178	51329
640.239	49965
640.299	51571
640.359	51810
640.420	55078
640.480	60951
640.540	68406
640.600	68353
640.661	66128
640.721	67333
640.781	82692
640.841	82927
640.901	55837
640.961	52939
641.021	56067
641.082	56731
641.142	53618
641.202	50701
641.262	47178
641.322	48553
641.382	48054
641.442	48876
641.502	47850
641.562	49186
641.622	50582
641.682	54133
641.742	60992
641.802	55310
641.861	50095
641.921	46949
641.981	45964
642.041	44547
642.101	44638
642.161	42683
642.221	44285
642.280	44527
642.340	45189
642.400	45354
642.460	46322
642.519	46598
642.579	46988
642.639	48031
642.698	46176
642.758	49484
642.818	47958
642.877	46706
642.937	48367
642.997	47083
643.056	48131
643.116	46284
643.175	49759
643.235	50045
643.294	51467
643.354	53258
643.414	56542
643.473	62799
643.532	71953
643.592	90951
643.651	125485
643.711	194013
643.770	340768
643.830	674017
643.889	901273
643.948	392403
644.008	145923
644.067	93456
644.126	71326
644.186	61360
644.245	56462
644.304	50877
644.363	53116
644.423	47873
644.482	49525
644.541	50936
644.600	52896
644.659	63217
644.719	72580
644.778	99946
644.837	156616
644.896	296393
644.955	524887
645.014	194866
645.073	78416
645.132	61580
645.191	56237
645.250	55471
645.309	56847
645.368	62835
645.427	80064
645.486	134997
645.545	199109
645.604	66355
645.663	50861
645.722	49249
645.781	52331
645.840	56656
645.898	64724
645.957	84916
646.016	113715
646.075	181648
646.134	321594
646.192	675695
646.251	736118
646.310	237804
646.369	107568
646.427	86935
646.486	65650
646.545	53321
646.603	49620
646.662	45948
646.721	46074
646.779	43756
646.838	45457
646.896	54059
646.955	67585
647.014	99118
647.072	182635
647.131	405509
647.189	182778
647.248	53515
647.306	42946
647.365	38856
647.423	35363
647.481	37434
647.540	34747
647.598	36218
647.657	35806
647.715	35157
647.773	32809
647.832	33939
647.890	31100
647.948	31296
648.007	30750
648.065	28898
648.123	29012
648.181	30395
648.240	30254
648.298	27693
648.356	27597
648.414	29622
648.472	28387
648.531	28002
648.589	26828
648.647	27634
648.705	28267
648.763	28188
648.821	28634
648.879	29585
648.937	32151
648.995	36516
649.053	42452
649.111	57531
649.169	87652
649.227	146511
649.285	295078
649.343	600614
649.401	293555
649.459	76805
649.516	48347
649.574	37377
649.632	38539
649.690	41230
649.748	51039
649.806	70793
649.863	128007
649.921	315883
649.979	182748
650.037	42834
650.094	28067
650.152	27232
650.210	26256
650.268	28530
650.325	34612
650.383	42686
650.440	24001
650.498	21399
650.556	20682
650.613	20010
650.671	21711
650.728	21061
650.786	22872
650.843	31924
650.901	23071
650.958	19923
651.016	18897
651.073	17380
651.131	17766
651.188	16252
651.246	17244
651.303	16671
651.360	17121
651.418	16484
651.475	17151
651.532	15871
651.590	17609
651.647	15458
651.704	15772
651.762	15193
651.819	15677
651.876	14795
651.933	15179
651.990	16191
652.048	13209
652.105	14635
652.162	15225
652.219	14029
652.276	14786
652.333	13789
652.390	13666
652.448	14485
652.505	13735
652.562	14255
652.619	13944
652.676	13812
652.733	14965
652.790	12792
652.847	13004
652.904	13907
652.961	11598
653.017	12026
653.074	14212
653.131	13381
653.188	12221
653.245	13384
653.302	12891
653.359	13068
653.415	12701
653.472	12162
653.529	14112
653.586	12652
653.642	13732
653.699	14075
653.756	11943
653.813	12619
653.869	13434
653.926	13367
653.983	13517
654.039	13664
654.096	12237
654.152	13070
654.209	11471
654.266	12120
654.322	11372
654.379	13325
654.435	13558
654.492	12300
654.548	13419
654.605	13283
654.661	16260
654.717	13155
654.774	13091
654.830	13220
654.887	13393
654.943	16413
655.000	21776
655.056	15981
655.112	13140
655.168	13216
655.225	12713
655.281	13580
655.337	13359
655.394	12205
655.450	11614
655.506	12627
655.562	12245
655.618	12626
655.675	11407
655.731	12180
655.787	11959
655.843	13261
655.899	12499
655.955	13444
656.011	13395
656.067	12891
656.123	14069
656.179	13770
656.235	15368
656.291	13772
656.347	15156
656.403	13308
656.459	12883
656.515	13230
656.571	13580
656.627	11106
656.683	12715
656.739	11848
656.795	12233
656.850	11988
656.906	11823
656.962	13193
657.018	13562
657.074	16366
657.129	21982
657.185	32915
657.241	71627
657.297	33664
657.352	14076
657.408	11547
657.464	11694
657.519	10483
657.575	9769
657.630	10970
657.686	10250
657.742	10504
657.797	10905
657.853	11135
657.908	12408
657.964	9656
658.019	10664
658.075	11155
658.130	11574
658.186	10214
658.241	10699
658.297	8939
658.352	9334
658.407	10193
658.463	9802
658.518	10240
658.573	10204
658.629	9978
658.684	9851
658.739	9967
658.795	9415
658.850	9862
658.905	9786
658.960	10165
659.016	9148
659.071	9325
659.126	9705
659.181	9591
659.236	9920
659.291	10141
659.346	8157
659.401	9412
659.457	10105
659.512	9563
659.567	11305
659.622	9196
659.677	9008
659.732	8832
659.787	9262
659.842	8704
659.897	9368
659.952	9443
660.007	9888
660.061	9969
660.116	8642
660.171	9016
660.226	9495
660.281	10191
660.336	9367
660.391	10497
660.445	8586
660.500	9308
660.555	9807
660.610	9506
660.664	9277
660.719	9086
660.774	8850
660.828	9879
660.883	8412
660.938	9523
660.992	7911
661.047	8904
661.101	8571
661.156	8953
661.211	9257
661.265	7711
661.320	8010
661.374	8746
661.429	8775
661.483	10143
661.538	9162
661.592	11096
661.647	13056
661.701	19523
661.755	11481
661.810	9418
661.864	8812
661.919	8251
661.973	9055
662.027	8798
662.081	8171
662.136	7819
662.190	8895
662.244	8400
662.299	8793
662.353	9200
662.407	8806
662.461	8104
662.515	8080
662.569	7645
662.624	8467
662.678	7879
662.732	8247
662.786	8085
662.840	9602
662.894	9039
662.948	8034
663.002	8498
663.056	8408
663.110	7870
663.164	8274
663.218	8536
663.272	8857
663.326	8014
663.380	8380
663.434	7911
663.488	7671
663.542	8303
663.595	9417
663.649	8209
663.703	8047
663.757	7203
663.811	7230
663.864	8283
663.918	8569
663.972	7556
664.026	8370
664.079	7926
664.133	8852
664.187	9258
664.240	9994
664.294	9984
664.348	10893
664.401	9590
664.455	8582
664.508	8280
664.562	8271
664.615	8620
664.669	8600
664.722	8277
664.776	7665
664.829	8426
664.883	8653
664.936	8140
664.990	8542
665.043	8652
665.097	7663
665.150	9234
665.203	8434
665.257	8661
665.310	9381
665.363	8624
665.417	9275
665.470	8916
665.523	9104
665.576	9514
665.630	9411
665.683	8587
665.736	9480
665.789	8620
665.842	8865
665.895	8654
665.949	9414
666.002	9312
666.055	8251
666.108	9355
666.161	9537
666.214	10167
666.267	9646
666.320	9262
666.373	9429
666.426	9960
666.479	9550
666.532	9800
666.585	10235
666.638	10287
666.691	9071
666.744	9919
666.796	9778
666.849	9529
666.902	9941
666.955	8931
667.008	9021
667.060	9374
667.113	9541
667.166	10143
667.219	10302
667.271	10799
667.324	9034
667.377	9818
667.430	9052
667.482	9287
667.535	9583
667.587	9572
667.640	9777
667.693	8419
667.745	9320
667.798	9445
667.850	9258
667.903	9354
667.955	10258
668.008	9250
668.060	9105
668.113	10355
668.165	8797
668.218	8759
668.270	9147
668.322	9068
668.375	8561
668.427	8742
668.479	8658
668.532	9692
668.584	8274
668.636	7977
668.689	8698
668.741	8884
668.793	9643
668.845	8888
668.898	9265
668.950	8338
669.002	8408
669.054	8204
669.106	7610
669.158	9182
669.211	8218
669.263	8305
669.315	9194
669.367	7914
669.419	7375
669.471	8437
669.523	8141
669.575	7949
669.627	7163
669.679	7627
669.731	8243
669.783	7819
669.835	8409
669.886	7332
669.938	7501
669.990	8436
670.042	7122
670.094	6991
670.146	7971
670.197	7057
670.249	8117
670.301	6994
670.353	7931
670.404	8209
670.456	7021
670.508	7934
670.560	8689
670.611	8721
670.663	10182
670.715	15544
670.766	17957
670.818	9762
670.869	9817
670.921	9646
670.972	10033
671.024	8585
671.075	8141
671.127	7435
671.178	8913
671.230	10294
671.281	11744
671.333	11895
671.384	14081
671.436	19847
671.487	26277
671.538	37666
671.590	56288
671.641	89879
671.692	155667
671.744	253796
671.795	184727
671.846	86979
671.897	46303
671.949	30462
672.000	22192
672.051	16949
672.102	14882
672.153	12414
672.204	11136
672.256	10864
672.307	9171
672.358	9327
672.409	8926
672.460	7626
672.511	7190
672.562	6105
672.613	6047
672.664	6969
672.715	7412
672.766	6564
672.817	5764
672.868	6192
672.919	5955
672.970	4932
673.021	6232
673.071	4423
673.122	5100
673.173	5608
673.224	5791
673.275	6234
673.326	5416
673.376	5652
673.427	5988
673.478	5321
673.528	5747
673.579	6337
673.630	4954
673.680	6269
673.731	5246
673.782	4983
673.832	5284
673.883	6125
673.934	4942
673.984	6010
674.035	5770
674.085	5372
674.136	6277
674.186	6528
674.237	5337
674.287	5536
674.338	5777
674.388	6230
674.438	6191
674.489	6251
674.539	6365
674.589	6565
674.640	6204
674.690	6573
674.740	5426
674.791	5310
674.841	5308
674.891	5633
674.942	4950
674.992	4787
675.042	4622
675.092	3744
675.142	3880
675.193	4182
675.243	4412
675.293	5372
675.343	5686
675.393	4673
675.443	4804
675.493	3831
675.543	3916
675.593	6008
675.643	5634
675.693	5220
675.743	4892
675.793	3860
675.843	3800
675.893	4348
675.943	4662
675.993	4089
676.043	3553
676.093	4049
676.142	3930
676.192	5022
676.242	4452
676.292	3848
676.341	4251
676.391	3442
676.441	3507
676.491	3395
676.540	3971
676.590	3441
676.640	3232
676.689	3446
676.739	2942
676.789	3558
676.838	2951
676.888	3682
676.937	3663
676.987	3452
677.037	3849
677.086	3007
677.136	3138
677.185	3009
677.235	3372
677.284	3433
677.333	3686
677.383	2948
677.432	3164
677.482	3286
677.531	2912
677.580	3028
677.630	3558
677.679	3250
677.728	3260
677.778	3445
677.827	3464
677.876	3414
677.925	3642
677.975	3778
678.024	4172
678.073	4471
678.122	3314
678.171	3954
678.220	4979
678.269	4936
678.319	5694
678.368	4791
678.417	4494
678.466	4762
678.515	4508
678.564	2908
678.613	2505
678.662	3358
678.711	3275
678.760	3630
678.809	3213
678.857	3987
678.906	4109
678.955	3720
679.004	5600
679.053	7042
679.102	6535
679.151	3823
679.199	2577
679.248	4284
679.297	2597
679.346	2634
679.394	1757
679.443	2892
679.492	3801
679.540	3126
679.589	2992
679.638	3116
679.686	3516
679.735	3826
679.784	4264
679.832	5263
679.881	4236
679.929	3478
679.978	3706
680.026	3369
680.075	3914
680.123	2713
680.172	2380
680.220	3231
680.268	2890
680.317	2665
680.365	2491
680.414	2031
680.462	2248
680.510	2697
680.559	2540
680.607	2925
680.655	3237
680.703	2659
680.752	2159
680.800	2492
680.848	2949
680.896	2179
680.945	3455
680.993	2312
681.041	2200
681.089	2097
681.137	2487
681.185	2715
681.233	2356
681.258	2143
681.281	1901
681.329	1986
681.377	2309
681.380	2383
681.425	3062
681.473	3786
681.502	3537
681.521	3297
681.569	3514
681.617	2966
681.624	3088
681.665	3555
681.713	3016
681.745	3255
681.761	3306
681.809	2870
681.857	3972
681.867	4060
681.904	4222
681.952	4038
681.989	3458
682.000	3235
682.048	4547
682.096	4041
682.111	4053
682.143	3952
682.191	3565
682.233	4466
682.239	4566
682.286	3906
682.334	4145
682.354	4507
682.382	4883
682.430	3935
682.476	3712
682.477	3672
682.525	4882
682.572	3863
682.598	4201
682.620	4433
682.667	4757
682.715	4655
682.720	4677
682.763	4535
682.810	4797
682.841	4963
682.857	4974
682.905	4787
682.952	5456
682.963	5412
683.000	5160
683.047	4620
683.085	5570
683.095	5800
683.142	5573
683.190	5275
683.206	5212
683.237	4967
683.284	5768
683.328	5584
683.332	5544
683.379	5097
683.426	5422
683.449	5526
683.473	5618
683.521	5915
683.568	6300
683.571	6281
683.615	5450
683.662	6610
683.693	6388
683.709	6228
683.757	5910
683.804	5616
683.814	5715
683.851	6024
683.898	5941
683.936	5423
683.945	5272
683.992	6171
684.039	6111
684.057	6414
684.086	6775
684.133	6157
684.179	6157
684.180	6134
684.227	7132
684.274	6532
684.300	6698
684.321	6817
684.368	7039
684.415	7227
684.422	7211
684.462	7032
684.509	6572
684.543	6804
684.556	6876
684.603	7858
684.649	7868
684.665	7868
684.696	7711
684.743	7710
684.786	7842
684.790	7821
684.837	6805
684.883	7647
684.908	7558
684.930	7550
684.977	7461
685.023	8140
685.029	8114
685.070	7725
685.117	8234
685.150	7861
685.164	7687
685.210	8561
685.257	8323
685.272	8598
685.303	9152
685.350	8652
685.393	8371
685.396	8320
685.443	8017
685.490	8467
685.514	8190
685.536	8050
685.583	8374
685.629	8127
685.636	8144
685.675	8183
685.722	8275
685.757	8785
685.768	8890
685.815	8291
685.861	9560
685.878	9153
685.908	8505
685.954	8525
686.000	8918
686.000	8918
686.047	8944
686.093	9268
686.121	9845
686.139	10140
686.185	9752
686.232	10029
686.242	10006
686.278	9886
686.324	9638
686.363	9602
686.370	9587
686.416	9962
686.463	10002
686.484	9939
686.509	9779
686.555	9870
686.601	9321
686.606	9340
686.647	9680
686.693	9845
686.727	10126
686.739	10175
686.785	9770
686.831	9561
686.848	9557
686.877	9695
686.923	10440
686.969	10368
686.969	10367
687.015	10758
687.061	11368
687.090	11445
687.107	11368
687.153	11256
687.199	11437
687.211	11164
687.245	10519
687.291	11159
687.332	11278
687.336	11320
687.382	11482
687.428	12289
687.453	12524
687.474	12761
687.520	13181
687.565	14613
687.574	14653
687.611	16499
687.657	19602
687.695	22497
687.702	23478
687.748	31570
687.794	39186
687.816	40161
687.839	35014
687.885	26781
687.931	19545
687.937	18511
687.976	16386
688.022	14530
688.058	12787
688.067	12782
688.113	11745
688.158	11677
688.179	11904
688.204	12366
688.249	12292
688.295	12088
688.300	12146
688.340	12667
688.386	12340
688.421	12650
688.431	12748
688.477	12859
688.522	13467
688.542	13572
688.567	13750
688.613	14478
688.658	14173
688.663	14163
688.703	13788
688.749	13901
688.784	13743
688.794	13800
688.839	13813
688.884	14431
688.905	14433
688.930	14353
688.975	14362
689.020	14302
689.026	14269
689.065	14621
689.110	15438
689.146	16227
689.155	16534
689.201	17905
689.246	18384
689.267	18916
689.291	18073
689.336	16014
689.381	14204
689.388	13910
689.426	14038
689.471	14259
689.509	14351
689.516	14354
689.561	14264
689.606	14011
689.630	13843
689.651	13803
689.696	13822
689.741	14190
689.750	14163
689.785	14318
689.830	14575
689.871	14790
689.875	14780
689.920	14792
689.965	14567
689.992	14192
690.010	14018
690.054	13662
690.099	13675
690.112	13552
690.144	13468
690.189	13929
690.233	13383
690.233	13399
690.278	13781
690.323	14306
690.354	14502
690.367	14578
690.412	14277
690.457	14355
690.474	14477
690.501	14444
690.546	13913
690.590	13610
690.595	13524
690.635	13476
690.680	13459
690.716	13628
690.724	13667
690.769	14218
690.813	14282
690.836	14036
690.857	14019
690.902	14510
690.946	14964
690.957	15005
690.991	14993
691.035	15189
691.077	15036
691.080	15051
691.124	15279
691.168	15261
691.198	15130
691.213	15077
691.257	15486
691.301	15204
691.318	15146
691.346	15112
691.390	15466
691.434	15011
691.439	15000
691.478	15265
691.522	15281
691.559	15091
691.567	15109
691.611	15460
691.655	15969
691.680	16044
691.699	16015
691.743	16067
691.787	15734
691.800	15654
691.831	15798
691.875	15970
691.919	16318
691.921	16295
691.964	16184
692.008	16259
692.041	16024
692.052	16028
692.096	15833
692.139	16016
692.162	15975
692.183	15888
692.227	15861
692.271	15440
692.282	15363
692.315	15473
692.359	15848
692.402	16012
692.403	16042
692.447	16114
692.490	15642
692.523	15783
692.534	15931
692.578	15865
692.622	15993
692.643	15972
692.666	15911
692.709	16119
692.753	15846
692.763	15810
692.797	15954
692.840	15994
692.884	16132
692.884	16167
692.928	16094
692.971	16675
693.004	16751
693.015	16647
693.059	16490
693.102	16100
693.124	15761
693.146	15872
693.189	16122
693.233	16648
693.245	16656
693.276	16303
693.320	15998
693.363	15724
693.365	15667
693.407	15714
693.450	16219
693.485	16270
693.493	16271
693.537	16567
693.580	16338
693.605	16554
693.624	16649
693.667	16165
693.710	15867
693.725	15757
693.753	15846
693.797	15996
693.840	15928
693.845	15901
693.883	15807
693.926	15618
693.966	15356
693.970	15440
694.013	15901
694.056	16796
694.086	16960
694.099	16927
694.142	16916
694.185	17253
694.206	17249
694.229	17408
694.272	17542
694.315	17700
694.326	17734
694.358	17738
694.401	17383
694.444	17327
694.446	17283
694.487	17288
694.530	17218
694.566	17007
694.573	17080
694.616	17170
694.659	17797
694.686	17886
694.702	18016
694.745	18334
694.787	18894
694.806	18860
694.830	18571
694.873	18560
694.916	18187
694.926	18118
694.959	18710
695.002	19201
695.044	19734
695.046	19716
695.087	20061
695.130	20124
695.166	20252
695.172	20298
695.215	20251
695.258	20171
695.286	20059
695.301	20327
695.343	21184
695.386	21914
695.406	22171
695.428	23121
695.471	24966
695.514	26865
695.526	27344
695.556	28951
695.599	31180
695.641	33011
695.646	33171
695.684	31592
695.726	29725
695.766	27706
695.769	27692
695.811	26743
695.854	25730
695.886	25125
695.896	25410
695.938	25729
695.981	26644
696.005	26925
696.023	27836
696.065	30024
696.108	32260
696.125	33005
696.150	33197
696.192	33455
696.235	33908
696.245	33897
696.277	34026
696.319	34090
696.361	34324
696.365	34240
696.404	33656
696.446	33207
696.485	32521
696.488	32585
696.530	32438
696.572	32236
696.604	32007
696.614	32073
696.656	32249
696.698	32192
696.724	32089
696.740	32257
696.783	32484
696.825	32911
696.844	32931
696.867	33132
696.909	33444
696.951	33637
696.964	33662
696.992	33998
697.034	34255
697.076	34567
697.083	34538
697.118	35520
697.160	36604
697.202	37560
697.203	37498
697.244	37182
697.286	36643
697.323	36114
697.327	36234
697.369	36503
697.411	36829
697.442	36968
697.453	37053
697.494	36933
697.536	36766
697.562	36683
697.578	36817
697.620	36891
697.661	36881
697.682	36798
697.703	37537
697.744	38811
697.786	40218
697.801	40564
697.828	40416
697.869	40098
697.911	39748
697.921	39559
697.952	39317
697.994	38892
698.035	38442
698.040	38298
698.077	38804
698.118	39223
698.160	39647
698.160	39549
698.201	41012
698.243	42459
698.279	43658
698.284	43821
698.325	44275
698.367	44716
698.399	44951
698.408	45236
698.449	46053
698.491	46826
698.518	47221
698.532	47273
698.573	47074
698.614	46893
698.638	46662
698.656	46842
698.697	46984
698.738	47108
698.757	47050
698.779	46916
698.820	46437
698.862	45944
698.877	45644
698.903	45767
698.944	45782
698.985	45787
698.996	45675
699.026	45797
699.067	45801
699.116	45692
699.235	45845
699.354	44459
699.474	42486
699.593	41715
699.713	42636
699.832	43529
699.951	46427
700.070	44110
700.190	40559
700.309	39493
700.428	39454
700.547	36779
700.667	38701
700.786	38016
700.905	36806
701.024	37703
701.143	36906
701.262	39675
701.381	39688
701.500	39931
701.619	37683
701.738	39966
701.857	38211
701.976	36265
702.095	38385
702.214	39340
702.333	37506
702.452	40225
702.571	39945
702.690	39280
702.809	39419
702.928	37120
703.047	34611
703.165	36360
703.284	35769
703.403	34274
703.522	34610
703.640	32776
703.759	31633
703.878	31751
703.997	33278
704.115	34615
704.234	33969
704.353	34804
704.471	30551
704.590	31570
704.708	31770
704.827	29989
704.946	30136
705.064	31346
705.183	29808
705.301	30784
705.420	29865
705.538	29803
705.656	27300
705.775	27515
705.893	29108
706.012	28659
706.130	27761
706.249	28905
706.367	27234
706.485	28305
706.604	27717
706.722	30752
706.840	46749
706.958	99670
707.077	52853
707.195	28169
707.313	26047
707.431	23794
707.549	23935
707.668	22406
707.786	26504
707.904	24206
708.022	26666
708.140	23969
708.258	23349
708.376	25368
708.494	22818
708.612	26121
708.730	24513
708.848	24607
708.966	25160
709.084	24904
709.202	23915
709.320	22254
709.438	23383
709.556	22231
709.674	20746
709.791	21228
709.909	20902
710.027	21107
710.145	20731
710.263	20433
710.380	20043
710.498	20703
710.616	19921
710.733	19147
710.851	19356
710.969	19186
711.086	19014
711.204	19598
711.322	20006
711.439	19237
711.557	17854
711.674	19525
711.792	19113
711.909	17724
712.027	17468
712.144	18270
712.262	18231
712.379	18005
712.497	17466
712.614	18025
712.732	18582
712.849	16567
712.966	19489
713.084	18608
713.201	16657
713.318	19366
713.436	20858
713.553	19025
713.670	21686
713.787	21152
713.905	20125
714.022	21741
714.139	24613
714.256	31435
714.373	48895
714.490	92266
714.608	252206
714.725	811403
714.842	616810
714.959	100675
715.076	41975
715.193	30602
715.310	26044
715.427	19573
715.544	20463
715.661	20050
715.778	17583
715.895	17853
716.011	17951
716.128	17360
716.245	17109
716.362	15208
716.479	14157
716.596	16997
716.713	17962
716.829	16456
716.946	14515
717.063	14155
717.180	12952
717.296	13520
717.413	13411
717.530	13487
717.646	12229
717.763	13630
717.880	12594
717.996	11910
718.113	12634
718.229	12876
718.346	12725
718.462	11558
718.579	13402
718.695	12587
718.812	12971
718.928	12399
719.045	12252
719.161	12880
719.277	13735
719.394	13823
719.510	13919
719.626	16981
719.743	21619
719.859	39261
719.975	88109
720.092	339193
720.208	542332
720.324	76551
720.440	24892
720.557	17113
720.673	15305
720.789	13540
720.905	13096
721.021	13034
721.137	11769
721.253	10998
721.369	10946
721.486	11419
721.602	10698
721.718	10229
721.834	12275
721.950	10441
722.066	10744
722.181	10496
722.297	10763
722.413	10428
722.529	11087
722.645	10378
722.761	10228
722.877	11378
722.993	14292
723.108	18939
723.224	16223
723.340	12106
723.456	11172
723.571	9035
723.687	8774
723.803	10804
723.918	9421
724.034	9440
724.150	9023
724.265	9401
724.381	8823
724.497	9179
724.612	9384
724.728	9209
724.843	9245
724.959	9742
725.074	9344
725.190	9057
725.305	8755
725.421	8565
725.536	9847
725.651	9743
725.767	8976
725.882	8788
725.997	9034
726.113	10088
726.228	8705
726.343	8984
726.459	8757
726.574	9412
726.689	8678
726.804	9056
726.920	8458
727.035	9446
727.150	8750
727.265	7748
727.380	8867
727.495	8546
727.610	8564
727.725	8130
727.841	8464
727.956	9561
728.071	8625
728.186	8608
728.301	7974
728.416	9395
728.531	8642
728.645	8276
728.760	8240
728.875	8914
728.990	8324
729.105	8099
729.220	8173
729.335	9439
729.449	9091
729.564	8678
729.679	8349
729.794	8900
729.908	8556
730.023	9082
730.138	9631
730.253	10447
730.367	9225
730.482	8467
730.596	11028
730.711	13664
730.826	27064
730.940	30956
731.055	14519
731.169	13368
731.284	13624
731.398	14482
731.513	15655
731.627	17617
731.742	23378
731.856	30005
731.970	32449
732.085	43125
732.199	66943
732.313	123145
732.428	307533
732.542	661063
732.656	332046
732.771	91129
732.885	49700
732.999	40628
733.113	39054
733.227	37239
733.342	33238
733.456	31930
733.570	30286
733.684	29206
733.798	27153
733.912	28259
734.026	28008
734.140	27397
734.254	24919
734.368	26154
734.482	25681
734.596	26405
734.710	24311
734.824	24300
734.938	24393
735.052	26590
735.166	23790
735.280	23568
735.393	24552
735.507	23160
735.621	22600
735.735	22313
735.849	23815
735.962	20664
736.076	23322
736.190	22116
736.303	22642
736.417	21721
736.531	20403
736.644	21258
736.758	20473
736.872	19736
736.985	21223
737.099	19984
737.212	21416
737.326	19533
737.439	20433
737.553	19039
737.666	20097
737.780	17919
737.893	20729
738.007	18418
738.120	20275
738.233	17519
738.347	18886
738.460	17202
738.573	21096
738.687	18239
738.800	19039
738.913	20107
739.026	17502
739.140	17802
739.253	18793
739.366	18243
739.479	17980
739.592	18661
739.705	15707
739.818	19210
739.932	15594
740.045	18481
740.158	16821
740.271	18488
740.384	16101
740.497	15495
740.610	17597
740.723	16572
740.836	15939
740.949	16437
741.062	18726
741.174	14399
741.287	16286
741.400	16201
741.513	13610
741.626	16111
741.739	14197
741.851	15171
741.964	16059
742.077	14764
742.189	14279
742.302	16792
742.415	14990
742.527	14456
742.640	14224
742.753	12790
742.865	15563
742.978	13816
743.090	13194
743.203	13885
743.316	13785
743.428	14508
743.541	13941
743.653	11664
743.766	13396
743.878	13823
743.990	12832
744.103	16367
744.215	16005
744.327	12635
744.440	15841
744.552	11895
744.664	12133
744.777	15615
744.889	12859
745.001	12209
745.113	13305
745.226	11928
745.338	12098
745.450	14006
745.562	11935
745.674	10940
745.786	14788
745.898	11518
746.010	12061
746.122	12985
746.234	12583
746.347	12842
746.459	12437
746.570	10351
746.682	16049
746.794	19483
746.906	10959
747.018	12524
747.130	12415
747.242	10572
747.354	10915
747.466	11964
747.577	10327
747.689	12091
747.801	11646
747.913	10187
748.024	10250
748.136	10120
748.248	10901
748.359	10589
748.471	11036
748.583	9231
748.694	9442
748.806	10347
748.918	10133
749.029	10632
749.141	10952
749.252	10618
749.364	9775
749.475	8867
749.587	8487
749.698	9543
749.809	10418
749.921	9411
750.032	9948
750.144	9202
750.255	8815
750.366	9604
750.478	8962
750.589	9240
750.700	8275
750.811	10055
750.923	8773
751.034	8034
751.145	10262
751.256	7879
751.367	7973
751.479	8574
751.590	9084
751.701	7775
751.812	7310
751.923	7779
752.034	10748
752.145	8896
752.256	10156
752.367	8768
752.478	9228
752.589	8294
752.700	8503
752.811	8176
752.922	8959
753.032	9755
753.143	9492
753.254	8655
753.365	10790
753.476	9789
753.586	8228
753.697	8218
753.808	8234
753.919	7666
754.029	8162
754.140	6542
754.251	7339
754.361	8555
754.472	8202
754.582	7526
754.693	8686
754.804	9476
754.914	7213
755.025	6610
755.135	7724
755.246	9210
755.356	6548
755.466	7582
755.577	6705
755.687	7480
755.798	7206
755.908	6595
756.018	7582
756.129	7994
756.239	8146
756.349	8036
756.460	8589
756.570	9046
756.680	8358
756.790	7751
756.900	7745
757.011	7143
757.121	7304
757.231	7112
757.341	7478
757.451	7028
757.561	6695
757.671	7359
757.781	6895
757.891	7900
758.001	6540
758.111	8012
758.221	9429
758.331	9050
758.441	8231
758.551	7982
758.661	9678
758.771	9610
758.880	8506
758.990	8348
759.100	7633
759.210	8058
759.320	7980
759.429	8441
759.539	10266
759.649	10425
759.758	12128
759.868	12966
759.978	12854
760.087	13799
760.197	13968
760.307	13483
760.416	12840
760.526	10865
760.635	11768
760.745	13472
760.854	14534
760.964	16803
761.073	15769
761.182	15185
761.292	12373
761.401	10040
761.511	9700
761.620	9034
761.729	8767
761.839	6526
761.948	7749
762.057	8615
762.166	7790
762.276	6222
762.385	7728
762.494	7443
762.603	7157
762.712	6979
762.822	6540
762.931	6131
763.040	5144
763.149	6008
763.258	5412
763.367	6275
763.476	6248
763.585	6347
763.694	5825
763.803	5647
763.912	6210
764.021	5439
764.130	4966
764.238	5232
764.347	6996
764.456	7096
764.565	5857
764.674	4699
764.783	5646
764.891	4465
765.000	5568
765.109	5377
765.217	4158
765.326	3964
765.435	4906
765.543	5784
765.652	4968
765.761	4485
765.869	4289
765.978	4317
766.086	6439
766.195	6079
766.303	11006
766.412	30702
766.520	20842
766.629	5242
766.737	5544
766.846	5432
766.954	4204
767.062	5739
767.171	5693
767.279	6840
767.387	5132
767.496	5433
767.604	4604
767.712	5362
767.820	4100
767.928	4338
768.037	4623
768.145	5575
768.253	4984
768.361	4465
768.469	4375
768.577	4392
768.685	5358
768.793	4355
768.901	5162
769.009	5266
769.117	5281
769.225	4782
769.333	5109
769.441	6103
769.549	5542
769.657	6442
769.765	11784
769.873	23038
769.981	7791
770.088	4760
770.196	5376
770.304	7080
770.412	6338
770.519	5869
770.627	7125
770.735	6006
770.842	6883
770.950	7302
771.058	7492
771.165	10136
771.273	10665
771.380	11000
771.488	16135
771.595	18110
771.703	15446
771.810	13772
771.918	15565
772.025	19907
772.133	20540
772.240	19240
772.348	23408
772.455	21350
772.562	19879
772.670	18323
772.777	19623
772.884	19523
772.991	17740
773.099	20208
773.206	18479
773.313	18941
773.420	18033
773.528	18569
773.635	17310
773.742	19564
773.849	17528
773.956	18065
774.063	17683
774.170	18321
774.277	18724
774.384	16153
774.491	16801
774.598	17105
774.705	16778
774.812	16858
774.919	16248
775.026	16647
775.133	16472
775.239	16186
775.346	15826
775.453	15457
775.560	14885
775.667	16177
775.773	15252
775.880	15642
775.987	15182
776.093	16847
776.200	17506
776.307	12687
776.413	14488
776.520	17921
776.627	14688
776.733	13786
776.840	13135
776.946	19563
777.053	19560
777.159	24097
777.266	17700
777.372	21981
777.478	22143
777.585	16154
777.691	11638
777.798	16281
777.904	12800
778.010	12559
778.117	13308
778.223	13315
778.329	12900
778.435	11975
778.542	14245
778.648	12215
778.754	11624
778.860	11919
778.966	12778
779.072	12176
779.178	12449
779.284	10899
779.391	12329
779.497	12528
779.603	13612
779.708	9713
779.815	10425
779.920	12708
780.026	9996
780.132	11990
780.238	11087
780.344	10567
780.450	14526
780.556	9043
780.661	10868
780.767	12423
780.873	7533
780.979	10799
781.085	12752
781.190	11366
781.296	9470
781.402	11676
781.507	11315
781.613	8791
781.719	10858
781.824	11795
781.930	9792
782.035	11146
782.141	11990
782.246	7548
782.352	9832
782.457	10755
782.563	10112
782.668	9859
782.773	9241
782.879	8456
782.984	9954
783.090	8875
783.195	10751
783.300	11761
783.405	8866
783.511	7665
783.616	9110
783.721	9516
783.826	8346
783.932	8105
784.037	9681
784.142	8748
784.247	8662
784.352	8970
784.457	6694
784.562	9374
784.667	8933
784.772	7663
784.877	6187
784.982	9485
785.087	8807
785.192	6898
785.297	8078
785.402	9410
785.507	8364
785.611	8093
785.716	7192
785.821	8112
785.926	8934
786.031	6646
786.135	7644
786.240	8289
786.345	6034
786.450	7148
786.554	7006
786.659	6185
786.763	6697
786.868	7712
786.973	8942
787.077	6099
787.182	6068
787.286	8466
787.391	9297
787.495	5059
787.600	5162
787.704	6469
787.809	7923
787.913	6033
788.017	7605
788.122	7724
788.226	6422
788.330	4712
788.435	7269
788.539	8227
788.643	6343
788.747	4118
788.852	6694
788.956	5249
789.060	8386
789.164	7318
789.268	6438
789.372	8348
789.476	5637
789.580	4646
789.684	5841
789.788	6887
789.892	6467
789.996	5016
790.100	4447
790.204	6579
790.308	6909
790.412	4463
790.516	4640
790.620	5471
790.724	7484
790.828	5663
790.931	3778
791.035	6343
791.139	4428
791.242	6314
791.346	5831
791.450	5628
791.554	4238
791.657	2732
791.761	6194
791.864	6242
791.968	7496
792.072	5918
792.175	4694
792.279	4759
792.382	4853
792.486	4418
792.589	5174
792.693	6458
792.796	5166
792.899	5834
793.003	5994
793.106	3225
793.209	4698
793.313	4463
793.416	2958
793.519	4472
793.623	8035
793.726	5872
793.829	3641
793.932	3451
794.035	3383
794.138	6946
794.242	6547
794.345	3172
794.448	4365
794.551	3489
794.654	6374
794.757	5212
794.860	4420
794.963	5095
795.066	4247
795.169	6086
795.272	3505
795.375	4629
795.477	2975
795.580	4541
795.683	3204
795.786	4788
795.889	3693
795.991	4046
796.094	4972
796.197	2560
796.300	6826
796.402	5291
796.505	3551
796.608	3263
796.710	4626
796.813	5016
796.915	4907
797.018	5525
797.120	5580
797.223	3395
797.326	6108
797.428	3218
797.530	3725
797.633	3570
797.735	5772
797.838	5122
797.940	6224
798.042	4499
798.145	3061
798.247	4714
798.349	1869
798.452	4333
798.554	4909
798.656	5073
798.758	6274
798.860	4837
798.962	3708
799.065	3481
799.167	2875
799.269	5397
799.371	5835
799.473	7716
799.575	5110
799.677	3788
799.779	5471
799.881	2868
799.983	4549
800.085	4333
800.187	4601
800.289	2213
800.390	3236
800.492	6030
800.594	5331
800.696	2416
800.798	3908
800.899	3382
801.001	3790
801.103	3734
801.205	3998
801.306	5575
801.408	3407
801.509	5025
801.611	3943
801.713	4439
801.814	2750
801.916	2657
802.017	2714
802.119	3052
802.220	4290
802.322	3028
802.423	4380
802.525	826
802.626	4016
802.727	4397
802.829	3419
802.930	166
803.031	4317
803.133	4005
803.234	4663
803.335	3204
803.436	1731
803.538	2439
803.639	1810
803.740	5243
803.841	2643
803.942	4314
804.043	3830
804.144	1840
804.245	3198
804.346	3338
804.447	2718
804.548	2808
804.649	4327
804.750	2294
804.851	2995
804.952	2631
805.053	2800
805.154	2290
805.255	4227
805.355	2376
805.456	3164
805.557	2573
805.658	1877
805.758	3762
805.859	2367
805.960	2710
806.061	1927
806.161	2384
806.262	2470
806.362	1709
806.463	2315
806.564	4212
806.664	3577
806.765	2454
806.865	2102
806.966	1756
807.066	1912
807.166	3140
807.267	3191
807.367	2531
807.468	2295
807.568	1354
807.668	2623
807.769	4508
807.869	2034
807.969	2840
808.069	1769
808.170	2545
808.270	2314
808.370	3471
808.470	2957
808.570	1930
808.670	2418
808.770	2620
808.870	2695
808.970	2433
809.070	1991
809.170	1401
809.271	3515
809.370	2500
809.470	2826
809.570	2023
809.670	1274
809.770	2793
809.870	3315
809.970	2823
810.070	2837
810.169	2473
810.269	1352
810.369	4151
810.469	3045
810.568	2186
810.668	1865
810.768	2294
810.867	2284
810.967	1829
811.066	2060
811.166	2571
811.265	3476
811.365	1516
811.464	2081
811.564	2991
811.663	2624
811.763	1684
811.862	2591
811.962	3195
812.061	2661
812.160	1961
812.260	2257
812.359	2620
812.458	1394
812.557	3380
812.657	1619
812.756	2614
812.855	2761
812.954	2051
813.053	2089
813.153	2072
813.252	1905
813.351	2937
813.450	3142
813.549	1736
813.648	2853
813.747	1847
813.846	3505
813.945	2821
814.044	2911
814.143	2879
814.242	3686
814.341	2716
814.439	2879
814.538	3807
814.637	3678
814.736	2977
814.835	4080
814.933	3464
815.032	6196
815.131	7760
815.229	13384
815.328	18003
815.427	14275
815.525	11826
815.624	12089
815.722	11383
815.821	12067
815.919	12603
816.018	11166
816.116	12488
816.215	11657
816.313	13806
816.412	16068
816.510	15635
816.609	17309
816.707	18079
816.805	15701
816.904	15966
817.002	15108
817.100	15968
817.198	18304
817.296	14860
817.395	15875
817.493	15275
817.591	14026
817.689	14414
817.787	14739
817.885	13124
817.983	12876
818.081	13784
818.179	14186
818.277	17819
818.375	14999
818.473	14950
818.571	12597
818.669	15584
818.767	16066
818.865	12147
818.963	11021
819.061	13553
819.158	12182
819.256	15691
819.354	12409
819.452	16918
819.549	14368
819.647	15019
819.745	12069
819.842	11825
819.940	12883
820.038	10824
820.135	9509
820.233	13423
820.330	11483
820.428	10571
820.525	12720
820.623	10488
820.720	10557
820.818	11681
820.915	11869
821.012	10738
821.110	9938
821.207	11389
821.304	9922
821.402	11888
821.499	13895
821.596	11160
821.693	11346
821.791	10460
821.888	10234
821.985	12439
822.082	9003
822.179	12703
822.276	12001
822.373	8958
822.470	10174
822.567	10462
822.664	8212
822.761	9613
822.858	10317
822.955	8871
823.052	8914
823.149	10341
823.246	10448
823.343	6810
823.440	8505
823.536	10330
823.633	8671
823.730	7668
823.827	10347
823.923	9405
824.020	8843
824.117	11659
824.213	9852
824.310	8389
824.407	7835
824.503	9741
824.600	8120
824.696	7575
824.793	10189
824.889	9963
824.986	7544
825.082	5671
825.179	6908
825.275	10566
825.371	10238
825.468	6574
825.564	5405
825.660	8854
825.757	10982
825.853	8165
825.949	5952
826.045	6360
826.142	8144
826.238	8420
826.334	8374
826.430	7678
826.526	5159
826.622	5681
826.718	9310
826.814	9466
826.910	7733
827.006	4117
827.102	5060
827.198	8390
827.294	9286
827.390	7114
827.486	6174
827.582	3944
827.678	6480
827.774	9466
827.869	5277
827.965	6686
828.061	5551
828.157	8874
828.252	7658
828.348	5728
828.444	5533
828.539	5870
828.635	7238
828.731	7119
828.826	5287
828.922	6827
829.017	8413
829.113	8337
829.208	5177
829.304	7021
829.399	9630
829.495	7428
829.590	5785
829.685	6744
829.781	7657
829.876	7190
829.971	3822
830.066	3766
830.162	7300
830.257	9797
830.352	5897
830.447	4541
830.543	5394
830.638	6010
830.733	8401
830.828	5406
830.923	6386
831.018	6889
831.113	8405
831.208	3612
831.303	3621
831.398	3962
831.493	6792
831.588	8771
831.683	5869
831.778	3444
831.873	4996
831.967	7409
832.062	6839
832.157	5193
832.252	5027
832.346	5329
832.441	6682
832.536	5305
832.631	5788
832.725	4637
832.820	5057
832.914	4514
833.009	4159
833.104	4126
833.198	4550
833.293	4988
833.387	7439
833.482	5755
833.576	5421
833.670	5830
833.765	5970
833.859	6758
833.954	5882
834.048	5126
834.142	5024
834.237	3353
834.331	4617
834.425	5480
834.519	4194
834.613	4460
834.708	4634
834.802	4323
834.896	5219
834.990	5328
835.084	3871
835.178	2839
835.272	3935
835.366	5467
835.460	6146
835.554	4559
835.648	4006
835.742	2353
835.836	3666
835.930	3233
836.024	4051
836.117	4850
836.211	4279
836.305	4037
836.399	3212
836.493	3036
836.586	5256
836.680	3875
836.774	3099
836.867	3391
836.961	3386
837.055	2864
837.148	3083
837.242	3112
837.335	4202
837.429	3456
837.522	3654
837.616	2298
837.709	3856
837.803	3031
837.896	5018
837.989	4151
838.083	2879
838.176	2028
838.269	2095
838.363	3278
838.456	3215
838.549	4019
838.642	2608
838.735	3009
838.829	4208
838.922	2673
839.015	3602
839.108	2455
839.201	3133
839.294	3878
839.387	3665
839.480	1993
839.573	2905
839.666	2266
839.759	3409
839.852	1863
839.945	3711
840.038	3415
840.131	2813
840.223	2560
840.316	3123
840.409	3785
840.502	3420
840.594	4220
840.687	795
840.780	1184
840.873	2210
840.965	2127
841.058	3562
841.150	3709
841.243	2035
841.336	3388
841.428	2235
841.521	2458
841.613	2334
841.706	3285
841.798	2559
841.890	2922
841.983	1714
842.075	3540
842.167	2631
842.260	3389
842.352	4579
842.444	2504
842.537	1783
842.629	1559
842.721	1913
842.813	3436
842.905	1811
842.997	2890
843.090	2907
843.182	2181
843.274	1361
843.366	2852
843.458	3595
843.550	3895
843.642	2713
843.734	3288
843.826	1526
843.918	1764
844.009	2644
844.101	2011
844.193	2610
844.285	2849
844.377	3950
844.469	4125
844.560	3059
844.652	3174
844.744	2954
844.835	1807
844.927	2717
845.019	2625
845.110	2774
845.202	3882
845.293	1686
845.385	1227
845.476	2987
845.568	2836
845.659	1218
845.751	2839
845.842	2472
845.934	2409
846.025	1657
846.116	3345
846.208	2493
846.299	987
846.390	1540
846.482	1789
846.573	2077
846.664	1440
846.755	1648
846.846	1898
846.937	508
847.029	1213
847.120	1150
847.211	2727
847.302	2668
847.393	1951
847.484	2526
847.575	1042
847.666	572
847.757	2286
847.847	1751
847.938	2759
848.029	3341
848.120	1689
848.211	1681
848.302	1822
848.392	1498
848.483	2130
848.574	2873
848.664	2006
848.755	2242
848.846	1111
848.936	1419
849.027	2821
849.118	2645
849.208	2201
849.299	4132
849.389	8527
849.480	14916
849.570	26088
849.661	50080
849.751	66886
849.841	25180
849.932	6723
850.022	3530
850.112	3764
850.203	2747
850.293	2131
850.383	1532
850.474	1557
850.564	1242
850.654	1508
850.744	1791
850.834	1996
850.924	3344
851.014	2999
851.104	2627
851.194	1512
851.284	1684
851.374	1632
851.464	1164
851.554	1902
851.644	2320
851.734	2362
851.824	2483
851.914	1629
852.004	3087
852.094	974
852.183	1503
852.273	1449
852.363	1021
852.452	2540
852.542	2240
852.632	1614
852.721	1859
852.811	2590
852.901	3363
852.990	3452
853.080	4014
853.169	3642
853.259	3622
853.348	4225
853.438	5395
853.527	8352
853.617	10469
853.706	17218
853.795	30300
853.885	55023
853.974	90252
854.063	147573
854.152	165069
854.242	80444
854.331	31678
854.420	15977
854.509	10722
854.598	7895
854.687	6860
854.777	5766
854.866	4418
854.955	4525
855.044	2047
855.133	2345
855.222	2859
855.311	2341
855.400	2782
855.488	2038
855.577	1975
855.666	2245
855.755	2073
855.844	2002
855.933	1837
856.021	1333
856.110	1929
856.199	622
856.288	236
856.376	1350
856.465	1141
856.554	2049
856.642	2790
856.731	2722
856.819	2534
856.908	1667
856.996	2722
857.085	1089
857.173	779
857.262	1416
857.350	790
857.438	1785
857.527	1683
857.615	1513
857.703	2328
857.792	1535
857.880	257
857.968	806
858.056	1018
858.145	1881
858.233	1022
858.321	1235
858.409	1710
858.497	1909
858.585	1235
858.673	1935
858.761	238
858.849	1131
858.937	843
859.025	1851
859.113	2389
859.201	1222
859.289	2562
859.377	1554
859.465	1330
859.552	573
859.640	1192
859.728	2342
859.816	1767
859.903	1176
859.991	1294
860.079	1724
860.166	2421
860.254	1739
860.342	1822
860.429	2005
860.517	1471
860.604	1929
860.692	1324
860.779	594
860.867	1211
860.954	1053
861.042	2343
861.129	2659
861.216	2022
861.304	1757
861.391	2771
861.478	2091
861.565	2131
861.653	1814
861.740	1019
861.827	732
861.914	1027
862.001	837
862.089	2408
862.176	1847
862.263	1077
862.350	2392
862.437	1617
862.524	1145
862.611	2194
862.698	2331
862.785	3471
862.871	3069
862.958	2622
863.045	2448
863.132	2654
863.219	2386
863.306	1143
863.392	949
863.479	1529
863.566	1953
863.652	2947
863.739	1901
863.826	2948
863.912	2838
863.999	2205
864.086	3068
864.172	3603
864.259	3842
864.345	2655
864.432	3142
864.518	3391
864.604	3488
864.691	3257
864.777	3841
864.863	5474
864.950	7457
865.036	10116
865.122	18800
865.209	17770
865.295	16259
865.381	15396
865.467	15168
865.553	15551
865.639	18788
865.726	26098
865.812	37761
865.898	58305
865.984	82096
866.070	124824
866.156	109937
866.242	50340
866.328	25789
866.414	18204
866.499	16053
866.585	14518
866.671	14042
866.757	13793
866.843	12370
866.928	12750
867.014	12584
867.100	12422
867.186	11523
867.271	11219
867.357	12296
867.442	11189
867.528	11196
867.614	12241
867.699	12388
867.785	11948
867.870	13198
867.956	12718
868.041	12124
868.127	11067
868.212	11233
868.297	11018
868.383	10343
868.468	10616
868.553	11232
868.639	9773
868.724	10612
868.809	10537
868.894	9183
868.979	9757
869.065	9703
869.150	8178
869.235	9768
869.320	9283
869.405	8129
869.490	10718
869.575	9587
869.660	7803
869.745	10403
869.830	11029
869.915	8354
870.000	9442
870.085	9109
870.169	11741
870.254	11032
870.339	7472
870.424	7888
870.509	9267
870.593	9806
870.678	10176
870.763	7634
870.847	6492
870.932	9590
871.016	9814
871.101	7001
871.186	9615
871.270	9803
871.355	6321
871.439	8138
871.523	8729
871.608	7145
871.692	6851
871.777	9209
871.861	8942
871.945	7826
872.030	8332
872.114	7712
872.198	6694
872.282	7353
872.367	7152
872.451	7310
872.535	7487
872.619	7515
872.703	8433
872.787	8322
872.871	8065
872.955	6083
873.039	5390
873.123	8105
873.207	8313
873.291	5233
873.375	6255
873.459	8870
873.543	6838
873.627	6020
873.711	6276
873.794	7549
873.878	6548
873.962	5022
874.045	6079
874.129	6021
874.137	6136
874.213	7282
874.245	7072
874.296	6739
874.352	5667
874.380	5150
874.460	6511
874.464	6566
874.547	5872
874.568	6217
874.631	7278
874.676	6840
874.714	6452
874.784	6911
874.798	7005
874.881	5982
874.892	5900
874.965	5381
874.999	6105
875.048	7091
875.107	6396
875.131	6114
875.215	4837
875.215	4836
875.298	4463
875.323	5081
875.381	6537
875.430	7495
875.465	8159
875.538	6236
875.548	5971
875.631	4314
875.646	4144
875.714	3450
875.753	4142
875.798	4895
875.861	6146
875.881	6521
875.964	5837
875.968	5748
876.047	4243
876.076	4423
876.130	4851
876.183	5491
876.213	5788
876.291	6271
876.296	6304
876.379	4632
876.398	4470
876.462	3815
876.506	3578
876.545	3522
876.613	4497
876.628	4672
876.711	5485
876.721	5521
876.794	5883
876.828	5657
876.877	5217
876.935	4374
876.960	4091
877.043	4934
877.043	4936
877.125	5311
877.150	5649
877.208	6383
877.258	4975
877.291	3908
877.365	3810
877.374	3846
877.456	3722
877.472	3745
877.539	3727
877.579	4652
877.622	5633
877.687	5336
877.704	5234
877.787	4909
877.794	4941
877.869	5482
877.901	5315
877.952	4588
878.008	3293
878.034	2922
878.115	3425
878.117	3431
878.199	4042
878.222	4195
878.282	4775
878.329	5085
878.364	5138
878.437	4544
878.447	4441
878.529	3179
878.544	3200
878.611	3474
878.651	3867
878.694	4623
878.758	4699
878.776	4562
878.858	4434
878.865	4377
878.941	3492
878.972	3195
879.023	2999
879.078	3874
879.105	4368
879.185	4894
879.187	4899
879.269	4749
879.292	4839
879.351	4907
879.399	4051
879.433	3400
879.506	3501
879.516	3546
879.598	3106
879.613	3119
879.680	3459
879.720	4182
879.762	4683
879.827	4156
879.844	3989
879.926	3557
879.933	3532
880.007	3851
880.040	3855
880.089	3379
880.147	3477
880.171	3800
880.253	4653
880.254	4655
880.335	3973
880.360	4097
880.417	4939
880.467	4624
880.499	4219
880.574	4208
880.580	4253
880.662	4646
880.680	4505
880.744	3185
880.787	3054
880.825	3314
880.893	3452
880.907	3402
880.989	2725
881.000	2815
881.070	4117
881.106	4299
881.152	4097
881.213	3379
881.233	3182
881.315	3718
881.319	3730
881.396	3903
881.426	3711
881.478	3623
881.532	4430
881.559	4667
881.639	3457
881.641	3422
881.722	3007
881.745	3043
881.803	4074
881.852	4407
881.885	3974
881.958	2934
881.966	2910
882.047	3833
882.064	3775
882.129	3391
882.171	3079
882.210	2617
882.277	2613
882.291	2809
882.372	4535
882.383	4678
882.454	4890
882.489	4555
882.535	4317
882.596	4767
882.616	4695
882.697	3446
882.702	3390
882.778	2846
882.808	2815
882.859	2847
882.914	2732
882.940	2848
883.020	3147
883.021	3150
883.102	3978
883.127	4149
883.183	4771
883.233	4518
883.264	3622
883.339	2073
883.345	2036
883.426	2020
883.445	2009
883.507	2382
883.551	2871
883.587	3521
883.657	4558
883.668	4624
883.749	4551
883.763	4546
883.830	3491
883.869	2886
883.910	2521
883.975	2160
883.991	2386
884.072	3644
884.081	3775
884.152	4426
884.187	4721
884.233	4731
884.292	4217
884.314	3680
884.394	1204
884.398	1146
884.475	1430
884.504	1481
884.555	2048
884.610	2688
884.636	2897
884.716	3533
884.716	3537
884.797	4060
884.821	3970
884.877	3647
884.927	3528
884.958	3229
885.033	2558
885.038	2509
885.118	1989
885.139	1807
885.199	2110
885.244	2534
885.279	3166
885.350	4328
885.359	4422
885.439	5186
885.456	5207
885.520	3889
885.561	3220
885.600	2849
885.667	2537
885.680	2673
885.760	3047
885.773	3138
885.840	2667
885.878	2386
885.920	2467
885.984	2751
886.000	2847
886.080	3104
886.089	3134
886.160	4064
886.195	4382
886.240	3770
886.300	3073
886.320	3109
886.400	3482
886.406	3488
886.480	2235
886.511	1777
886.560	2392
886.616	3022
886.640	2849
886.720	2176
886.722	2164
886.800	3210
886.827	3492
886.879	3217
886.932	3072
886.959	3493
887.038	4461
887.039	4455
887.119	3548
887.143	3298
887.198	3403
887.248	3427
887.278	3322
887.354	2794
887.358	2799
887.437	3168
887.459	3280
887.517	3692
887.564	3766
887.596	3325
887.669	2570
887.676	2505
887.755	1625
887.774	1429
887.835	2095
887.880	2665
887.914	2884
887.985	3136
887.994	3223
888.073	4151
888.090	4278
888.153	4649
888.195	4937
888.232	4338
888.300	3272
888.311	3252
888.391	3172
888.405	3116
888.470	2591
888.510	2336
888.549	2549
888.615	3010
888.628	3206
888.708	4204
888.720	4353
888.787	3438
888.825	2919
888.866	2246
888.930	1198
888.945	1440
889.024	2838
889.035	3013
889.103	3355
889.140	3520
889.182	3201
889.245	2782
889.261	2907
889.340	3479
889.349	3541
889.419	3252
889.454	3103
889.498	2976
889.559	2816
889.577	2963
889.656	3600
889.664	3663
889.735	3704
889.768	3718
889.814	3575
889.873	3368
889.978	2946
890.083	2464
890.187	4112
890.292	3342
890.397	2738
890.501	2428
890.606	2012
890.710	3182
890.815	4649
890.919	2896
891.024	3308
891.128	2607
891.233	2553
891.337	3329
891.442	3476
891.546	3125
891.650	3183
891.755	1947
891.859	4105
891.963	3778
892.068	2555
892.172	3007
892.276	2296
892.380	3021
892.484	4212
892.589	3071
892.693	2402
892.797	1581
892.901	1586
893.005	2429
893.109	4465
893.213	4207
893.317	3142
893.421	2379
893.525	2051
893.629	1664
893.733	4075
893.837	2437
893.941	2314
894.045	2118
894.148	1626
894.252	774
894.356	4048
894.460	4397
894.564	2490
894.667	2533
894.771	1383
894.875	1556
894.978	2511
895.082	2664
895.186	3521
895.289	3346
895.393	2056
895.496	4038
895.600	2067
895.703	1789
895.807	2550
895.910	2483
896.014	2186
896.117	1579
896.221	3454
896.324	2954
896.427	2279
896.531	2467
896.634	2424
896.737	2150
896.840	2856
896.944	2920
897.047	4244
897.150	3637
897.253	1392
897.356	2048
897.460	1493
897.563	2740
897.666	3690
897.769	3114
897.872	1219
897.975	2108
898.078	2832
898.181	2123
898.284	2887
898.387	3346
898.490	3089
898.593	1617
898.695	1840
898.798	1386
898.901	2332
899.004	2316
899.107	2105
899.209	2281
899.312	3612
899.415	2216
899.518	1466
899.620	747
899.723	2064
899.826	2353
899.928	1156
900.031	2106
900.133	3437
900.236	1897
900.338	2084
900.441	1519
900.543	2131
900.646	2523
900.748	1844
900.851	2973
900.953	1728
901.055	1472
901.158	2375
901.260	2163
901.362	2247
901.465	1266
901.567	3536
901.669	3342
901.771	1725
901.873	2270
901.976	2260
902.078	2728
902.180	2391
902.282	1669
902.384	2080
902.486	3624
902.588	3344
902.690	1439
902.792	1846
902.894	1758
902.996	3615
903.098	3529
903.200	1733
903.302	1291
903.404	1298
903.505	1594
903.607	1871
903.709	3394
903.811	3315
903.913	1488
904.014	939
904.116	823
904.218	1650
904.319	2010
904.421	4285
904.523	4026
904.624	2482
904.726	2638
904.827	2437
904.929	2978
905.030	2106
905.132	3261
905.233	3330
905.335	2132
905.436	1701
905.537	1079
905.639	2215
905.740	2444
905.841	3580
905.943	2589
906.044	3155
906.145	1880
906.247	1749
906.348	1755
906.449	2880
906.550	1700
906.651	1670
906.752	1723
906.854	2146
906.955	1448
907.056	2211
907.157	3031
907.258	2518
907.359	903
907.460	1548
907.561	1251
907.662	1588
907.762	1662
907.863	2233
907.964	2092
908.065	1541
908.166	1869
908.267	1931
908.367	1465
908.468	1710
908.569	1991
908.670	3044
908.770	2312
908.871	2405
908.971	2508
909.072	2020
909.173	1349
909.273	2080
909.374	2616
909.474	2148
909.575	1605
909.675	1987
909.776	1758
909.876	1589
909.977	1891
910.077	2722
910.177	2527
910.278	2219
910.378	1265
910.478	1975
910.579	3035
910.679	1807
910.779	1787
910.879	2301
910.980	2715
911.080	1986
911.180	2199
911.280	1674
911.380	1079
911.480	1544
911.580	835
911.680	2623
911.780	2382
911.880	2987
911.980	617
912.080	1482
912.180	2867
912.280	2098
912.380	609
912.480	1250
912.580	1808
912.679	1674
912.779	2443
912.879	2516
912.979	2055
913.078	2030
913.178	1383
913.278	923
913.377	1843
913.477	2227
913.577	1806
913.676	1713
913.776	2064
913.875	2534
913.975	2245
914.074	1820
914.174	2417
914.273	844
914.373	1595
914.472	1829
914.572	1344
914.671	1773
914.770	1769
914.870	2429
914.969	860
915.068	2624
915.167	2324
915.267	1691
915.366	2220
915.465	2190
915.564	2050
915.663	1690
915.763	2054
915.862	3152
915.961	2532
916.060	1962
916.159	993
916.258	1114
916.357	1658
916.456	1879
916.555	2248
916.654	2510
916.752	2199
916.851	2588
916.950	1057
917.049	1431
917.148	1584
917.247	1841
917.345	2146
917.444	2221
917.543	1179
917.642	2050
917.740	2510
917.839	3934
917.937	3295
918.036	2792
918.135	2355
918.233	2102
918.332	1006
918.430	1352
918.529	1219
918.627	2336
918.726	3153
918.824	2088
918.923	1783
919.021	1692
919.119	1284
919.218	2102
919.316	1985
919.414	1842
919.512	2662
919.611	3261
919.709	3061
919.807	3630
919.905	2792
920.003	3909
920.102	2460
920.200	3126
920.298	3586
920.396	2607
920.494	2445
920.592	2675
920.690	2462
920.788	3300
920.886	2812
920.984	4025
921.082	3726
921.180	3577
921.277	2785
921.375	3707
921.473	5242
921.571	5222
921.669	4399
921.766	5566
921.864	5362
921.962	5132
922.060	4636
922.157	4582
922.255	5633
922.352	4994
922.450	6960
922.548	6173
922.645	7778
922.743	9797
922.840	13576
922.938	15691
923.035	14124
923.133	13927
923.230	15573
923.327	17713
923.425	16671
923.522	17271
923.619	14738
923.717	14307
923.814	13799
923.911	13204
924.008	14667
924.106	12647
924.203	12241
924.300	14326
924.397	13636
924.494	13386
924.591	12047
924.688	12364
924.786	12985
924.883	13189
924.979	13504
925.077	11763
925.173	12516
925.270	12947
925.367	11519
925.464	13869
925.561	13857
925.658	14158
925.755	10738
925.852	14196
925.948	12619
926.045	13254
926.142	14123
926.239	14002
926.335	11572
926.432	14063
926.529	14820
926.625	15347
926.722	11598
926.818	12604
926.915	13358
927.011	12186
927.108	11887
927.204	12962
927.301	10124
927.397	12347
927.494	13455
927.590	8993
927.687	10965
927.783	12801
927.879	12420
927.976	10627
928.072	10394
928.168	12114
928.264	10844
928.361	10633
928.457	11973
928.553	10422
928.649	10469
928.745	10881
928.841	9744
928.937	11194
929.033	11308
929.129	10928
929.225	11338
929.321	10504
929.417	9137
929.513	13068
929.609	8976
929.705	9337
929.801	11621
929.897	8554
929.993	9256
930.089	10112
930.184	8572
930.280	11218
930.376	12718
930.471	8467
930.567	8026
930.663	9996
930.758	9175
930.854	9348
930.950	8675
931.045	8527
931.141	9286
931.236	11746
931.332	8947
931.427	8318
931.523	11392
931.618	9414
931.714	7021
931.809	10026
931.905	9872
932.000	7264
932.095	6550
932.191	10611
932.286	12239
932.381	9356
932.476	6399
932.572	8817
932.667	7717
932.762	7892
932.857	8713
932.952	10528
933.047	9166
933.142	6368
933.237	8725
933.332	8311
933.427	10035
933.522	9118
933.617	7243
933.712	7185
933.807	10634
933.902	10468
933.997	10201
934.092	7609
934.187	8219
934.282	8811
934.376	8176
934.471	9598
934.566	6369
934.661	8142
934.755	8306
934.850	9279
934.945	7363
935.039	7127
935.134	6115
935.228	8203
935.323	11664
935.417	6651
935.512	4460
935.606	6153
935.701	8027
935.795	9368
935.890	7641
935.984	5927
936.079	4663
936.173	6909
936.267	7142
936.362	5324
936.456	7752
936.550	10099
936.644	6503
936.738	6556
936.833	5921
936.927	4812
937.021	7422
937.115	7079
937.209	6869
937.303	7472
937.397	5494
937.491	6862
937.585	8082
937.679	6633
937.773	6169
937.867	5384
937.961	5595
938.055	7886
938.149	6828
938.243	4538
938.337	4050
938.430	6343
938.524	10048
938.618	8567
938.712	5832
938.805	6350
938.899	8947
938.993	9465
939.086	7099
939.180	8410
939.274	8580
939.367	8344
939.461	6880
939.554	4911
939.648	4529
939.741	5529
939.835	6858
939.928	9352
940.022	6285
940.115	5339
940.208	7273
940.302	7779
940.395	8409
940.488	4965
940.582	6349
940.675	4603
940.768	5416
940.861	6962
940.954	7883
941.048	3675
941.141	3712
941.234	4893
941.327	4632
941.420	6537
941.513	6133
941.606	4635
941.699	5714
941.792	6661
941.885	5074
941.978	5691
942.071	5941
942.164	4213
942.257	3926
942.349	5186
942.442	5845
942.535	4268
942.628	4625
942.721	5470
942.813	4130
942.906	6313
942.999	4253
943.091	4543
943.184	4047
943.277	5018
943.369	3562
943.462	3219
943.554	5279
943.647	4819
943.739	6838
943.832	6322
943.924	2674
944.017	3041
944.109	2573
944.201	4387
944.294	4548
944.386	4921
944.478	3185
944.571	3674
944.663	3436
944.755	4729
944.847	5069
944.940	4626
945.032	2596
945.124	3215
945.216	4979
945.308	4951
945.400	4382
945.492	4586
945.584	5830
945.676	6065
945.768	4878
945.860	5063
945.952	6468
946.044	5065
946.136	3418
946.228	4053
946.320	4088
946.412	4506
946.503	5947
946.595	6228
946.687	2774
946.779	2950
946.870	2510
946.962	4398
947.054	3816
947.145	5226
947.237	3662
947.329	3467
947.420	4434
947.512	3649
947.603	2878
947.695	3163
947.786	3367
947.878	3227
947.969	4984
948.061	4011
948.152	3802
948.243	2485
948.335	2474
948.426	3430
948.517	3149
948.609	4726
948.700	4339
948.791	3509
948.882	2153
948.973	2960
949.065	3573
949.156	3992
949.247	2633
949.338	2931
949.429	2015
949.520	1965
949.611	3346
949.702	4755
949.793	3103
949.884	3097
949.975	2928
950.066	2280
950.157	2414
950.247	2717
950.338	2122
950.429	2692
950.520	3055
950.611	2360
950.701	3942
950.792	4448
950.883	4294
950.973	3357
951.064	4045
951.155	3389
951.245	3982
951.336	4294
951.427	3732
951.517	5084
951.608	3638
951.698	3110
951.788	2779
951.879	2433
951.969	2120
952.060	2073
952.150	3152
952.240	4229
952.331	2927
952.421	4516
952.511	1889
952.602	2364
952.692	1107
952.782	2645
952.872	2689
952.962	3457
953.052	2786
953.143	2813
953.233	3218
953.323	2537
953.413	2300
953.503	4512
953.593	3835
953.683	3012
953.773	576
953.863	1979
953.953	1739
954.042	3302
954.132	2852
954.222	3991
954.312	1751
954.402	2544
954.492	2527
954.581	2669
954.671	1866
954.761	2500
954.850	3070
954.940	1270
955.030	1402
955.119	1708
955.209	2300
955.298	3165
955.388	2946
955.477	3830
955.567	1529
955.656	2344
955.746	2069
955.835	1176
955.925	2640
956.014	2416
956.103	3408
956.193	4246
956.282	4130
956.371	2588
956.461	2699
956.550	2042
956.639	2561
956.728	2169
956.817	2642
956.906	2834
956.995	3579
957.085	1818
957.174	1965
957.263	1733
957.352	1645
957.441	2734
957.530	2463
957.619	2476
957.708	2884
957.796	2263
957.885	1889
957.974	1957
958.063	3267
958.152	1214
958.241	1709
958.329	1932
958.418	1792
958.507	2218
958.596	3066
958.684	1936
958.773	2975
958.861	907
958.950	1787
959.039	2102
959.127	2064
959.216	2418
959.304	1584
959.393	1855
959.481	2661
959.570	1387
959.658	857
959.746	2304
959.835	1446
959.923	2229
960.011	1711
960.100	2747
960.188	2927
960.276	1717
960.365	1369
960.453	1803
960.541	1353
960.629	2130
960.717	1566
960.805	387
960.893	2054
960.981	2595
961.069	4244
961.158	4295
961.245	3655
961.333	3275
961.421	2420
961.509	2445
961.597	2085
961.685	2407
961.773	1438
961.861	1962
961.949	2838
962.036	1173
962.124	1703
962.212	1872
962.299	2221
962.387	286
962.475	1765
962.562	1419
962.650	2522
962.738	2358
962.825	1397
962.913	1749
963.000	1514
963.088	2483
963.175	2057
963.263	1879
963.350	1616
963.438	1456
963.525	1509
963.612	2453
963.700	1120
963.787	2709
963.874	380
963.962	1851
964.049	1406
964.136	1936
964.223	861
964.310	1977
964.398	1138
964.485	1902
964.572	2265
964.659	2093
964.746	1459
964.833	1371
964.920	1319
965.007	1946
965.094	1625
965.181	1629
965.268	2090
965.355	1105
965.441	967
965.528	1099
965.615	2791
965.702	1952
965.789	1542
965.875	2781
965.962	1938
966.049	2120
966.136	3103
966.222	2645
966.309	1719
966.395	2793
966.482	2383
966.569	1807
966.655	2610
966.742	1236
966.828	2191
966.915	1541
967.001	1235
967.087	622
967.174	1237
967.260	2790
967.347	1059
967.433	1111
967.519	1947
967.605	1355
967.692	1200
967.778	1238
967.864	1487
967.950	2660
968.036	1075
968.123	1997
968.209	1624
968.295	882
968.381	2403
968.467	1584
968.553	820
968.639	2383
968.725	1603
968.811	2411
968.897	3100
968.983	1525
969.069	1157
969.154	1621
969.240	2038
969.326	862
969.412	1006
969.497	1360
969.583	150
969.669	1901
969.755	2371
969.840	2096
969.926	3852
970.012	3794
970.097	4679
970.183	2723
970.268	2427
970.354	3056
970.439	1007
970.525	3212
970.610	680
970.696	2833
970.781	2018
970.866	514
970.952	1901
971.037	1179
971.122	1636
971.208	2195
971.293	1920
971.378	1234
971.463	2011
971.549	897
971.634	1628
971.719	1706
971.804	1100
971.889	1987
971.974	1066
972.059	2365
972.144	1464
972.229	1173
972.314	843
972.399	1983
972.484	589
972.569	2118
972.654	683
972.739	2394
972.824	1341
972.908	1225
972.993	1255
973.078	1144
973.163	1870
973.247	1620
973.332	173
973.417	3111
973.501	749
973.586	2333
973.671	1496
973.755	1325
973.840	1765
973.924	3215
974.009	3052
974.093	2105
974.178	2525
974.262	1581
974.346	1355
974.431	1797
974.515	1497
974.600	3047
974.684	2418
974.768	862
974.852	2638
974.937	1007
975.021	2248
975.105	1767
975.189	1564
975.273	2181
975.358	1114
975.442	1522
975.526	1620
975.610	1074
975.694	741
975.778	2085
975.862	1584
975.946	-900
976.030	4015
976.114	1361
976.198	993
976.281	1482
976.365	2313
976.449	1480
976.533	1564
976.617	847
976.700	1084
976.784	1447
976.868	1643
976.951	1493
977.035	1256
977.119	845
977.202	1692
977.286	2090
977.369	2190
977.453	4742
977.536	2794
977.620	2175
977.703	3727
977.787	1399
977.870	2893
977.953	2949
978.037	-32
978.120	3233
978.203	1923
978.287	2371
978.370	1935
978.453	2162
978.536	1629
978.620	2001
978.703	1491
978.786	1561
978.869	752
978.952	726
979.035	3150
979.118	2626
979.201	1714
979.284	2954
979.367	1395
979.450	1715
979.533	1038
979.616	1781
979.699	797
979.782	1112
979.865	2122
979.948	1340
980.030	1753
980.113	1935
980.196	851
980.279	2621
980.361	1345
980.444	1806
980.526	2904
980.609	3990
980.692	4178
980.774	4143
980.857	1978
980.939	3276
981.022	1767
981.104	2744
981.187	1476
981.269	2425
981.352	2587
981.434	1894
981.516	1835
981.599	3162
981.681	1864
981.763	1775
981.846	1674
981.928	2263
982.010	3082
982.092	1450
982.174	2747
982.256	2495
982.339	1628
982.421	2045
982.503	2479
982.585	1527
982.667	1651
982.749	3096
982.831	2299
982.913	1928
982.995	2357
983.077	2028
983.158	3856
983.240	2038
983.322	3201
983.404	5085
983.486	3657
983.568	4022
983.649	2521
983.731	3065
983.813	3000
983.894	3946
983.976	3233
984.058	2953
984.139	2939
984.221	1764
984.302	3223
984.384	2989
984.465	1643
984.547	3205
984.628	1499
984.710	4261
984.791	1854
984.872	3297
984.954	2037
985.035	3433
985.116	2098
985.198	1921
985.279	3838
985.360	2239
985.441	1737
985.522	3526
985.604	2297
985.685	967
985.766	2961
985.847	3967
985.928	2072
986.009	3221
986.090	2603
986.171	3008
986.252	2832
986.333	4126
986.414	1671
986.495	3018
986.576	2946
986.656	3104
986.737	3145
986.818	4001
986.899	2610
986.980	2958
987.060	3326
987.141	2385
987.222	4451
987.302	4992
987.383	4845
987.464	4078
987.544	4874
987.625	4042
987.705	4310
987.786	4606
987.866	3799
987.947	4112
988.027	4160
988.108	2743
988.188	3896
988.268	3662
988.349	4293
988.429	3479
988.509	3844
988.589	3841
988.670	1981
988.750	3887
988.830	3258
988.910	4151
988.990	3664
989.070	3380
989.151	4519
989.231	2865
989.311	3189
989.391	2225
989.471	3625
989.551	2804
989.631	2412
989.711	4618
989.791	3459
989.870	2062
989.950	3507
990.030	3326
990.110	2461
990.190	1421
990.269	1717
990.349	2458
990.429	4113
990.509	2965
990.588	1718
990.668	3094
990.747	2890
990.827	1768
990.907	2541
990.986	3693
991.066	2628
991.145	2248
991.225	3613
991.304	2837
991.383	2614
991.463	3363
991.542	2916
991.622	2776
991.701	1068
991.780	1739
991.859	2274
991.939	2182
992.018	2216
992.097	3351
992.176	2551
992.256	1644
992.335	2199
992.414	3529
992.493	1466
992.572	690
992.651	2534
992.730	1267
992.809	2443
992.888	2157
992.967	2273
993.046	2425
993.125	715
993.203	2260
993.282	2200
993.361	1656
993.440	978
993.519	1469
993.597	2705
993.676	1568
993.755	2168
993.834	2001
993.912	-30
993.991	2612
994.069	1239
994.148	1694
994.226	1297
994.305	1577
994.384	1778
994.462	2281
994.540	872
994.619	523
994.697	1327
994.776	1350
994.854	1767
994.932	1011
995.011	1766
995.089	1251
995.167	1433
995.245	1721
995.324	1400
995.402	2246
995.480	1244
995.558	2050
995.636	327
995.714	1310
995.792	2965
995.870	980
995.948	684
996.026	1764
996.104	-253
996.182	1824
996.260	-212
996.338	347
996.416	671
996.494	1768
996.572	2221
996.649	1518
996.727	737
996.805	1612
996.883	529
996.960	1381
997.038	1392
997.116	1683
997.193	-340
997.271	1050
997.348	-16
997.426	1136
997.504	1228
997.581	1761
997.658	1187
997.736	139
997.813	232
997.891	1004
997.968	633
998.046	532
998.123	558
998.200	914
998.277	13
998.355	1771
998.432	-828
998.509	601
998.586	848
998.663	1040
998.741	43
998.818	544
998.895	-8
998.972	936
999.049	1256
999.126	388
999.203	759
999.280	199
999.357	606
999.434	883
999.511	664
999.587	581
999.664	-309
999.741	846
999.818	1013
999.895	591
999.971	-376
1000.048	597
1000.125	1249
1000.202	-18
1000.278	390
1000.355	914
1000.431	-147
1000.508	-72
1000.584	-671
1000.661	963
1000.738	393
1000.814	782
1000.890	962
1000.967	465
1001.043	1071
1001.120	-704
1001.196	116
1001.272	-423
1001.349	909
1001.425	792
1001.501	591
1001.577	260
1001.654	679
1001.730	162
1001.806	233
1001.882	-518
1001.958	1116
1002.034	1217
1002.110	168
1002.186	-220
1002.262	-240
1002.338	-380
1002.414	480
1002.490	481
1002.566	260
1002.642	-398
1002.718	758
1002.794	452
1002.870	-686
1002.945	-322
1003.021	262
1003.097	-42
1003.173	371
1003.248	-165
1003.324	-356
1003.400	729
1003.475	70
1003.551	-43
1003.626	147
1003.702	-436
1003.777	-925
1003.853	-888
1003.928	-612
1004.004	-162
1004.079	-107
1004.155	375
1004.230	-719
1004.305	508
1004.381	-1504
1004.456	72
1004.531	-843
1004.607	-736
1004.682	-485
1004.757	80
1004.832	158
1004.907	-527
1004.982	91
1005.057	-268
1005.133	270
1005.208	181
1005.283	-557
1005.358	30
1005.433	-993
1005.508	-797
1005.583	-821
1005.657	-937
1005.732	-224
1005.807	-685
1005.882	-260
1005.957	-387
1006.032	-358
1006.106	133
1006.181	-660
1006.256	322
1006.331	-2092
1006.405	165
1006.480	-337
1006.554	-360
1006.629	-414
1006.704	-936
1006.778	-360
1006.853	518
1006.927	-702
1007.002	-538
1007.076	425
1007.150	-818
1007.225	-202
1007.299	-6
1007.373	-806
1007.448	174
1007.522	-108
1007.596	577
1007.671	-1404
1007.745	-309
1007.819	-928
1007.893	-686
1007.967	216
1008.041	-1349
1008.115	144
1008.190	-1200
1008.264	-378
1008.338	-1273
1008.412	-1043
1008.486	-1318
1008.560	-555
1008.633	-440
1008.707	-462
1008.781	736
1008.855	-981
1008.929	-615
1009.003	-745
1009.076	-732
1009.150	-945
1009.224	237
1009.298	-283
1009.371	-725
1009.445	-338
1009.519	142
1009.592	-1740
1009.666	-415
1009.739	-997
1009.813	-692
1009.886	440
1009.960	-1119
1010.033	-120
1010.107	130
1010.180	-1511
1010.253	-353
1010.327	-1571
1010.400	-191
1010.473	-526
1010.547	63
1010.620	-948
1010.693	377
1010.766	-735
1010.840	324
1010.913	-186
1010.986	-316
1011.059	-386
1011.132	-1189
1011.205	-616
1011.278	715
1011.351	-270
1011.424	284
1011.497	-892
1011.570	-454
1011.643	-1095
1011.716	-1214
1011.789	-1117
1011.862	-1597
1011.934	-98
1012.007	-2244
1012.080	-600
1012.153	100
1012.225	-750
1012.298	-1039
1012.371	-1399
1012.443	-998
1012.516	-1516
1012.588	-489
1012.661	-881
1012.733	-1215
1012.806	-569
1012.879	-1449
1012.951	-358
1013.023	-672
1013.096	-690
1013.168	-1692
1013.241	-4
1013.313	-878
1013.385	-1092
1013.458	-910
1013.530	-901
1013.602	-1215
1013.674	-898
1013.746	-858
1013.819	-1341
1013.891	425
1013.963	-966
1014.035	-1000
1014.107	-1128
1014.179	-698
1014.251	-2176
1014.323	-581
1014.395	-741
1014.467	-932
1014.539	-1200
1014.611	-1785
1014.683	-372
1014.754	-1106
1014.826	-1107
1014.898	-540
1014.970	-1681
1015.042	-108
1015.113	-1192
1015.185	-905
1015.257	-1669
1015.328	-619
1015.400	-945
1015.471	-1045
1015.543	-1391
1015.615	-633
1015.686	-1828
1015.757	-376
1015.829	-1439
1015.901	-1191
1015.972	-1122
1016.043	154
1016.115	-270
1016.186	216
1016.257	-1361
1016.328	-340
1016.400	-1073
1016.471	-1632
1016.542	-918
1016.613	-173
1016.685	-283
1016.756	-206
1016.827	-1728
1016.898	-1769
1016.969	-631
1017.040	-476
1017.111	-1345
1017.182	-562
1017.253	-752
1017.324	-1051
1017.395	-937
1017.466	-1
1017.537	-1219
1017.608	-825
1017.678	-704
1017.749	-1582
1017.820	-726
1017.891	-282
1017.961	-674
1018.032	-885
1018.103	-571
1018.173	-1138
1018.244	-1530
1018.315	-1680
1018.385	-988
1018.456	-744
1018.526	-1844
1018.597	-1094
1018.667	-1289
1018.738	-1381
1018.808	-1313
1018.878	-718
1018.949	-1544
1019.019	-995
1019.089	-727
1019.160	-1070
1019.230	-874
1019.300	-337
1019.371	-1812
1019.441	-892
1019.511	-1215
1019.581	-593
1019.651	-1068
1019.721	-546
1019.791	-1950
1019.861	-1183
1019.931	-899
1020.001	-1218
1020.071	-1373
1020.141	-478
1020.211	-1218
1020.281	-1391
1020.351	-916
1020.421	-1299
1020.491	-1154
1020.560	-1578
1020.630	-1434
1020.700	-474
1020.770	-984
1020.839	-316
1020.909	-1419
1020.979	-1508
1021.048	-1195
1021.118	-1307
1021.187	-1055
1021.257	-1131
1021.326	-1174
1021.396	-1275
1021.465	-932
1021.535	-1510
1021.604	-1991
1021.674	-1363
1021.743	-1221
1021.812	-220
1021.882	-1019
1021.951	-1293
1022.020	-1114
1022.089	-698
1022.159	-1088
1022.228	-564
1022.297	-1283
1022.366	-954
1022.435	-808
1022.504	-996
1022.573	-1398
1022.642	-920
1022.711	-1766
1022.781	-1234
1022.849	-976
1022.918	-1166
1022.987	-1236
1023.056	-1404
1023.125	-1181
1023.194	-919
1023.263	-1100
1023.331	-497
1023.400	-1259
1023.469	-1042
1023.538	-1115
1023.606	-1361
1023.675	-1722
1023.744	-1256
1023.812	-1570
1023.881	-982
1023.949	-621
1024.018	-977
1024.086	-2081
1024.155	-1212
1024.223	-1367
1024.292	-572
1024.360	-633
1024.429	-1490
1024.497	-1665
1024.565	-1120
1024.634	-1898
1024.702	-801
1024.770	-1121
1024.838	-1098
1024.907	-983
1024.975	-1070
1025.043	-1171
1025.111	-1266
1025.179	-1521
1025.247	-1023
1025.315	-1446
1025.383	-1248
1025.451	-2122
1025.519	-1269
1025.587	-1522
1025.655	-1325
1025.723	-1847
1025.791	-657
1025.859	-802
1025.927	-875
1025.995	-1038
1026.062	-833
1026.130	-1501
1026.198	-954
1026.266	-1576
1026.333	-808
1026.401	-1161
1026.469	-1541
1026.536	-1774
1026.604	-779
1026.671	-1888
1026.739	-944
1026.806	-1759
1026.874	-1641
1026.941	-1334
1027.009	-1287
1027.076	-1509
1027.144	-721
1027.211	-1877
1027.278	-1181
1027.345	-1414
1027.413	-1308
1027.480	-1696
1027.547	-1869
1027.614	-1381
1027.682	-2104
1027.749	-1046
1027.816	-1373
1027.883	-1534
1027.950	-569
1028.017	-1981
1028.084	-750
1028.151	-1294
1028.218	-380
1028.285	-1651
1028.352	-1947
1028.419	-1599
1028.486	-1418
1028.553	-967
1028.619	-2051
1028.686	-1933
1028.753	-2018
1028.820	-2152
1028.886	-1065
1028.953	-1900
1029.020	-995
1029.086	-1928
1029.153	-2034
1029.220	-1572
1029.286	-968
1029.353	-1681
1029.419	-1613
1029.486	-2095
1029.552	-802
1029.619	-1442
1029.685	-1419
1029.751	-1558
1029.818	-751
1029.884	-2044
1029.951	579
1030.017	-1847
1030.083	-1562
1030.149	-1880
1030.216	-1795
1030.282	-1638
1030.348	-1812
1030.414	-2163
1030.480	-1089
1030.546	-1934
1030.612	-826
1030.678	-1668
1030.744	-1152
1030.810	-1582
1030.876	-1915
1030.942	-1782
1031.008	-1271
1031.074	-1746
1031.140	-2560
1031.206	-1049
1031.272	-1597
1031.337	-1938
1031.403	-1077
1031.469	-1541
1031.534	-1392
1031.600	-1506
1031.666	-1656
1031.731	-1869
1031.797	-1018
1031.863	-1949
1031.928	-1033
1031.994	-2313
1032.059	-919
1032.125	-1746
1032.190	-1262
1032.256	-1565
1032.321	-1547
1032.386	-1171
1032.452	-709
1032.517	-1226
1032.582	-1646
1032.647	-1621
1032.713	-1899
1032.778	-1315
1032.843	-1112
1032.908	-1555
1032.974	-688
1033.039	-1824
1033.104	-543
1033.169	-1616
1033.234	-1998
1033.299	-1026
1033.364	-538
1033.429	-2746
1033.494	-2392
1033.559	-1834
1033.624	-1245
1033.688	-473
1033.753	-1235
1033.818	-2026
1033.883	-1272
1033.948	-1872
1034.013	-673
1034.077	-1167
1034.142	199
1034.207	432
1034.271	399
1034.336	1049
1034.400	191
1034.465	-331
1034.530	-1432
1034.594	-2045
1034.658	-1890
1034.723	-1870
1034.787	-1060
1034.852	-1273
1034.916	-1986
1034.981	-1721
1035.045	-1789
1035.109	-1562
1035.173	-1461
1035.238	-1872
1035.302	-1341
1035.366	-1660
1035.430	-1615
1035.495	-2404
1035.559	-821
1035.623	-1750
1035.687	-1672
1035.751	-2165
1035.815	-1369
1035.879	-2047
1035.943	-1701
1036.007	-2261
1036.071	-1361
1036.135	-1723
1036.198	-1499
1036.262	-1690
1036.326	-1604
1036.390	-2048
1036.454	-1254
1036.517	-1779
1036.581	-1212
1036.645	-1374
1036.709	-2355
1036.772	-2070
1036.836	-1823
1036.900	-1680
1036.963	-1901
1037.026	-1688
1037.090	-1178
1037.154	-969
1037.217	-1929
1037.280	-1824
1037.344	-1876
1037.407	-2169
1037.471	-1168
1037.534	-1747
1037.597	-1740
1037.661	-1080
1037.724	-1503
1037.787	-1770
1037.850	-1390
1037.913	-2366
1037.977	-1810
1038.040	-1981
1038.103	-1178
1038.166	-1719
1038.229	-845
1038.292	-2508
1038.355	-1531
1038.418	-2050
1038.481	-1410
1038.544	-2015
1038.607	-931
1038.670	-589
1038.732	-2209
1038.795	-2197
1038.858	-1838
1038.921	-1628
1038.984	-1189
1039.046	-1957
1039.109	-2418
1039.172	-2281
1039.234	-1870
1039.297	-1532
1039.360	-1492
1039.422	-2206
1039.485	-1424
1039.547	-2254
1039.610	-1698
1039.672	-2225
1039.734	-1200
1039.797	-2000
1039.859	-1392
1039.922	-1389
1039.984	-1947
1040.046	-2646
1040.109	-2044
1040.171	-2145
1040.233	-1423
1040.295	-2476
1040.358	-1854
1040.420	-1816
1040.482	-1594
1040.544	-2437
1040.606	-1643
1040.668	-1745
1040.730	-1663
1040.792	-1623
1040.854	-716
1040.916	-1157
1040.978	-2038
1041.040	-1218
1041.102	-1364
1041.164	-2415
1041.225	-1659
1041.287	-2218
1041.349	-1781
1041.411	-1869
1041.472	-1431
1041.534	-1673
1041.596	-1703
1041.657	-2293
1041.719	-1583
1041.781	-2514
1041.842	-1430
1041.904	-2330
1041.965	-1755
1042.027	-1392
1042.088	-1982
1042.150	-2045
1042.211	-1133
1042.272	-2187
1042.334	-1635
1042.395	-1873
1042.456	-2267
1042.518	-1552
1042.579	-1641
1042.640	-1795
1042.701	-1740
1042.763	-1187
1042.824	-1273
1042.885	-2297
1042.946	-1704
1043.007	-2237
1043.068	-2234
1043.129	-1720
1043.190	-1895
1043.251	-1986
1043.312	-1875
1043.373	-1409
1043.434	-2352
1043.495	-1537
1043.556	-1185
1043.616	-1094
1043.677	-2808
1043.738	-2359
1043.799	-1944
1043.859	-1530
1043.920	-476
1043.981	-1689
1044.041	-1254
1044.102	-2095
1044.162	-1328
1044.223	-1936
1044.284	-1807
1044.344	-1723
1044.405	-1871
1044.465	-2115
1044.525	-1168
1044.586	-2181
1044.646	-1563
1044.707	-1589
1044.767	-1526
1044.827	-1737
1044.887	-1492
1044.948	-2527
1045.008	-2049
1045.068	-2065
1045.128	-1258
1045.188	-2133
1045.249	-1121
1045.309	-634
1045.369	-820
1045.429	-1964
1045.489	-1447
1045.549	-1329
1045.609	-1644
1045.669	-2230
1045.729	-1119
1045.789	-2211
1045.848	-1645
1045.908	-1323
1045.968	-1666
1046.028	-944
1046.088	-771
1046.147	-1015
1046.207	-1195
1046.267	-1282
1046.326	-564
1046.386	-1320
1046.446	-329
1046.505	-653
1046.565	-614
1046.624	-611
1046.684	-223
1046.743	-670
1046.803	-623
1046.862	-534
1046.922	0
