'Start Wavelength	183.907
'End Wavelength	1046.922
'Gate Delay	5.000
'Gate Width (ms)	1.050
'Laser Output Level	0.000
'X Position	0.000
'Y Position	0.000
'Z Position	0.000
'Grid Point Number	1.000
'Shot Number	100.000
183.907	438.000
183.977	399.000
184.047	350
184.116	871
184.186	-416
184.256	340
184.325	-485
184.395	-409
184.465	747
184.534	317
184.604	152
184.674	307
184.743	835
184.813	312
184.883	273
184.952	-68
185.022	204
185.092	52
185.161	207
185.231	884
185.301	110
185.370	972
185.440	484
185.509	66
185.579	292
185.649	263
185.718	-92
185.788	784
185.857	-649
185.927	99
185.996	138
186.066	428
186.136	-338
186.205	454
186.275	539
186.344	166
186.414	227
186.483	-193
186.553	1071
186.622	1493
186.692	874
186.761	682
186.831	-3
186.900	-289
186.970	281
187.039	274
187.109	33
187.178	433
187.248	625
187.317	600
187.387	-361
187.456	773
187.526	-97
187.595	57
187.664	642
187.734	774
187.803	26
187.873	82
187.942	794
188.012	350
188.081	-252
188.150	372
188.220	140
188.289	1591
188.358	643
188.428	609
188.497	-518
188.567	1163
188.636	-421
188.705	264
188.775	652
188.844	7
188.913	659
188.983	148
189.052	86
189.121	38
189.191	174
189.260	37
189.329	658
189.399	278
189.468	819
189.537	-438
189.606	-123
189.676	670
189.745	-149
189.814	447
189.883	32
189.953	295
190.022	296
190.091	-48
190.161	65
190.230	706
190.299	-40
190.368	54
190.437	-796
190.507	654
190.576	-254
190.645	-35
190.714	-139
190.783	-11
190.853	-527
190.922	146
190.991	349
191.060	406
191.129	-582
191.198	903
191.268	102
191.337	150
191.406	397
191.475	304
191.544	172
191.613	966
191.682	435
191.752	-106
191.821	-341
191.890	95
191.959	351
192.028	284
192.097	-359
192.166	571
192.235	-452
192.304	613
192.373	577
192.442	409
192.511	-253
192.580	979
192.650	-269
192.719	582
192.788	587
192.857	756
192.926	99
192.995	224
193.064	357
193.133	975
193.202	-78
193.271	-770
193.340	146
193.409	540
193.478	428
193.547	1
193.615	-217
193.684	294
193.753	485
193.822	164
193.891	15
193.960	719
194.029	-593
194.098	536
194.167	-767
194.236	907
194.305	-415
194.374	347
194.443	-220
194.512	967
194.580	18
194.649	726
194.718	369
194.787	831
194.856	154
194.925	844
194.994	-173
195.062	491
195.131	676
195.200	26
195.269	853
195.338	991
195.407	150
195.475	612
195.544	-110
195.613	137
195.682	-3
195.751	-408
195.819	284
195.888	1204
195.957	1224
196.026	682
196.094	-2
196.163	572
196.232	-143
196.301	-215
196.369	-111
196.438	509
196.507	147
196.576	107
196.644	-61
196.713	-7
196.782	111
196.850	687
196.919	-605
196.988	263
197.056	-642
197.125	87
197.194	414
197.262	510
197.331	-200
197.400	-93
197.468	185
197.537	-266
197.606	-217
197.674	550
197.743	334
197.812	-33
197.880	330
197.949	-530
198.017	89
198.086	-26
198.155	-209
198.223	288
198.292	-391
198.360	80
198.429	429
198.497	934
198.566	-48
198.635	988
198.703	388
198.772	126
198.840	-358
198.909	145
198.977	-160
199.046	74
199.114	-23
199.183	1429
199.251	221
199.320	404
199.388	213
199.457	-70
199.525	257
199.594	200
199.662	-592
199.731	381
199.799	1336
199.867	293
199.936	450
200.004	305
200.073	203
200.141	443
200.210	321
200.278	498
200.346	445
200.415	757
200.483	961
200.552	1208
200.620	633
200.688	339
200.757	336
200.825	1095
200.893	59
200.962	537
201.030	350
201.098	385
201.167	-11
201.235	586
201.303	-805
201.372	505
201.440	-130
201.508	415
201.577	617
201.645	245
201.713	249
201.781	417
201.850	55
201.918	-102
201.986	-154
202.055	727
202.123	-659
202.191	1034
202.259	-557
202.327	194
202.396	189
202.464	581
202.532	-578
202.600	1908
202.669	221
202.737	128
202.805	11
202.873	-920
202.941	455
203.009	408
203.078	305
203.146	277
203.214	-617
203.282	52
203.350	167
203.418	-93
203.487	514
203.555	-56
203.623	614
203.691	648
203.759	-433
203.827	719
203.895	-274
203.963	394
204.031	291
204.099	623
204.168	-61
204.236	-438
204.304	920
204.372	971
204.440	266
204.508	-127
204.576	-662
204.644	276
204.712	-212
204.780	735
204.848	467
204.916	-138
204.984	-319
205.052	447
205.120	-90
205.188	298
205.256	-452
205.324	245
205.392	-651
205.460	215
205.528	-309
205.596	261
205.664	174
205.732	-555
205.799	-128
205.867	248
205.935	-1155
206.003	355
206.071	-278
206.139	118
206.207	-130
206.275	227
206.343	-354
206.411	144
206.478	-105
206.546	46
206.614	-341
206.682	343
206.750	-560
206.818	795
206.885	1286
206.953	-371
207.021	657
207.089	812
207.157	-112
207.225	606
207.292	-454
207.360	-424
207.428	-1179
207.496	119
207.563	-523
207.631	-185
207.699	-602
207.767	145
207.834	-93
207.902	204
207.970	-357
208.038	290
208.105	170
208.173	190
208.241	-1085
208.309	172
208.376	848
208.444	857
208.512	-387
208.579	-434
208.647	680
208.715	1425
208.782	75
208.850	324
208.918	-706
208.985	-159
209.053	26
209.120	-202
209.188	-448
209.256	-182
209.323	-897
209.391	692
209.459	1465
209.526	157
209.594	-877
209.661	225
209.729	-358
209.796	404
209.864	371
209.932	8
209.999	672
210.067	522
210.134	310
210.202	654
210.269	1232
210.337	2014
210.404	460
210.472	338
210.539	-455
210.607	144
210.674	120
210.742	382
210.809	-256
210.877	424
210.944	452
211.012	-514
211.079	1006
211.146	294
211.214	626
211.281	1401
211.349	1019
211.416	696
211.484	211
211.551	-295
211.618	-231
211.686	-740
211.753	-649
211.821	594
211.888	77
211.955	338
212.023	-130
212.090	508
212.157	-535
212.225	-425
212.292	-143
212.359	692
212.427	435
212.494	136
212.561	-361
212.629	-12
212.696	-485
212.763	257
212.831	-374
212.898	500
212.965	-711
213.032	-62
213.100	-346
213.167	467
213.234	859
213.301	527
213.369	350
213.436	-451
213.503	-177
213.570	-83
213.638	-400
213.705	-363
213.772	-532
213.839	55
213.906	177
213.973	287
214.041	8
214.108	801
214.175	-246
214.242	410
214.309	-579
214.376	589
214.444	-333
214.511	280
214.578	-407
214.645	1638
214.712	-168
214.779	561
214.846	-458
214.913	442
214.980	131
215.048	1179
215.115	1912
215.182	996
215.249	466
215.316	567
215.383	1527
215.450	-167
215.517	-68
215.584	404
215.651	212
215.718	6
215.785	703
215.852	-87
215.919	614
215.986	487
216.053	255
216.120	335
216.187	527
216.254	822
216.321	145
216.388	-338
216.455	325
216.522	1003
216.589	231
216.656	1633
216.722	1832
216.789	219
216.856	122
216.923	-175
216.990	42
217.057	-263
217.124	514
217.191	112
217.258	290
217.324	333
217.391	705
217.458	118
217.525	161
217.592	615
217.659	-455
217.725	1809
217.792	627
217.859	1517
217.926	-1248
217.993	-384
218.059	272
218.126	700
218.193	-344
218.260	-200
218.327	-542
218.393	-51
218.460	-312
218.527	-133
218.594	312
218.660	1138
218.727	2468
218.794	627
218.860	564
218.927	-162
218.994	339
219.061	428
219.127	554
219.194	1934
219.261	291
219.327	222
219.394	734
219.461	-415
219.527	140
219.594	888
219.661	561
219.727	-350
219.794	693
219.860	-131
219.927	433
219.994	2045
220.060	6190
220.127	5490
220.193	1752
220.260	955
220.326	-161
220.393	642
220.460	-113
220.526	-384
220.593	-837
220.659	1525
220.726	76
220.792	532
220.859	-49
220.925	908
220.992	-213
221.058	700
221.125	787
221.191	216
221.258	-550
221.324	102
221.391	318
221.457	-564
221.524	176
221.590	337
221.657	512
221.723	347
221.789	-328
221.856	-42
221.922	-673
221.989	551
222.055	-288
222.121	-462
222.188	1969
222.254	1429
222.321	147
222.387	-338
222.453	-356
222.520	59
222.586	-686
222.652	-199
222.719	-997
222.785	-347
222.851	-681
222.918	-50
222.984	205
223.050	561
223.116	-1247
223.183	951
223.249	-1238
223.315	8
223.382	-755
223.448	-445
223.514	-733
223.580	-189
223.647	-805
223.713	-537
223.779	-966
223.845	-111
223.911	-266
223.978	-738
224.044	257
224.110	209
224.176	-479
224.242	23
224.309	-383
224.375	175
224.441	-603
224.507	-88
224.573	-866
224.639	652
224.705	-1710
224.772	-571
224.838	291
224.904	477
224.970	796
225.036	316
225.102	-529
225.168	1448
225.234	20
225.300	-50
225.366	-172
225.432	494
225.499	-285
225.565	159
225.631	-638
225.697	-244
225.763	-37
225.829	-40
225.895	-161
225.961	1153
226.027	662
226.093	-149
226.159	559
226.225	963
226.291	620
226.357	1469
226.423	316
226.489	1089
226.554	45
226.620	-66
226.686	553
226.752	1881
226.818	361
226.884	1270
226.950	2012
227.016	305
227.082	493
227.148	359
227.214	1369
227.279	950
227.345	306
227.411	1740
227.477	3317
227.543	11476
227.609	11107
227.674	4439
227.740	2104
227.806	2088
227.872	534
227.938	727
228.003	995
228.069	-242
228.135	-149
228.201	52
228.267	-382
228.332	409
228.398	600
228.464	670
228.530	4
228.595	247
228.661	-1137
228.727	1799
228.792	1914
228.858	-493
228.924	-1348
228.990	1908
229.055	-1138
229.121	970
229.187	-277
229.252	-99
229.318	-154
229.384	375
229.449	92
229.515	-820
229.581	-813
229.646	901
229.712	-67
229.777	2310
229.843	2731
229.909	862
229.974	858
230.040	397
230.105	234
230.171	453
230.236	284
230.302	648
230.368	710
230.433	-398
230.499	-74
230.564	4
230.630	-1066
230.695	-207
230.761	365
230.826	-248
230.892	1362
230.957	104
231.023	-209
231.088	315
231.154	258
231.219	927
231.284	709
231.350	881
231.415	-189
231.481	1062
231.546	135
231.612	357
231.677	-616
231.742	-572
231.808	450
231.873	-410
231.939	-1591
232.004	1692
232.069	2203
232.135	-229
232.200	-976
232.265	-180
232.331	-488
232.396	447
232.461	-828
232.527	455
232.592	-357
232.657	472
232.723	973
232.788	617
232.853	-109
232.918	527
232.984	-701
233.049	-724
233.114	-177
233.179	1235
233.245	1772
233.310	2766
233.375	-462
233.440	766
233.506	-326
233.571	-322
233.636	89
233.701	437
233.766	584
233.832	1835
233.897	143
233.962	-583
234.027	1441
234.092	450
234.157	-219
234.222	798
234.288	682
234.353	4746
234.418	4097
234.483	2063
234.548	861
234.613	672
234.678	1045
234.743	73
234.808	5022
234.873	2002
234.938	1297
235.004	422
235.069	382
235.134	279
235.199	357
235.264	656
235.329	-1263
235.394	-13
235.459	597
235.524	645
235.589	359
235.654	-241
235.719	-955
235.784	945
235.849	606
235.913	1393
235.978	2240
236.043	2773
236.108	1021
236.173	768
236.238	1319
236.303	-263
236.368	-247
236.433	1558
236.498	1791
236.563	988
236.627	348
236.692	2760
236.757	1973
236.822	1466
236.887	1328
236.952	986
237.017	-471
237.081	1672
237.146	553
237.211	1858
237.276	2132
237.341	8746
237.405	4880
237.470	1473
237.535	1265
237.600	744
237.664	667
237.729	606
237.794	-936
237.859	1363
237.923	851
237.988	1643
238.053	2127
238.118	2715
238.182	5988
238.247	7758
238.312	2019
238.376	2053
238.441	-180
238.506	1532
238.570	-570
238.635	1749
238.700	299
238.764	551
238.829	1905
238.893	3427
238.958	1050
239.023	2634
239.087	415
239.152	1657
239.216	-939
239.281	1410
239.346	208
239.410	187
239.475	377
239.539	7528
239.604	4976
239.668	3079
239.733	2739
239.797	8161
239.862	21117
239.926	17865
239.991	5948
240.055	3547
240.120	596
240.184	1843
240.249	-427
240.313	558
240.378	1014
240.442	4103
240.507	7181
240.571	1699
240.635	2404
240.700	3955
240.764	930
240.829	734
240.893	-166
240.957	1666
241.022	3200
241.086	7142
241.151	2550
241.215	-111
241.279	1099
241.344	2930
241.408	980
241.472	180
241.537	1170
241.601	299
241.665	-639
241.730	-36
241.794	966
241.858	-284
241.922	-210
241.987	891
242.051	-136
242.115	-936
242.179	474
242.244	106
242.308	556
242.372	594
242.436	-201
242.501	818
242.565	-55
242.629	63
242.693	974
242.757	92
242.822	-498
242.886	1
242.950	1003
243.014	139
243.078	-22
243.142	274
243.206	-642
243.271	227
243.335	493
243.399	919
243.463	-91
243.527	1738
243.591	-32
243.655	1344
243.719	-1011
243.783	1674
243.847	386
243.911	1336
243.975	2754
244.040	2486
244.104	1379
244.168	821
244.232	1060
244.296	2257
244.360	890
244.424	713
244.488	490
244.552	1429
244.615	-148
244.679	637
244.743	520
244.807	959
244.871	817
244.935	1157
244.999	-264
245.063	391
245.127	1532
245.191	1106
245.255	427
245.319	1753
245.383	-13
245.446	1900
245.510	0
245.574	1005
245.638	691
245.702	160
245.766	3742
245.829	3745
245.893	332
245.957	-61
246.021	908
246.085	1193
246.149	1702
246.212	6803
246.276	10357
246.340	4475
246.404	3152
246.467	2578
246.531	2548
246.595	2348
246.659	2017
246.722	1305
246.786	2468
246.850	2437
246.913	4184
246.977	-70
247.041	1674
247.104	1336
247.168	2110
247.232	5854
247.295	13621
247.359	7179
247.423	2038
247.486	5131
247.550	3736
247.614	2835
247.677	2835
247.741	1645
247.804	1952
247.868	2389
247.932	3640
247.995	14802
248.059	5226
248.122	1889
248.186	3245
248.249	5332
248.313	21908
248.376	25706
248.440	14310
248.503	5018
248.567	3863
248.630	4438
248.694	7138
248.757	9479
248.821	24171
248.884	14874
248.948	10168
249.011	17673
249.075	26005
249.138	25871
249.202	8180
249.265	3614
249.328	5608
249.392	3378
249.455	4048
249.519	2409
249.582	2748
249.645	5282
249.709	3434
249.772	1093
249.835	2095
249.899	2728
249.962	1916
250.025	1764
250.089	7011
250.152	10620
250.215	3934
250.279	2550
250.342	2866
250.405	2628
250.468	620
250.532	2223
250.595	2772
250.658	4809
250.721	8294
250.785	5108
250.848	4573
250.911	1417
250.974	2157
251.038	3314
251.101	12604
251.164	5045
251.227	4632
251.290	3222
251.354	2584
251.417	6957
251.480	6718
251.543	3934
251.606	13023
251.669	10291
251.732	4425
251.795	11160
251.859	10481
251.922	9097
251.985	6729
252.048	3385
252.111	2442
252.174	2642
252.237	8521
252.300	26927
252.363	14936
252.426	20965
252.489	11020
252.552	7290
252.615	3987
252.678	5756
252.741	16932
252.804	12315
252.867	14489
252.930	19012
252.993	13191
253.056	7913
253.119	4334
253.182	2213
253.245	2523
253.308	3756
253.371	4632
253.434	4824
253.497	3686
253.559	12155
253.622	7889
253.685	8669
253.748	8589
253.811	3718
253.874	5926
253.937	5128
254.000	3407
254.062	7408
254.125	12595
254.188	9224
254.251	8412
254.314	3808
254.376	6897
254.439	8518
254.502	6263
254.565	7634
254.628	15893
254.690	7516
254.753	4030
254.816	3569
254.878	3857
254.941	8359
255.004	10880
255.067	4363
255.129	2801
255.192	2733
255.255	1118
255.317	1869
255.380	1856
255.443	1388
255.505	532
255.568	1331
255.631	491
255.693	1961
255.756	628
255.819	1742
255.881	686
255.944	1617
256.006	132
256.069	837
256.132	141
256.194	1282
256.257	5444
256.319	3709
256.382	4164
256.444	3200
256.507	1277
256.569	1061
256.632	638
256.694	1450
256.757	1982
256.819	4820
256.882	1556
256.944	2085
257.007	1926
257.069	1583
257.132	1068
257.194	1775
257.257	414
257.319	273
257.381	93
257.444	2025
257.506	5277
257.569	8442
257.631	5846
257.693	5580
257.756	2409
257.818	2436
257.880	993
257.943	1661
258.005	265
258.067	689
258.130	1334
258.192	2278
258.254	3737
258.317	3495
258.379	707
258.441	5173
258.503	7426
258.566	6251
258.628	9646
258.690	1793
258.753	1777
258.815	4989
258.877	1339
258.939	1669
259.001	1058
259.064	361
259.126	1188
259.188	2724
259.250	904
259.312	1952
259.375	2232
259.437	2304
259.499	872
259.561	1499
259.623	547
259.685	113
259.747	720
259.809	6484
259.872	12922
259.934	18992
259.996	17866
260.058	4339
260.120	1193
260.182	2013
260.244	1833
260.306	1062
260.368	1610
260.430	1008
260.492	1450
260.554	3514
260.616	2918
260.678	9226
260.740	14801
260.802	2166
260.864	3379
260.926	951
260.988	2850
261.050	1629
261.112	1388
261.174	10501
261.236	11636
261.298	3170
261.359	4861
261.421	9901
261.483	1784
261.545	3117
261.607	721
261.669	1731
261.731	2674
261.793	9995
261.854	3355
261.916	2620
261.978	1079
262.040	1268
262.102	2432
262.164	3160
262.225	3590
262.287	1888
262.349	4805
262.411	4676
262.472	2112
262.534	3549
262.596	9384
262.658	3252
262.719	745
262.781	2761
262.843	7531
262.904	5258
262.966	2149
263.028	3233
263.090	7806
263.151	19502
263.213	6443
263.275	4192
263.336	1411
263.398	2059
263.459	363
263.521	1455
263.583	4161
263.644	3450
263.706	1454
263.767	52
263.829	1045
263.891	102
263.952	33
264.014	706
264.075	-75
264.137	497
264.198	1506
264.260	-295
264.321	475
264.383	1626
264.444	4161
264.506	473
264.567	609
264.629	1396
264.690	-1236
264.752	1206
264.813	30
264.875	170
264.936	989
264.998	639
265.059	1218
265.120	1761
265.182	-300
265.243	962
265.305	1566
265.366	625
265.427	634
265.489	1686
265.550	-759
265.611	958
265.673	1151
265.734	1430
265.795	-21
265.857	428
265.918	-652
265.979	853
266.040	2512
266.102	3051
266.163	1591
266.224	1606
266.286	984
266.347	-133
266.408	553
266.469	1978
266.530	928
266.592	692
266.653	1916
266.714	5645
266.775	1737
266.836	968
266.898	-19
266.959	288
267.020	212
267.081	1537
267.142	-104
267.203	455
267.264	-973
267.326	1320
267.387	669
267.448	361
267.509	131
267.570	1048
267.631	402
267.692	-538
267.753	754
267.814	-110
267.875	2286
267.936	7821
267.997	2553
268.058	1739
268.119	1028
268.180	1216
268.241	-229
268.302	1169
268.363	435
268.424	904
268.485	943
268.546	-203
268.607	73
268.668	700
268.729	-179
268.790	432
268.851	508
268.912	3289
268.972	4952
269.033	2471
269.094	163
269.155	1414
269.216	655
269.277	1149
269.338	1250
269.398	691
269.459	1004
269.520	2157
269.581	2153
269.642	3155
269.702	1322
269.763	1503
269.824	1175
269.885	1694
269.945	2930
270.006	2121
270.067	531
270.128	753
270.188	135
270.249	852
270.310	355
270.370	1411
270.431	1129
270.492	462
270.553	1171
270.613	2564
270.674	7023
270.734	3496
270.795	1730
270.856	2245
270.916	1513
270.977	2171
271.038	2108
271.098	2176
271.159	2845
271.219	3694
271.280	1854
271.340	1988
271.401	1058
271.462	4595
271.522	2803
271.583	1331
271.643	2367
271.704	2120
271.764	3008
271.825	6113
271.885	19589
271.946	35337
272.006	9688
272.066	12815
272.127	27183
272.187	13622
272.248	6180
272.308	4745
272.369	16736
272.429	10803
272.489	5175
272.550	5332
272.610	5335
272.671	4855
272.731	4265
272.791	7137
272.852	4562
272.912	3871
272.972	3047
273.033	2397
273.093	2984
273.153	4276
273.214	2442
273.274	2641
273.334	7484
273.394	23550
273.455	8917
273.515	6872
273.575	18688
273.635	8652
273.696	8875
273.756	24325
273.816	10265
273.876	4346
273.936	7315
273.997	17002
274.057	4924
274.117	3872
274.177	5366
274.237	25498
274.297	27755
274.358	16901
274.418	18502
274.478	16301
274.538	6244
274.598	4269
274.658	14727
274.718	19810
274.778	8611
274.838	5156
274.898	7219
274.958	25745
275.018	25084
275.078	19363
275.138	6468
275.198	3893
275.258	3123
275.318	4667
275.378	6647
275.438	8315
275.498	5361
275.558	10794
275.618	24676
275.678	19345
275.738	9649
275.798	7246
275.858	2864
275.918	2883
275.978	2579
276.038	3502
276.098	2759
276.157	4513
276.217	15456
276.277	8944
276.337	5347
276.397	3788
276.457	3742
276.517	3299
276.576	2495
276.636	1831
276.696	3797
276.756	10076
276.815	8203
276.875	4425
276.935	3554
276.995	4584
277.055	2148
277.114	3028
277.174	3566
277.234	12856
277.293	6762
277.353	2888
277.413	2211
277.472	2298
277.532	2843
277.592	2289
277.651	5039
277.711	12138
277.771	5329
277.830	15854
277.890	14800
277.950	8389
278.009	25707
278.069	11473
278.128	8701
278.188	13042
278.248	6149
278.307	11425
278.367	9598
278.426	3762
278.486	2615
278.545	2288
278.605	1899
278.664	1920
278.724	2752
278.783	7562
278.843	27090
278.902	8484
278.962	3912
279.021	3685
279.081	4603
279.140	4173
279.199	3281
279.259	3650
279.318	3024
279.378	4199
279.437	6441
279.496	24105
279.556	66967
279.615	63592
279.675	14713
279.734	7807
279.793	11409
279.853	21228
279.912	9034
279.971	5767
280.031	4709
280.090	7743
280.149	15179
280.208	9938
280.268	39601
280.327	58707
280.386	12576
280.445	10301
280.505	11143
280.564	5579
280.623	4156
280.682	6548
280.742	12416
280.801	4069
280.860	2271
280.919	2609
280.978	1945
281.037	1682
281.097	956
281.156	2619
281.215	1872
281.274	3730
281.333	14348
281.392	15321
281.451	3887
281.510	3069
281.569	2197
281.628	1686
281.688	933
281.747	2528
281.806	2025
281.865	1729
281.924	1752
281.983	2041
282.042	520
282.101	2087
282.160	1834
282.219	1593
282.278	1767
282.337	7541
282.396	6758
282.454	2410
282.513	2729
282.572	12092
282.631	8996
282.690	2341
282.749	1560
282.808	2633
282.867	2439
282.926	3111
282.985	2137
283.043	2433
283.102	1148
283.161	2734
283.220	6203
283.279	17128
283.338	5940
283.396	2437
283.455	2172
283.514	3227
283.573	4575
283.631	3987
283.690	2352
283.749	1919
283.808	5333
283.866	7946
283.925	2535
283.984	3224
284.043	2941
284.101	5067
284.160	2215
284.219	2893
284.277	2969
284.336	5090
284.395	17498
284.453	19079
284.512	6033
284.570	6782
284.629	6079
284.688	4606
284.746	4091
284.805	4561
284.863	5613
284.922	6229
284.981	7272
285.039	11534
285.098	18701
285.156	47238
285.215	149715
285.273	166775
285.332	65230
285.390	29526
285.449	18298
285.507	11786
285.566	8457
285.624	7555
285.683	5154
285.741	4502
285.799	3880
285.858	4580
285.916	4281
285.975	2815
286.033	1934
286.091	2584
286.150	1872
286.208	2432
286.267	2140
286.325	3061
286.383	4713
286.442	4942
286.500	2896
286.558	2078
286.616	1101
286.675	3475
286.733	2604
286.791	2686
286.850	2894
286.908	3833
286.966	7653
287.024	3883
287.083	1454
287.141	1662
287.199	1308
287.257	4515
287.315	3603
287.374	3267
287.432	7888
287.490	6530
287.548	2137
287.606	2123
287.664	540
287.723	2618
287.781	3498
287.839	2523
287.897	1870
287.955	2333
288.013	1307
288.071	3543
288.129	7246
288.187	31457
288.245	14448
288.303	3319
288.361	2746
288.419	2513
288.477	1664
288.535	1479
288.593	960
288.651	2279
288.709	1004
288.767	2537
288.825	1179
288.883	1535
288.941	1753
288.999	2069
289.057	1152
289.115	675
289.173	999
289.231	2033
289.289	2107
289.346	1913
289.404	2420
289.462	4502
289.520	4746
289.578	3375
289.636	1500
289.694	1563
289.751	1284
289.809	957
289.867	2382
289.925	3373
289.983	3486
290.040	1789
290.098	1299
290.156	2055
290.214	2833
290.271	2370
290.329	1954
290.387	1818
290.444	1745
290.502	1081
290.560	991
290.617	1706
290.675	1052
290.733	1767
290.790	1954
290.848	2627
290.906	1259
290.963	1909
291.021	1554
291.078	1573
291.136	1736
291.194	5469
291.251	14266
291.309	6417
291.366	2421
291.424	2469
291.481	2129
291.539	1461
291.596	2186
291.654	1627
291.711	1586
291.769	2761
291.826	5080
291.884	5043
291.941	2336
291.999	1862
292.056	2355
292.114	3097
292.171	2763
292.228	3899
292.286	3374
292.343	4814
292.401	6280
292.458	4621
292.515	3200
292.573	3691
292.630	4187
292.687	4475
292.745	2881
292.802	2836
292.859	4722
292.917	17848
292.974	15434
293.031	5003
293.089	2144
293.146	2617
293.203	1906
293.260	2084
293.318	2257
293.375	2261
293.432	1524
293.489	2736
293.546	2266
293.604	4071
293.661	10748
293.718	36755
293.775	20433
293.832	9185
293.889	6167
293.947	4433
294.004	3101
294.061	3653
294.118	7224
294.175	15029
294.232	7773
294.289	4773
294.346	3521
294.403	4087
294.460	3772
294.517	4496
294.574	3219
294.631	3775
294.688	4351
294.745	8485
294.802	32032
294.859	27361
294.916	10541
294.973	6075
295.030	4837
295.087	6107
295.144	3801
295.201	3962
295.258	3445
295.315	5502
295.372	13830
295.429	33950
295.486	16433
295.542	6255
295.599	3955
295.656	5536
295.713	8944
295.770	27219
295.827	13611
295.883	5347
295.940	4256
295.997	7230
296.054	8472
296.111	5456
296.167	3547
296.224	3035
296.281	2513
296.338	2580
296.394	2839
296.451	5229
296.508	10371
296.564	23805
296.621	16195
296.678	28761
296.734	52912
296.791	21747
296.848	8756
296.904	8775
296.961	18248
297.018	32196
297.074	27092
297.131	11747
297.187	8964
297.244	10601
297.301	28506
297.357	69206
297.414	29856
297.470	10689
297.527	6112
297.583	5273
297.640	5633
297.696	5008
297.753	3034
297.809	3016
297.866	2027
297.922	3222
297.979	3044
298.035	3424
298.092	5772
298.148	17893
298.204	22668
298.261	12070
298.317	13482
298.374	40121
298.430	32485
298.486	14197
298.543	8920
298.599	7002
298.656	6174
298.712	8305
298.768	12979
298.824	8213
298.881	3627
298.937	3916
298.993	4390
299.050	4901
299.106	5340
299.162	4430
299.218	4861
299.275	5975
299.331	5931
299.387	10257
299.443	36205
299.500	61972
299.556	37734
299.612	16169
299.668	11836
299.724	24141
299.780	35232
299.837	17637
299.893	14086
299.949	37903
300.005	58464
300.061	42783
300.117	70837
300.173	42045
300.229	17608
300.285	16918
300.341	19009
300.397	13300
300.453	8863
300.510	7741
300.566	9222
300.622	14102
300.678	40999
300.734	71655
300.790	49604
300.845	51306
300.901	39829
300.957	55443
301.013	40890
301.069	17671
301.125	10948
301.181	10043
301.237	9422
301.293	6465
301.349	5533
301.405	4841
301.461	4262
301.516	4801
301.572	4599
301.628	9442
301.684	9860
301.740	12244
301.796	21659
301.851	17643
301.907	23533
301.963	27125
302.019	36271
302.074	105101
302.130	121877
302.186	61749
302.242	23641
302.297	13788
302.353	11762
302.409	22619
302.464	23088
302.520	18217
302.576	34699
302.631	50167
302.687	29764
302.743	13700
302.798	6241
302.854	5560
302.910	5004
302.965	6343
303.021	10366
303.076	11605
303.132	13356
303.187	18292
303.243	11289
303.299	6462
303.354	3137
303.410	4048
303.465	3389
303.521	4239
303.576	4530
303.632	6802
303.687	10049
303.743	33195
303.798	36777
303.853	16957
303.909	7628
303.964	5737
304.020	7209
304.075	13964
304.130	12293
304.186	20300
304.241	23537
304.297	18905
304.352	10424
304.358	9919
304.407	5820
304.449	5122
304.463	4897
304.518	5138
304.539	5187
304.573	5252
304.629	6044
304.630	6091
304.684	8491
304.720	17034
304.739	21341
304.794	43008
304.811	37671
304.850	25002
304.902	11231
304.905	10337
304.960	5877
304.992	4368
305.015	3260
305.071	6253
305.083	5985
305.126	4994
305.173	4389
305.181	4297
305.236	2937
305.264	2932
305.292	2899
305.347	3613
305.354	3704
305.402	4354
305.445	4151
305.457	4097
305.512	5500
305.535	6115
305.567	6918
305.622	6445
305.626	6531
305.678	8845
305.716	20874
305.733	25548
305.788	39036
305.807	33992
305.843	25113
305.897	30178
305.898	30217
305.953	36807
305.988	25494
306.008	19149
306.063	8349
306.078	7499
306.118	5635
306.168	4353
306.173	4213
306.228	3147
306.259	3236
306.283	3354
306.338	2603
306.349	2567
306.393	2468
306.440	2617
306.448	2647
306.503	3636
306.530	3460
306.558	3360
306.613	4743
306.620	5128
306.668	8835
306.711	19981
306.723	22382
306.778	24972
306.801	20041
306.833	13848
306.888	6450
306.892	6242
306.943	4017
306.982	2719
306.997	2239
307.052	2744
307.072	2468
307.107	2081
307.162	2899
307.163	2894
307.217	2047
307.253	2041
307.272	2138
307.327	2245
307.343	2454
307.381	2730
307.434	2404
307.436	2462
307.491	5257
307.524	8843
307.546	10421
307.600	18289
307.614	16727
307.655	11288
307.704	5921
307.710	5436
307.765	2945
307.795	2858
307.819	2760
307.874	3346
307.885	3315
307.929	3253
307.975	3510
307.984	3585
308.038	4384
308.065	4595
308.093	6063
308.148	11961
308.156	13933
308.202	24180
308.246	32437
308.257	33427
308.312	20656
308.336	17971
308.366	15826
308.421	13831
308.426	13272
308.475	8038
308.517	4894
308.530	3986
308.585	2896
308.607	2389
308.639	1841
308.694	2293
308.697	2282
308.748	2213
308.787	2354
308.803	2326
308.857	1938
308.877	1995
308.912	2258
308.967	2629
308.967	2647
309.021	3891
309.058	4894
309.076	6032
309.130	11823
309.148	14117
309.185	22867
309.238	38008
309.239	38030
309.293	48696
309.328	41660
309.348	36349
309.402	17341
309.418	13573
309.457	8861
309.508	6025
309.511	5866
309.566	5433
309.598	5523
309.620	6182
309.674	8598
309.688	9321
309.729	9235
309.778	8008
309.783	7965
309.837	7634
309.868	7537
309.892	9279
309.946	15076
309.959	17692
310.001	24499
310.049	29873
310.055	29435
310.109	20308
310.139	13749
310.163	10282
310.218	5724
310.229	5085
310.272	3784
310.319	3644
310.326	3490
310.381	2387
310.409	1972
310.435	1935
310.489	1900
310.499	1908
310.543	1859
310.589	1948
310.598	1891
310.652	1647
310.679	1449
310.706	1342
310.760	1091
310.769	1085
310.814	1257
310.859	1491
310.868	1588
310.923	1908
310.948	2143
310.977	2110
311.031	1995
311.038	1998
311.085	2228
311.128	2328
311.139	2224
311.193	1849
311.218	1612
311.247	1640
311.301	1759
311.308	1768
311.356	1394
311.398	1182
311.410	1262
311.464	1596
311.488	1777
311.518	1611
311.572	1249
311.578	1233
311.626	2016
311.668	2658
311.680	2624
311.734	2449
311.758	2370
311.788	1872
311.842	1018
311.847	940
311.896	1280
311.937	1645
311.950	1599
312.004	1419
312.027	1364
312.058	1590
312.112	2005
312.117	2056
312.165	1324
312.207	722
312.297	587
312.386	1513
312.476	1608
312.566	4557
312.656	1579
312.745	1093
312.835	1141
312.925	1195
313.015	1423
313.104	1343
313.194	1915
313.284	1463
313.374	2709
313.463	3183
313.553	2096
313.643	1947
313.732	1746
313.822	1908
313.912	2823
314.001	2275
314.091	2763
314.180	3174
314.270	3211
314.360	3390
314.449	3643
314.539	2291
314.628	2265
314.718	2378
314.808	2873
314.897	3021
314.987	3697
315.076	4747
315.166	4815
315.255	3863
315.345	4145
315.434	4361
315.524	4558
315.613	6439
315.703	10914
315.792	33515
315.881	124521
315.971	39206
316.060	9572
316.150	4898
316.239	3855
316.328	3048
316.418	3834
316.507	3453
316.597	5196
316.686	3658
316.775	3671
316.865	4195
316.954	3778
317.043	3387
317.133	3289
317.222	3591
317.311	3197
317.400	3475
317.490	5838
317.579	7129
317.668	8328
317.757	17414
317.847	57921
317.936	186405
318.025	58544
318.114	47712
318.203	19624
318.293	6655
318.382	6291
318.471	6703
318.560	5307
318.649	3905
318.738	3241
318.828	3516
318.917	3475
319.006	2915
319.095	2905
319.184	5314
319.273	7387
319.362	6439
319.451	3230
319.540	2791
319.629	6124
319.718	8581
319.807	3357
319.896	3682
319.985	6015
320.074	5350
320.163	2104
320.252	1834
320.341	2248
320.430	2386
320.519	4753
320.608	2853
320.697	3219
320.786	3684
320.875	4965
320.964	6651
321.053	9086
321.142	10346
321.230	10791
321.319	9329
321.408	16041
321.497	9541
321.586	8194
321.675	5836
321.764	5987
321.852	6003
321.941	10191
322.030	6682
322.119	7505
322.207	15622
322.296	7667
322.385	7865
322.474	13056
322.562	24082
322.651	10960
322.740	8962
322.829	8481
322.917	5359
323.006	5055
323.095	5276
323.183	3227
323.272	4732
323.361	4562
323.449	5075
323.538	3294
323.626	3786
323.715	3071
323.804	2166
323.892	4406
323.981	5208
324.069	2693
324.158	2240
324.246	2744
324.335	3389
324.424	5497
324.512	2792
324.601	3206
324.689	2567
324.778	3422
324.866	3450
324.954	2206
325.043	2120
325.131	1251
325.220	3180
325.308	1905
325.397	2017
325.485	2687
325.574	2241
325.662	2643
325.750	2543
325.839	2119
325.927	1540
326.015	1756
326.104	2033
326.192	1797
326.280	1725
326.369	1632
326.457	2957
326.545	4612
326.634	2961
326.722	1489
326.810	2565
326.898	2812
326.987	2591
327.075	3920
327.163	3457
327.251	1612
327.340	2251
327.428	3846
327.516	3339
327.604	2213
327.692	2087
327.781	1757
327.869	1214
327.957	2486
328.045	1995
328.133	2206
328.221	1438
328.309	1838
328.397	1867
328.485	2672
328.574	5810
328.662	11341
328.750	5334
328.838	2188
328.926	2193
329.014	2354
329.102	2050
329.190	3588
329.278	3010
329.366	898
329.454	1674
329.542	1307
329.630	830
329.718	2519
329.806	1806
329.893	1860
329.981	747
330.069	1543
330.157	1285
330.245	1342
330.333	1998
330.421	2039
330.509	4137
330.597	11069
330.684	6783
330.772	2359
330.860	1279
330.948	1877
331.036	1729
331.123	1744
331.211	1615
331.299	1835
331.387	2219
331.475	1900
331.562	987
331.650	1280
331.738	1194
331.825	1563
331.913	1057
332.001	1498
332.089	1514
332.176	1206
332.264	2174
332.352	1279
332.439	1336
332.527	1074
332.614	1081
332.702	1475
332.790	2145
332.877	2135
332.965	2069
333.052	1590
333.140	1797
333.228	3367
333.315	2232
333.403	1504
333.490	1997
333.578	1824
333.665	3989
333.753	3123
333.840	2250
333.928	1905
334.015	2818
334.103	3192
334.190	5193
334.278	6580
334.365	9301
334.452	9597
334.540	6343
334.627	5300
334.715	6816
334.802	10139
334.889	15239
334.977	22778
335.064	15485
335.151	7271
335.239	5323
335.326	3852
335.413	4291
335.501	4041
335.588	5122
335.675	5019
335.762	5753
335.850	7811
335.937	12266
336.024	20375
336.111	32457
336.199	31607
336.286	13578
336.373	6459
336.460	4304
336.547	3806
336.635	4224
336.722	4149
336.809	2890
336.896	3243
336.983	4645
337.070	4753
337.157	2318
337.245	2356
337.332	2567
337.419	2301
337.506	1709
337.593	1937
337.680	1163
337.767	1896
337.854	2718
337.941	2939
338.028	5077
338.115	2466
338.202	2638
338.289	2403
338.376	2720
338.463	1997
338.550	1306
338.637	2140
338.724	1697
338.811	2052
338.898	2177
338.984	1604
339.071	1272
339.158	2998
339.245	5795
339.332	4562
339.419	2236
339.506	2433
339.593	901
339.679	2670
339.766	1650
339.853	2237
339.940	4276
340.027	2039
340.113	1938
340.200	3023
340.287	1621
340.374	2522
340.460	3994
340.547	931
340.634	4431
340.720	12937
340.807	5604
340.894	2108
340.980	2009
341.067	2110
341.154	3120
341.240	3711
341.327	6371
341.414	4081
341.500	4240
341.587	2267
341.674	2472
341.760	4901
341.847	4227
341.933	2332
342.020	798
342.106	2380
342.193	2705
342.279	3253
342.366	3312
342.452	4137
342.539	2750
342.625	7084
342.712	12658
342.798	6134
342.885	2327
342.971	891
343.058	1313
343.144	1441
343.230	2376
343.317	2604
343.403	1922
343.490	2407
343.576	756
343.662	1918
343.749	2775
343.835	3289
343.921	6670
344.008	38388
344.094	67120
344.180	12750
344.267	6137
344.353	17445
344.439	13636
344.525	5953
344.612	3216
344.698	2689
344.784	1622
344.870	1960
344.957	1776
345.043	3847
345.129	2166
345.215	3948
345.301	3144
345.387	1702
345.474	1511
345.560	1357
345.646	1105
345.732	2656
345.818	3561
345.904	2866
345.990	1980
346.076	2575
346.162	3390
346.249	2508
346.335	1453
346.421	3989
346.507	11152
346.593	24990
346.679	4268
346.765	3597
346.851	3826
346.937	2392
347.023	3367
347.108	3221
347.194	2168
347.280	2757
347.366	3812
347.452	14626
347.538	35600
347.624	23458
347.710	14617
347.796	3072
347.882	1961
347.967	1949
348.053	1883
348.139	1247
348.225	1419
348.311	2122
348.397	2143
348.482	2612
348.568	3726
348.654	3096
348.740	9545
348.825	7477
348.911	6247
348.997	17820
349.083	26751
349.168	4001
349.254	3066
349.340	2437
349.425	2032
349.511	2039
349.597	3380
349.682	6223
349.768	16760
349.854	6721
349.939	1766
350.025	1469
350.110	2167
350.196	1920
350.282	709
350.367	2120
350.453	2363
350.538	2114
350.624	1616
350.709	2370
350.795	1298
350.880	2290
350.966	2553
351.051	2243
351.137	2115
351.222	1911
351.308	6764
351.393	12760
351.479	5006
351.564	2206
351.649	2134
351.735	1576
351.820	2202
351.906	2538
351.991	2473
352.076	9895
352.162	11989
352.247	2830
352.332	3702
352.418	6340
352.503	7103
352.588	21228
352.673	13729
352.759	3957
352.844	2122
352.929	2924
353.014	2010
353.100	2419
353.185	2344
353.270	3916
353.355	5254
353.441	2897
353.526	2335
353.611	5471
353.696	4629
353.781	3367
353.866	2014
353.952	3312
354.037	5462
354.122	10476
354.207	8664
354.292	3148
354.377	2296
354.462	2065
354.547	1668
354.632	3051
354.717	1973
354.802	1836
354.887	1800
354.972	1596
355.057	1905
355.142	1709
355.227	2508
355.312	3510
355.397	8836
355.482	15648
355.567	6291
355.652	6633
355.737	7658
355.822	20960
355.907	12914
355.991	3633
356.076	1373
356.161	2301
356.246	2121
356.331	2250
356.416	6673
356.501	38740
356.585	30535
356.670	5249
356.755	5130
356.840	5716
356.924	27392
357.009	79588
357.094	26513
357.179	6748
357.263	4000
357.348	4803
357.433	4108
357.517	4096
357.602	3419
357.687	2360
357.771	2752
357.856	2858
357.941	5440
358.025	24500
358.110	86123
358.195	33276
358.279	6491
358.364	5368
358.448	17210
358.533	35321
358.617	24349
358.702	23670
358.787	8984
358.871	7057
358.956	4248
359.040	2285
359.125	2355
359.209	2789
359.294	2441
359.378	3937
359.462	5439
359.547	3401
359.631	1983
359.716	1530
359.800	1915
359.885	3229
359.969	1460
360.053	2277
360.138	2408
360.222	3602
360.306	5555
360.391	3717
360.475	6016
360.559	10063
360.644	13680
360.728	9611
360.812	24201
360.896	49904
360.981	15829
361.065	6850
361.149	3895
361.233	3787
361.318	2431
361.402	3151
361.486	4191
361.570	3104
361.654	4555
361.739	9811
361.823	38191
361.907	49889
361.991	10288
362.075	7907
362.159	13283
362.243	16114
362.327	29687
362.411	40667
362.495	14762
362.580	8474
362.664	7341
362.748	7805
362.832	12423
362.916	27932
363.000	76924
363.084	121715
363.168	80866
363.252	19605
363.336	9499
363.420	8622
363.503	6043
363.587	5375
363.671	6122
363.755	5345
363.839	8646
363.923	6041
364.007	11311
364.091	12035
364.175	14061
364.258	35687
364.342	84147
364.426	147686
364.510	72607
364.594	22540
364.677	19422
364.761	51904
364.845	31432
364.929	10959
365.013	8461
365.096	8660
365.180	7639
365.264	3651
365.347	4019
365.431	2745
365.515	2089
365.598	2503
365.682	3898
365.766	1662
365.849	2255
365.933	3044
366.017	3897
366.100	2027
366.184	2423
366.267	2576
366.351	2457
366.435	2234
366.518	1879
366.602	3046
366.685	3785
366.769	2804
366.852	3474
366.936	5517
367.019	3815
367.103	1633
367.186	4496
367.270	3407
367.353	2593
367.436	4277
367.520	2672
367.603	4474
367.687	4709
367.770	7089
367.853	6086
367.937	16199
368.020	21030
368.104	5154
368.187	6043
368.270	7360
368.353	5518
368.437	4534
368.520	4418
368.603	5792
368.687	16161
368.770	24871
368.853	6780
368.936	6128
369.020	4034
369.103	2217
369.186	1713
369.269	2014
369.352	5150
369.436	5158
369.519	4003
369.602	1216
369.685	4097
369.768	2085
369.851	2430
369.934	1843
370.018	2621
370.101	5153
370.184	6011
370.267	4008
370.350	4767
370.433	10021
370.516	37892
370.599	79916
370.682	31427
370.765	18284
370.848	20896
370.931	31778
371.014	10932
371.097	2435
371.180	3852
371.263	2882
371.346	1560
371.429	2789
371.511	2226
371.594	3353
371.677	5383
371.760	4565
371.843	7111
371.926	37072
372.009	71337
372.091	20100
372.174	15033
372.257	32387
372.340	10415
372.423	5556
372.505	5723
372.588	5125
372.671	13993
372.754	32868
372.836	13623
372.919	4096
373.002	4879
373.085	3719
373.167	7522
373.250	17616
373.332	34549
373.415	52832
373.498	96429
373.580	45828
373.663	120645
373.746	119692
373.828	20683
373.911	8816
373.993	5192
374.076	5335
374.159	4734
374.241	11660
374.324	29805
374.406	19583
374.489	34456
374.571	79310
374.654	28659
374.736	19110
374.819	50810
374.901	71973
374.983	65815
375.066	12200
375.148	5591
375.231	5373
375.313	6926
375.395	6602
375.478	5528
375.560	5132
375.643	6436
375.725	18326
375.807	60133
375.890	32879
375.972	6395
376.054	6845
376.136	4321
376.219	4958
376.301	22187
376.383	48368
376.465	17191
376.548	10309
376.630	16679
376.712	42463
376.794	16794
376.877	3871
376.959	2381
377.041	3393
377.123	1937
377.205	1914
377.287	1426
377.369	3551
377.452	2677
377.534	3043
377.616	3346
377.698	2376
377.780	2082
377.862	3095
377.944	3311
378.026	1856
378.108	2967
378.190	2290
378.272	2546
378.354	2413
378.436	2030
378.518	2089
378.600	4702
378.682	8067
378.764	20143
378.846	12612
378.928	4619
379.010	5880
379.091	4334
379.173	2625
379.255	2282
379.337	4248
379.419	12560
379.501	28342
379.583	9328
379.664	4250
379.746	7874
379.828	21833
379.910	26243
379.991	20760
380.073	4169
380.155	3267
380.237	2849
380.318	2600
380.400	3036
380.482	5996
380.564	6951
380.645	5835
380.727	5119
380.809	4620
380.890	3025
380.972	1869
381.053	2509
381.135	4091
381.217	8732
381.298	20409
381.380	8791
381.461	10907
381.543	44509
381.624	43914
381.706	8214
381.787	3957
381.869	6073
381.951	24637
382.032	76882
382.113	41778
382.195	6760
382.276	7116
382.358	15244
382.439	40164
382.521	46642
382.602	67084
382.684	29205
382.765	48799
382.846	34576
382.928	29755
383.009	14988
383.090	15973
383.172	47519
383.253	61002
383.334	31727
383.416	52466
383.497	23722
383.578	8683
383.659	15202
383.741	47466
383.822	98320
383.903	45920
383.984	35218
384.066	64121
384.147	34811
384.228	9427
384.309	9003
384.390	6639
384.471	5854
384.553	5700
384.634	6315
384.715	7181
384.796	4764
384.877	6616
384.958	21019
385.039	19787
385.120	8771
385.201	5424
385.282	5277
385.363	5635
385.444	5323
385.525	10881
385.606	31660
385.687	25601
385.768	8095
385.849	10368
385.930	41784
386.011	62086
386.092	16089
386.173	6647
386.254	5182
386.335	5762
386.416	6085
386.496	15014
386.577	19265
386.658	7904
386.739	5691
386.820	6260
386.901	4424
386.981	6970
387.062	7137
387.143	11489
387.224	25306
387.304	20807
387.385	11480
387.466	6729
387.547	8857
387.627	9801
387.708	17018
387.789	43106
387.869	43314
387.950	14376
388.031	6527
388.111	4188
388.192	7581
388.273	7977
388.353	7110
388.434	5962
388.514	12188
388.595	41944
388.676	45219
388.756	20788
388.837	20454
388.917	10690
388.998	2777
389.078	5101
389.159	4792
389.239	3444
389.320	6843
389.400	4634
389.480	11202
389.561	21838
389.641	11306
389.722	6397
389.802	7508
389.883	13685
389.963	28362
390.043	12715
390.124	4493
390.204	10476
390.284	23934
390.365	12673
390.445	5450
390.525	5207
390.605	11053
390.686	9226
390.766	6194
390.846	5860
390.927	4971
391.007	3850
391.087	6041
391.167	4523
391.247	4163
391.328	6442
391.408	6659
391.488	6192
391.568	4413
391.648	7574
391.728	9782
391.808	10138
391.888	9491
391.969	19861
392.049	22644
392.129	12235
392.209	17433
392.289	32402
392.369	18441
392.449	13271
392.529	14886
392.609	18792
392.689	23568
392.769	42479
392.849	40206
392.929	43067
393.009	70534
393.089	86446
393.169	145439
393.248	344894
393.328	732862
393.408	729144
393.488	311061
393.568	124906
393.648	66198
393.728	42444
393.807	29005
393.887	24367
393.967	20281
394.047	17599
394.127	15043
394.206	13983
394.286	20007
394.366	48754
394.446	43166
394.525	13806
394.605	9821
394.685	10532
394.764	11470
394.844	16295
394.924	17517
395.003	10893
395.083	9173
395.163	8490
395.242	7484
395.322	8259
395.402	6511
395.481	9358
395.561	10806
395.640	29328
395.720	41192
395.799	17625
395.879	10747
395.958	10203
396.038	22733
396.117	69646
396.197	63282
396.276	22658
396.356	18520
396.435	21685
396.515	33137
396.594	53207
396.673	114074
396.753	319434
396.832	662019
396.912	481628
396.991	149650
397.070	60391
397.150	34308
397.229	28401
397.308	43962
397.388	61426
397.467	27979
397.546	13832
397.625	8526
397.705	11830
397.784	9243
397.863	7258
397.942	6526
398.022	6382
398.101	5229
398.180	6078
398.259	4582
398.338	6020
398.417	5840
398.497	4286
398.576	4835
398.655	3289
398.734	4795
398.813	3223
398.892	3437
398.971	3684
399.050	2782
399.129	2583
399.208	3789
399.287	3839
399.366	2897
399.445	2514
399.524	3754
399.603	2101
399.682	4667
399.761	5326
399.840	4414
399.919	3663
399.998	2475
400.077	1490
400.156	1721
400.235	4653
400.313	2324
400.392	2438
400.471	13302
400.550	16421
400.629	4251
400.708	3366
400.786	2106
400.865	1835
400.944	2122
401.023	4322
401.102	2287
401.180	1928
401.259	2168
401.338	1737
401.416	2812
401.495	2327
401.574	2686
401.652	1437
401.731	3402
401.810	1145
401.888	1431
401.967	809
402.046	1449
402.124	3346
402.203	2160
402.281	2732
402.360	1236
402.438	2189
402.517	1358
402.596	1627
402.674	1359
402.753	953
402.831	1345
402.910	3221
402.988	4539
403.066	9423
403.145	5825
403.223	6150
403.302	7256
403.380	6616
403.459	5228
403.537	3028
403.615	1419
403.694	1036
403.772	3207
403.850	2238
403.929	1588
404.007	1750
404.085	3399
404.164	2368
404.242	2035
404.320	3464
404.398	3955
404.477	14390
404.555	59457
404.633	41353
404.711	6107
404.789	3661
404.868	1455
404.946	888
405.024	1818
405.102	1766
405.180	1111
405.258	427
405.336	2264
405.415	439
405.493	2364
405.571	2490
405.649	657
405.727	600
405.805	2596
405.883	2881
405.961	2636
406.039	1588
406.117	788
406.195	4192
406.273	15826
406.351	46267
406.429	20976
406.507	2167
406.585	1813
406.663	3060
406.740	2690
406.818	1468
406.896	2270
406.974	2956
407.052	5269
407.130	30017
407.208	33284
407.285	6537
407.363	1747
407.441	1917
407.519	2313
407.596	5575
407.674	24073
407.752	85997
407.830	55608
407.907	7213
407.985	1603
408.063	2622
408.141	1463
408.218	1978
408.296	657
408.373	2103
408.451	3416
408.529	2924
408.606	2631
408.684	1915
408.762	2158
408.839	1936
408.917	2489
408.994	1935
409.072	1937
409.149	4082
409.227	7731
409.304	11055
409.382	11487
409.459	13827
409.537	17800
409.614	14041
409.692	9987
409.769	11137
409.846	20299
409.924	21140
410.001	11854
410.079	8229
410.156	6953
410.233	5150
410.311	4059
410.388	3230
410.465	4813
410.543	2728
410.620	4423
410.697	3914
410.775	4512
410.852	3144
410.929	5401
411.006	4231
411.083	2696
411.161	2535
411.238	3520
411.315	2347
411.392	2173
411.469	3008
411.547	2885
411.624	592
411.701	1874
411.778	2427
411.855	3822
411.932	2045
412.009	819
412.086	2030
412.163	1914
412.240	1676
412.317	1716
412.394	1882
412.471	1285
412.548	1564
412.625	1076
412.702	1478
412.779	1513
412.856	1365
412.933	1168
413.010	1590
413.087	2851
413.164	10517
413.241	11725
413.318	3214
413.395	3247
413.471	2141
413.548	1773
413.625	1798
413.702	235
413.779	1555
413.855	1254
413.932	518
414.009	477
414.086	1693
414.162	1266
414.239	2775
414.316	11513
414.393	21890
414.469	5384
414.546	592
414.623	591
414.699	864
414.776	869
414.853	388
414.929	808
415.006	294
415.082	627
415.159	901
415.236	1240
415.312	1232
415.389	3365
415.465	2371
415.542	1685
415.618	702
415.695	2877
415.771	1354
415.848	1315
415.924	1227
416.000	1435
416.077	1673
416.153	238
416.230	264
416.306	1038
416.383	279
416.459	996
416.535	798
416.612	217
416.688	258
416.764	496
416.841	394
416.917	525
416.993	1424
417.069	1163
417.146	504
417.222	1070
417.298	1054
417.374	329
417.451	1130
417.527	1562
417.603	1015
417.679	1944
417.755	1085
417.831	132
417.908	880
417.984	420
418.060	1212
418.136	4029
418.212	3327
418.288	1257
418.364	1643
418.440	827
418.516	2718
418.592	1414
418.668	4915
418.744	6956
418.820	4688
418.896	981
418.972	496
419.048	1850
419.124	4583
419.200	2313
419.276	1851
419.352	369
419.428	1880
419.504	2048
419.579	2431
419.655	2556
419.731	2241
419.807	5998
419.883	8810
419.959	6382
420.034	2381
420.110	5337
420.186	14948
420.262	10620
420.337	2929
420.413	2797
420.489	2305
420.565	3553
420.640	2627
420.716	3397
420.792	2179
420.867	3650
420.943	2486
421.019	5277
421.094	4100
421.170	4454
421.245	3957
421.321	5005
421.397	7968
421.472	25294
421.548	62715
421.623	33770
421.699	11460
421.774	9984
421.850	10713
421.925	13650
422.001	14689
422.076	17518
422.152	21798
422.227	29979
422.302	42617
422.378	65619
422.453	109655
422.529	190882
422.604	295384
422.679	364753
422.755	316741
422.830	179995
422.905	99121
422.981	62180
423.056	42149
423.131	31946
423.207	23581
423.282	18803
423.357	19377
423.432	14138
423.508	13654
423.583	15769
423.658	11398
423.733	8150
423.808	8079
423.883	8531
423.959	8346
424.034	10032
424.109	9047
424.184	5398
424.259	4416
424.334	4507
424.409	3700
424.484	3344
424.559	3239
424.634	3070
424.709	3193
424.784	4094
424.859	2710
424.934	3961
425.009	12924
425.084	18328
425.159	7010
425.234	2887
425.309	1377
425.384	1959
425.459	875
425.534	2138
425.609	1943
425.683	676
425.758	1603
425.833	2025
425.908	3693
425.983	8947
426.058	18409
426.132	6905
426.207	2263
426.282	3077
426.357	1206
426.431	1270
426.506	1577
426.581	1193
426.655	1695
426.730	1243
426.805	1024
426.879	2076
426.954	1654
427.029	4090
427.103	21277
427.178	43004
427.253	17749
427.327	2850
427.402	1108
427.476	715
427.551	1282
427.625	1811
427.700	1265
427.774	357
427.849	2055
427.923	825
427.998	1722
428.072	2750
428.147	7839
428.221	40704
428.296	110812
428.370	56325
428.444	8326
428.519	2776
428.593	2180
428.667	2271
428.742	3610
428.816	14051
428.890	68936
428.965	94724
429.039	23341
429.113	4357
429.188	2851
429.262	2374
429.336	3873
429.410	9464
429.485	5229
429.559	2289
429.633	2444
429.707	3076
429.781	13591
429.855	65083
429.930	89395
430.004	24651
430.078	12983
430.152	44565
430.226	152948
430.300	141432
430.374	29815
430.448	8172
430.522	5004
430.596	6431
430.670	25695
430.744	105562
430.818	114914
430.892	22688
430.966	4841
431.040	2976
431.114	994
431.188	809
431.262	1857
431.336	690
431.410	1605
431.484	2396
431.557	4002
431.631	2385
431.705	5653
431.779	32405
431.853	108330
431.927	69720
432.000	11091
432.074	2975
432.148	1373
432.222	663
432.295	972
432.369	937
432.443	2324
432.516	19720
432.590	44334
432.664	16465
432.737	1811
432.811	217
432.885	-166
432.958	437
433.032	-187
433.106	66
433.179	377
433.253	317
433.326	166
433.400	-78
433.473	226
433.547	-110
433.620	267
433.694	1666
433.767	1776
433.841	-151
433.914	56
433.988	181
434.061	274
434.134	467
434.208	632
434.281	-38
434.355	206
434.428	-340
434.501	32
434.575	83
434.648	-333
434.721	395
434.795	-153
434.868	-87
434.941	145
435.014	660
435.088	594
435.161	1463
435.234	2238
435.307	2941
435.381	3523
435.454	4811
435.527	10121
435.600	9966
435.673	6840
435.746	5080
435.819	3970
435.892	2923
435.966	1432
436.039	1399
436.112	1589
436.185	940
436.258	706
436.331	-230
436.404	667
436.477	129
436.550	237
436.623	200
436.696	220
436.769	683
436.842	149
436.915	570
436.987	501
437.060	348
437.133	-527
437.206	-18
437.279	78
437.352	242
437.425	241
437.498	444
437.570	2349
437.643	872
437.716	515
437.789	-193
437.861	-470
437.934	-258
438.007	-410
438.080	872
438.152	898
438.225	3802
438.298	28548
438.370	72865
438.443	29938
438.516	3319
438.588	705
438.661	590
438.734	-94
438.806	-42
438.879	1393
438.951	-82
439.024	-602
439.096	-863
439.169	-356
439.241	-48
439.314	-544
439.386	-311
439.459	-671
439.531	22
439.604	-728
439.676	661
439.749	-115
439.821	-609
439.893	-1057
439.966	134
440.038	-57
440.110	1166
440.183	89
440.255	121
440.327	2144
440.400	11076
440.472	42940
440.544	31313
440.617	3511
440.689	1669
440.761	887
440.833	1297
440.905	992
440.978	-426
441.050	-414
441.122	255
441.194	122
441.266	363
441.338	272
441.411	2530
441.483	14145
441.555	21706
441.627	5015
441.699	1966
441.771	998
441.843	747
441.915	461
441.987	1206
442.059	1370
442.131	1522
442.203	2358
442.275	4450
442.347	7879
442.419	20489
442.491	89744
442.563	182702
442.635	88064
442.706	19998
442.778	9741
442.850	5026
442.922	4936
442.994	3825
443.066	4791
443.137	6479
443.209	8074
443.281	13744
443.353	30187
443.425	105861
443.496	295864
443.568	317351
443.640	141828
443.711	35736
443.783	12575
443.855	6771
443.926	4432
443.998	3108
444.070	3769
444.141	3490
444.213	4072
444.285	5285
444.356	3522
444.428	2681
444.499	2305
444.571	1897
444.642	2868
444.714	3260
444.785	3690
444.857	4594
444.928	3565
445.000	4448
445.071	6165
445.143	7469
445.214	14004
445.285	23917
445.357	62079
445.428	205312
445.500	396289
445.571	318900
445.642	198521
445.714	72975
445.785	23195
445.856	11351
445.928	9305
445.999	6702
446.070	3355
446.141	4446
446.213	3790
446.284	2122
446.355	1428
446.426	1389
446.497	1198
446.569	845
446.640	2506
446.711	3077
446.782	841
446.853	1233
446.924	889
446.995	1193
447.066	207
447.138	230
447.209	522
447.280	351
447.351	-882
447.422	-661
447.493	-237
447.564	1490
447.635	2207
447.706	264
447.777	-341
447.847	164
447.918	-1411
447.989	18
448.060	59
448.131	-74
448.202	608
448.273	1700
448.344	183
448.414	356
448.485	199
448.556	57
448.627	-453
448.698	408
448.768	-1260
448.839	-743
448.910	-903
448.981	-10
449.051	-119
449.122	-641
449.193	-523
449.263	-36
449.334	-568
449.405	970
449.475	3096
449.546	2340
449.616	162
449.687	-288
449.758	-383
449.828	-480
449.899	-514
449.969	-1505
450.040	-526
450.110	-977
450.181	-1126
450.251	-196
450.322	-180
450.392	227
450.463	528
450.533	-849
450.604	-497
450.674	-205
450.744	600
450.815	62
450.885	718
450.955	1344
451.026	889
451.096	463
451.166	647
451.237	915
451.307	2306
451.377	-203
451.447	359
451.518	-401
451.588	-851
451.658	504
451.728	-152
451.799	677
451.869	-576
451.939	-166
452.009	-291
452.079	-122
452.149	37
452.219	-198
452.289	142
452.360	-238
452.430	492
452.500	2321
452.570	4108
452.640	11404
452.710	27082
452.780	29983
452.850	23216
452.920	17057
452.990	8021
453.060	4066
453.129	2757
453.199	2022
453.269	1138
453.339	524
453.409	-91
453.479	-281
453.549	443
453.619	-435
453.688	-316
453.758	-226
453.828	-635
453.898	-1022
453.968	-3
454.037	540
454.087	-422
454.107	-849
454.168	-423
454.177	-396
454.247	-319
454.249	-290
454.316	-274
454.330	-273
454.386	-404
454.411	-529
454.456	-864
454.492	-614
454.525	-410
454.574	-179
454.595	-128
454.655	-106
454.665	-140
454.734	289
454.736	361
454.804	1209
454.817	1035
454.873	153
454.898	65
454.943	-131
454.979	-139
455.013	-222
455.060	214
455.082	342
455.141	460
455.152	463
455.221	599
455.222	633
455.291	508
455.303	793
455.360	1661
455.384	2294
455.430	2858
455.465	2509
455.499	2194
455.546	1377
455.569	1041
455.627	1774
455.638	1796
455.707	815
455.708	847
455.777	451
455.789	528
455.846	808
455.869	891
455.916	1041
455.950	1214
455.985	1225
456.031	689
456.054	407
456.112	1413
456.124	1565
456.193	1125
456.193	1090
456.262	1538
456.274	1587
456.332	1430
456.355	1472
456.401	1669
456.436	1887
456.470	1943
456.516	2076
456.540	2098
456.597	2252
456.609	2247
456.678	3122
456.678	3088
456.747	1935
456.759	1957
456.817	2294
456.840	2430
456.886	2295
456.920	3009
456.955	3768
457.001	3599
457.024	3480
457.082	3383
457.093	3317
457.162	3896
457.163	3933
457.232	4205
457.243	4348
457.301	4708
457.324	4754
457.370	5299
457.405	6029
457.439	6533
457.485	7084
457.508	7428
457.566	9091
457.577	9960
457.646	15859
457.647	16020
457.715	43410
457.727	49335
457.784	94296
457.808	118777
457.853	140327
457.889	157784
457.922	140043
457.969	97872
457.991	109972
458.050	144040
458.060	153152
458.129	250549
458.130	253713
458.198	205694
458.211	188918
458.267	112360
458.292	75093
458.336	57180
458.372	51680
458.405	73168
458.453	112510
458.474	148688
458.533	267271
458.543	275527
458.611	374086
458.614	377623
458.680	207567
458.694	162272
458.749	88463
458.775	58725
458.818	36455
458.855	27131
458.887	22474
458.936	17349
458.955	15881
459.016	13991
459.024	13795
459.093	12090
459.097	11998
459.162	10820
459.177	11050
459.230	11863
459.257	12180
459.299	11344
459.338	10141
459.368	9697
459.418	9037
459.437	8762
459.499	8218
459.505	8192
459.574	8398
459.579	8412
459.643	7655
459.659	7591
459.711	8282
459.740	8549
459.780	8589
459.820	9022
459.849	8883
459.900	7947
459.917	7878
459.981	8489
459.986	8496
460.054	8532
460.061	8573
460.123	9522
460.141	9776
460.191	12197
460.222	13638
460.260	14636
460.302	16393
460.328	15440
460.382	12833
460.397	13391
460.462	15900
460.465	16741
460.534	37165
460.543	39818
460.602	129524
460.623	162514
460.671	265381
460.703	344176
460.739	286984
460.783	207903
460.808	162968
460.864	31004
460.876	25481
460.944	11937
460.945	11820
461.013	10805
461.024	10691
461.081	10650
461.104	11034
461.150	10792
461.184	10285
461.218	10237
461.264	9899
461.286	9474
461.345	8722
461.355	8687
461.423	8626
461.425	8618
461.491	8109
461.505	8033
461.559	7761
461.585	7698
461.628	7714
461.665	7749
461.696	7832
461.745	8100
461.764	8301
461.825	8636
461.832	8748
461.901	10207
461.905	10289
461.969	8681
461.985	8294
462.037	8600
462.065	8534
462.105	7629
462.145	7011
462.173	7415
462.225	7865
462.241	7827
462.305	8088
462.310	8176
462.378	9470
462.385	9623
462.446	10458
462.465	10695
462.514	10353
462.545	10096
462.582	9236
462.625	8107
462.650	8085
462.705	8251
462.718	8317
462.785	8520
462.786	8517
462.854	7776
462.865	7664
462.922	8325
462.945	8804
462.990	9015
463.025	8924
463.058	8858
463.104	8741
463.126	8825
463.184	8923
463.194	9052
463.262	9907
463.264	9935
463.330	8963
463.344	8761
463.398	9216
463.424	9298
463.466	8561
463.504	8156
463.533	8779
463.583	9410
463.601	9580
463.663	10317
463.669	10466
463.737	12109
463.743	12251
463.805	12005
463.823	11903
463.873	10191
463.903	9080
463.940	9109
463.982	9012
464.008	9111
464.062	9474
464.076	9521
464.142	9757
464.144	9768
464.211	9562
464.221	9497
464.279	10011
464.301	10313
464.347	10721
464.381	10866
464.414	10401
464.461	9719
464.482	9717
464.540	9729
464.550	9885
464.617	10732
464.620	10753
464.685	13738
464.699	14324
464.753	13523
464.779	13222
464.820	11782
464.859	10214
464.888	9867
464.938	9227
464.956	9442
465.018	10255
465.023	10268
465.091	10094
465.098	10068
465.158	9599
465.177	9413
465.226	9978
465.257	10356
465.293	11448
465.336	12679
465.361	14066
465.416	17120
465.428	16808
465.495	15095
465.496	15093
465.563	10546
465.575	9716
465.631	9720
465.654	9777
465.698	10406
465.734	10884
465.765	10741
465.813	10445
465.833	10437
465.893	10409
465.900	10402
465.968	10083
465.972	10035
466.035	10435
466.052	10518
466.102	10513
466.131	10560
466.170	10953
466.210	11200
466.237	11328
466.290	11535
466.304	11523
466.369	11295
466.372	11314
466.439	11148
466.449	11100
466.506	11941
466.528	12235
466.573	13625
466.607	14606
466.641	16622
466.687	19357
466.708	20087
466.766	21916
466.775	21427
466.842	17467
466.845	17240
466.909	14221
466.925	13468
466.977	13128
467.004	12905
467.044	12774
467.083	12597
467.111	13094
467.163	13934
467.178	14277
467.242	15570
467.245	15669
467.312	17004
467.321	17144
467.379	15927
467.400	15433
467.446	15388
467.480	15295
467.559	15612
467.638	15440
467.717	16521
467.796	22289
467.875	26021
467.955	21441
468.034	21281
468.113	25116
468.192	29837
468.271	38694
468.350	54954
468.429	80223
468.508	88437
468.588	52820
468.667	31747
468.746	23213
468.825	20304
468.904	18520
468.983	17539
469.062	18817
469.141	19060
469.220	15175
469.299	14289
469.378	12638
469.456	14907
469.535	14383
469.614	13052
469.693	13168
469.772	14591
469.851	14377
469.930	15645
470.009	15949
470.088	14807
470.166	17422
470.245	21256
470.324	22946
470.403	20327
470.482	18770
470.560	17243
470.639	17899
470.718	24609
470.797	17619
470.875	16123
470.954	16324
471.033	16907
471.111	12652
471.190	12599
471.269	12770
471.347	12051
471.426	12789
471.505	13001
471.583	12903
471.662	12590
471.740	13774
471.819	12903
471.898	12607
471.976	13866
472.055	13919
472.133	18984
472.212	26916
472.290	15750
472.369	11782
472.447	12154
472.526	12354
472.604	13793
472.683	15411
472.761	16259
472.839	16575
472.918	15140
472.996	13169
473.075	14520
473.153	14040
473.231	14344
473.310	16208
473.388	17648
473.466	14441
473.545	18423
473.623	27759
473.701	27949
473.780	16294
473.858	13352
473.936	16302
474.014	16644
474.093	21876
474.171	28733
474.249	18996
474.327	15314
474.405	13567
474.484	16350
474.562	16422
474.640	14730
474.718	14380
474.796	14490
474.874	13484
474.952	13810
475.030	12240
475.108	14103
475.187	13655
475.265	14060
475.343	15661
475.421	16399
475.499	13107
475.577	13238
475.655	13747
475.733	13681
475.811	12868
475.889	12762
475.966	12642
476.044	12017
476.122	13284
476.200	15113
476.278	13090
476.356	11756
476.434	13376
476.512	14313
476.590	15200
476.667	14749
476.745	13328
476.823	14710
476.901	13281
476.979	12017
477.056	12720
477.134	13201
477.212	13781
477.290	14234
477.367	11984
477.445	12127
477.523	12096
477.601	12664
477.678	11485
477.756	12008
477.834	11490
477.911	10648
477.989	11735
478.066	12377
478.144	12561
478.222	13474
478.299	19240
478.377	25518
478.454	21259
478.532	12547
478.609	14480
478.687	16646
478.764	12558
478.842	14171
478.919	18250
478.997	15353
479.074	12191
479.152	11485
479.229	12038
479.307	12393
479.384	12082
479.461	12175
479.539	12388
479.616	11380
479.694	11611
479.771	12444
479.848	12559
479.926	11970
480.003	14017
480.080	15028
480.157	13075
480.235	13492
480.312	14902
480.389	12966
480.467	13727
480.544	14886
480.621	17080
480.698	17850
480.775	17990
480.853	16816
480.930	15679
481.007	16783
481.084	31009
481.161	59822
481.238	31113
481.315	14421
481.392	14490
481.470	15361
481.547	14865
481.624	15072
481.701	16313
481.778	16322
481.855	16721
481.932	18012
482.009	20286
482.086	22450
482.163	25407
482.240	30719
482.317	33418
482.393	26970
482.470	23226
482.547	21507
482.624	20991
482.701	20260
482.778	20061
482.855	19754
482.932	21162
483.009	23073
483.085	32618
483.162	51407
483.239	48938
483.316	34045
483.393	31874
483.469	27056
483.546	23657
483.623	21676
483.699	17916
483.776	17834
483.853	17879
483.930	18834
484.006	18882
484.083	18796
484.160	20225
484.236	21484
484.313	22213
484.389	21085
484.466	25496
484.543	30980
484.619	39786
484.696	45431
484.772	29858
484.849	22076
484.925	20221
485.002	19142
485.078	17789
485.155	15521
485.231	15816
485.308	15643
485.384	16174
485.461	19318
485.537	18249
485.614	16205
485.690	15568
485.766	15930
485.843	20911
485.919	40055
485.995	41889
486.072	16383
486.148	14694
486.224	16112
486.301	16195
486.377	16168
486.453	15914
486.530	16371
486.606	18188
486.682	18557
486.758	20773
486.835	25621
486.911	27920
486.987	35879
487.063	82207
487.139	148059
487.215	117366
487.292	60030
487.368	49242
487.444	62386
487.520	93612
487.596	150754
487.672	293975
487.748	921049
487.824	1474607
487.900	516288
487.976	147648
488.052	75087
488.128	54020
488.204	39437
488.280	30864
488.356	27434
488.432	25642
488.508	26676
488.584	26601
488.660	24971
488.736	24774
488.812	26208
488.888	31263
488.964	46760
489.039	129223
489.115	208293
489.191	109086
489.267	24435
489.343	16981
489.418	16152
489.494	15265
489.570	13748
489.646	16647
489.722	15859
489.797	15996
489.873	15670
489.949	16217
490.024	16877
490.100	15647
490.176	17713
490.251	26643
490.327	39022
490.403	19076
490.478	15542
490.554	14710
490.629	15977
490.705	14781
490.781	16707
490.856	15568
490.932	19839
491.007	22190
491.083	16869
491.158	14426
491.234	14164
491.309	13887
491.385	14541
491.460	14682
491.536	16826
491.611	17612
491.686	21690
491.762	33699
491.837	81331
491.913	126216
491.988	181420
492.063	239565
492.139	32766
492.214	15170
492.289	14622
492.365	14383
492.440	17224
492.515	13375
492.590	11791
492.666	12117
492.741	13912
492.816	13075
492.891	11471
492.967	13096
493.042	12402
493.117	11188
493.192	12408
493.267	15781
493.342	25797
493.418	27383
493.493	13156
493.568	11682
493.643	11420
493.718	14278
493.793	20681
493.868	32764
493.943	23924
494.018	14433
494.093	10741
494.168	11735
494.243	11309
494.318	11631
494.393	11240
494.468	10906
494.543	12569
494.618	17090
494.693	13118
494.768	11061
494.842	10485
494.917	11859
494.992	12944
495.067	12465
495.142	13764
495.217	14179
495.292	15928
495.366	18300
495.441	21566
495.516	25844
495.591	43099
495.665	178622
495.740	450690
495.815	143161
495.890	19837
495.964	13864
496.039	17296
496.114	26159
496.188	56585
496.263	37384
496.338	13685
496.412	11056
496.487	13172
496.561	20763
496.636	22250
496.710	17340
496.785	21016
496.860	14457
496.934	11982
497.009	14548
497.083	11484
497.158	11000
497.232	12856
497.307	14786
497.381	11343
497.455	9304
497.530	9978
497.604	9924
497.679	10458
497.753	11028
497.827	12604
497.902	11232
497.976	11949
498.050	12339
498.125	15417
498.199	26168
498.273	35591
498.348	31774
498.422	22852
498.496	25741
498.570	23275
498.645	12184
498.719	9618
498.793	12100
498.867	14275
498.941	11852
499.016	12268
499.090	14166
499.164	13663
499.238	11749
499.312	14187
499.386	21608
499.460	14719
499.534	12486
499.609	11532
499.683	10881
499.757	11212
499.831	11043
499.905	12515
499.979	10933
500.053	12583
500.127	26500
500.201	34438
500.275	17092
500.349	15928
500.422	14439
500.496	27868
500.570	68718
500.644	48863
500.718	20731
500.792	16188
500.866	14063
500.940	13098
501.013	13889
501.087	17015
501.161	37451
501.235	32073
501.309	16580
501.382	15777
501.456	25483
501.530	20935
501.603	11225
501.677	11497
501.751	11253
501.825	15818
501.898	12505
501.972	11769
502.046	12679
502.119	12929
502.193	19456
502.266	15263
502.340	11367
502.413	11145
502.487	11902
502.561	11488
502.634	14845
502.708	20997
502.781	18789
502.855	15301
502.928	11853
503.002	11867
503.075	11568
503.149	12342
503.222	11916
503.295	12483
503.369	14356
503.442	15578
503.516	18740
503.589	21403
503.662	24985
503.736	32753
503.809	41275
503.882	55737
503.956	84820
504.029	174596
504.102	506219
504.175	741648
504.249	283148
504.322	106120
504.395	60031
504.468	39841
504.542	28660
504.615	22955
504.688	20567
504.761	16478
504.834	20705
504.907	27060
504.980	43676
505.053	19371
505.127	26873
505.200	22520
505.273	10533
505.346	10818
505.419	9422
505.492	11637
505.565	9281
505.638	9742
505.711	8598
505.784	8529
505.857	8056
505.930	9978
506.003	8243
506.076	9212
506.149	8464
506.221	5943
506.294	8988
506.367	8473
506.440	15462
506.513	18098
506.586	9644
506.659	10415
506.731	10409
506.804	12625
506.877	21946
506.950	11052
507.022	8382
507.095	7981
507.168	11097
507.241	12799
507.313	10295
507.386	12099
507.459	21708
507.531	12181
507.604	8862
507.677	9947
507.749	8274
507.822	13551
507.894	23116
507.967	19890
508.040	8403
508.112	8823
508.185	9499
508.257	10066
508.330	20639
508.402	8688
508.475	6895
508.547	7416
508.620	7547
508.692	7190
508.765	7933
508.837	6900
508.909	8344
508.982	8899
509.054	12051
509.127	9489
509.199	6993
509.271	7120
509.344	6881
509.416	7482
509.488	7273
509.560	9045
509.633	10654
509.705	12798
509.777	10963
509.849	21522
509.922	10786
509.994	7762
510.066	7919
510.138	4934
510.210	10009
510.283	7034
510.355	8363
510.427	8676
510.499	8486
510.571	8341
510.643	9995
510.715	23928
510.787	18034
510.859	10156
510.931	10996
511.003	21904
511.076	17693
511.148	6889
511.219	6058
511.291	7006
511.363	8548
511.435	6975
511.507	6420
511.579	8112
511.651	7937
511.723	6661
511.795	7215
511.867	6448
511.939	7903
512.010	7430
512.082	8334
512.154	8885
512.226	8845
512.298	12739
512.369	17707
512.441	13352
512.513	18128
512.585	11277
512.656	12481
512.728	14240
512.800	8520
512.871	9048
512.943	8911
513.015	7464
513.086	10054
513.158	12621
513.230	12092
513.301	23242
513.373	30407
513.444	12848
513.516	10396
513.588	10486
513.659	14414
513.731	18387
513.802	15863
513.874	41624
513.945	80966
514.016	18926
514.088	11227
514.159	13353
514.231	19215
514.302	17857
514.374	8297
514.445	7258
514.516	11063
514.588	8421
514.659	8512
514.730	9401
514.802	14816
514.873	8897
514.944	11474
515.016	10905
515.087	15196
515.158	12192
515.229	11352
515.301	7014
515.372	9817
515.443	7583
515.514	9845
515.585	10726
515.656	12119
515.728	11168
515.799	9029
515.870	11737
515.941	11848
516.012	10258
516.083	13086
516.154	15615
516.225	29160
516.296	23649
516.367	18191
516.438	20790
516.509	26299
516.580	36484
516.651	99299
516.722	383417
516.793	161103
516.864	35831
516.935	28807
517.006	29234
517.077	43625
517.148	117550
517.219	298954
517.289	425624
517.360	52253
517.431	20461
517.502	15270
517.573	15650
517.643	15297
517.714	15398
517.785	17600
517.856	18506
517.926	23864
517.997	29885
518.068	35262
518.138	44880
518.209	65185
518.280	206821
518.350	757991
518.421	273431
518.492	75832
518.562	77034
518.633	103338
518.703	156270
518.774	344008
518.845	877070
518.915	796947
518.986	233942
519.056	107316
519.127	100618
519.197	97130
519.268	68679
519.338	30256
519.408	27918
519.479	47094
519.549	32118
519.620	20322
519.690	16497
519.760	14644
519.831	17938
519.901	16453
519.971	12683
520.042	11157
520.112	10568
520.182	19561
520.253	21073
520.323	10178
520.393	10385
520.463	14109
520.534	7895
520.604	11644
520.674	10264
520.744	10516
520.814	16658
520.885	18666
520.955	8837
521.025	8777
521.095	9257
521.165	9482
521.235	8858
521.305	8922
521.375	10519
521.445	13870
521.515	22148
521.585	26391
521.655	21736
521.725	18854
521.795	13101
521.865	8050
521.935	10827
522.005	9642
522.075	8872
522.145	11343
522.215	13866
522.285	13067
522.355	13443
522.424	15116
522.494	19050
522.564	24773
522.634	61328
522.704	195779
522.774	59104
522.843	17379
522.913	19910
522.983	24202
523.053	15905
523.122	17724
523.192	27547
523.262	108362
523.331	90947
523.401	16062
523.471	13328
523.540	14465
523.610	11143
523.680	11882
523.749	12395
523.819	18345
523.888	17107
523.958	12402
524.027	11856
524.097	11414
524.166	12289
524.236	15527
524.305	15036
524.375	11073
524.444	10586
524.514	12532
524.583	11217
524.653	11494
524.722	13840
524.791	11417
524.861	14378
524.930	13101
524.999	16163
525.069	21822
525.138	14832
525.207	15310
525.277	17995
525.346	19536
525.415	21756
525.484	24793
525.554	28626
525.623	39009
525.692	56428
525.761	58295
525.830	69227
525.900	92598
525.969	145862
526.038	278308
526.107	572983
526.176	1613334
526.245	1215609
526.314	374280
526.383	821489
526.452	1076437
526.522	1530077
526.591	1351338
526.660	299002
526.729	167125
526.797	173950
526.867	294036
526.935	1010323
527.004	2393054
527.073	1360503
527.142	202297
527.211	86088
527.280	62623
527.349	51089
527.418	31392
527.487	27792
527.555	22403
527.624	20436
527.693	17564
527.762	19756
527.831	16419
527.899	17000
527.968	15402
528.037	13232
528.106	19793
528.174	33254
528.243	20642
528.312	28399
528.380	40258
528.449	13733
528.518	14144
528.586	10866
528.655	12644
528.723	11347
528.792	10814
528.861	11723
528.929	9640
528.998	11746
529.066	10434
529.135	11305
529.203	10978
529.272	11292
529.340	13669
529.409	15263
529.477	13268
529.545	11578
529.614	13399
529.682	11069
529.751	12762
529.819	16497
529.887	15898
529.956	14452
530.024	16025
530.092	13481
530.161	18731
530.229	28654
530.297	18278
530.365	16482
530.434	15617
530.502	13945
530.570	14867
530.638	11400
530.707	15150
530.775	15859
530.843	12902
530.911	14708
530.979	14352
531.047	14510
531.115	14496
531.183	14150
531.252	14312
531.320	12957
531.388	12253
531.456	14753
531.524	13904
531.592	16166
531.660	19057
531.728	15296
531.796	15005
531.864	14764
531.932	16051
532.000	15452
532.067	17741
532.135	19752
532.203	22055
532.271	23193
532.339	37220
532.407	92413
532.475	49859
532.542	28615
532.610	30434
532.678	40359
532.746	151828
532.814	356404
532.881	76245
532.949	25644
533.017	21101
533.084	18132
533.152	17184
533.220	17819
533.287	21195
533.355	18128
533.423	18157
533.490	17352
533.558	17979
533.625	18278
533.693	17735
533.761	18383
533.828	18732
533.896	18991
533.963	34040
534.031	39972
534.098	55617
534.166	30223
534.233	24961
534.300	28297
534.368	30166
534.435	30151
534.503	31775
534.570	37424
534.637	44786
534.705	53991
534.772	68293
534.840	147747
534.907	679050
534.974	786126
535.041	93273
535.109	39176
535.176	29443
535.243	27435
535.310	26852
535.378	24367
535.445	23337
535.512	22705
535.579	22438
535.646	21002
535.714	23187
535.781	24849
535.848	24911
535.915	22943
535.982	21404
536.049	21093
536.116	23733
536.183	22635
536.250	21477
536.317	23782
536.384	27573
536.451	36656
536.518	38700
536.585	28697
536.652	33999
536.719	45185
536.786	36594
536.853	31011
536.920	38916
536.987	55568
537.053	55919
537.120	193368
537.187	144448
537.254	30344
537.321	27487
537.388	27571
537.454	24899
537.521	23761
537.588	24028
537.654	24446
537.721	25440
537.788	25998
537.855	23246
537.921	24882
537.988	25070
538.055	23315
538.121	22449
538.188	25068
538.254	33251
538.321	59547
538.388	39305
538.454	26389
538.521	26388
538.587	25025
538.654	25114
538.720	24268
538.787	24433
538.853	24094
538.920	25267
538.986	23389
539.053	22905
539.119	25410
539.185	24795
539.252	29113
539.318	41218
539.385	32813
539.451	26362
539.517	28660
539.583	32377
539.650	59223
539.716	136200
539.782	38553
539.849	26543
539.915	25325
539.981	26353
540.047	29783
540.114	26197
540.180	28647
540.246	29498
540.312	37859
540.378	60009
540.444	58011
540.510	65851
540.576	158992
540.643	46036
540.709	24423
540.775	25568
540.841	23709
540.907	25959
540.973	25889
541.039	32984
541.105	38678
541.171	27864
541.237	26825
541.303	27742
541.369	29608
541.435	35952
541.500	54061
541.566	34848
541.632	23791
541.698	23509
541.764	25441
541.830	23402
541.896	22416
541.961	23652
542.027	23826
542.093	25621
542.159	27747
542.224	25906
542.290	33812
542.356	50820
542.421	55156
542.487	29719
542.553	25448
542.618	24041
542.684	24618
542.750	26762
542.815	29811
542.881	43371
542.947	138844
543.012	90504
543.078	25772
543.143	23902
543.209	25524
543.274	23545
543.340	29506
543.405	59285
543.471	82311
543.536	27701
543.602	24636
543.667	22146
543.732	23940
543.798	22267
543.863	23997
543.928	23137
543.994	22177
544.059	24569
544.124	25044
544.190	25774
544.255	26485
544.320	27339
544.386	28137
544.451	36389
544.516	37534
544.581	37998
544.646	90591
544.712	124371
544.777	33637
544.842	27813
544.907	26885
544.972	27629
545.037	28244
545.102	31815
545.168	30804
545.233	29149
545.298	31606
545.363	31225
545.428	38679
545.493	60148
545.558	115194
545.623	48037
545.688	30909
545.753	32051
545.818	32386
545.883	35060
545.947	34050
546.012	34913
546.077	36081
546.142	39997
546.207	41830
546.272	49826
546.337	50777
546.401	45052
546.466	45552
546.531	45800
546.596	51568
546.661	53443
546.725	56628
546.790	57613
546.855	62629
546.919	68800
546.984	76902
547.049	81890
547.113	93614
547.178	105269
547.243	117664
547.307	139281
547.372	151402
547.436	151361
547.501	158968
547.565	172125
547.630	161910
547.695	155411
547.759	151371
547.823	153238
547.888	155315
547.952	162073
548.017	171365
548.081	192973
548.146	173693
548.210	173337
548.274	186871
548.339	181690
548.403	164758
548.468	153635
548.532	154347
548.596	159429
548.660	158369
548.725	175607
548.789	190720
548.853	179657
548.917	172136
548.982	166219
549.046	149152
549.110	135427
549.174	142197
549.238	166038
549.303	181311
549.367	186518
549.431	176376
549.495	165106
549.559	167017
549.623	195530
549.687	213839
549.751	217623
549.815	248066
549.879	248636
549.943	239560
550.007	250911
550.071	246515
550.135	228504
550.199	212808
550.263	207040
550.327	195966
550.391	210627
550.455	231440
550.519	236881
550.582	253539
550.646	295904
550.710	297969
550.774	287409
550.838	291935
550.901	302981
550.965	324184
551.029	341138
551.093	374164
551.156	421690
551.220	499389
551.284	563683
551.347	408118
551.411	320285
551.475	301328
551.538	306866
551.602	282792
551.666	265861
551.729	249955
551.793	243447
551.856	238969
551.920	233687
551.983	234205
552.047	230748
552.110	235895
552.174	240522
552.237	243274
552.301	221926
552.364	211954
552.428	206787
552.491	214166
552.554	216968
552.618	215812
552.681	219563
552.745	210721
552.808	220534
552.871	234896
552.934	225074
552.998	216034
553.061	210125
553.124	201602
553.187	201467
553.251	208009
553.314	209346
553.377	210855
553.440	225393
553.503	236235
553.567	230465
553.630	223415
553.693	220863
553.756	222797
553.819	218377
553.882	209239
553.945	212440
554.008	212570
554.071	215785
554.134	214676
554.197	201150
554.260	198060
554.323	201519
554.386	202885
554.449	213053
554.512	211007
554.575	201905
554.638	202091
554.701	200640
554.764	195437
554.827	186634
554.889	182408
554.952	171386
555.015	168493
555.078	170856
555.141	175345
555.203	169856
555.266	170013
555.329	169573
555.391	164300
555.454	162732
555.517	156059
555.580	150440
555.642	144374
555.705	142431
555.768	142428
555.830	137049
555.893	128047
555.955	126204
556.018	125537
556.080	127061
556.143	129973
556.206	128009
556.268	124169
556.330	123681
556.393	119042
556.455	116414
556.518	115674
556.580	113323
556.643	105692
556.705	103950
556.767	102585
556.830	103437
556.892	104345
556.955	114334
557.017	100563
557.079	96934
557.142	93129
557.204	99425
557.266	121285
557.328	102944
557.391	81639
557.453	81138
557.515	81888
557.577	88152
557.639	89549
557.701	86340
557.764	84752
557.826	91267
557.888	97080
557.950	102599
558.012	120255
558.074	166224
558.136	394201
558.198	904225
558.260	289352
558.322	117615
558.384	117959
558.446	127885
558.508	144218
558.570	169464
558.632	219040
558.694	300567
558.756	453211
558.818	1220499
558.880	2371781
558.942	959981
559.003	975534
559.065	436380
559.127	177635
559.189	164960
559.251	188949
559.312	285723
559.374	659727
559.436	1813984
559.498	861777
559.559	208558
559.621	170225
559.683	201468
559.744	337321
559.806	1004691
559.868	1341470
559.929	295681
559.991	191960
560.052	318551
560.114	876756
560.176	527339
560.237	513187
560.299	770864
560.360	154892
560.422	64121
560.483	51893
560.545	45788
560.606	42956
560.667	40298
560.729	38092
560.790	35965
560.852	35071
560.913	33811
560.974	33126
561.036	33819
561.097	33014
561.158	32476
561.220	32479
561.281	31666
561.342	31644
561.403	35005
561.465	41912
561.526	76247
561.587	87095
561.648	32774
561.709	27900
561.771	28180
561.832	27158
561.893	26230
561.954	26110
562.015	24831
562.076	25241
562.137	24911
562.198	24730
562.259	26205
562.320	25928
562.381	28312
562.442	33930
562.503	28272
562.564	24307
562.625	22782
562.686	22891
562.747	22426
562.808	22245
562.869	22089
562.930	21035
562.991	21188
563.051	21046
563.112	21185
563.173	21295
563.234	21332
563.294	20999
563.355	21319
563.416	21124
563.477	20523
563.537	20796
563.598	20040
563.659	20416
563.720	20718
563.780	20052
563.841	22434
563.901	20582
563.962	19202
564.023	18376
564.083	19677
564.144	20182
564.204	18396
564.265	17790
564.325	17977
564.386	18272
564.446	18692
564.507	18456
564.567	17966
564.628	17083
564.688	17650
564.749	16967
564.809	17656
564.869	18114
564.930	17552
564.990	18172
565.050	17650
565.111	18055
565.171	17090
565.231	17071
565.292	18152
565.352	16593
565.412	18845
565.472	17565
565.532	20044
565.593	18278
565.653	16861
565.713	18055
565.773	18784
565.833	23246
565.893	28300
565.953	17974
566.013	17412
566.074	17054
566.134	17025
566.194	17253
566.254	21081
566.314	18165
566.374	15174
566.434	15762
566.494	15858
566.554	16518
566.614	16721
566.673	16616
566.733	17814
566.793	17556
566.853	16475
566.913	17578
566.973	15484
567.033	17244
567.092	15958
567.152	15370
567.212	17211
567.272	16147
567.331	17286
567.391	16891
567.451	18095
567.511	17958
567.570	17101
567.630	17371
567.690	16505
567.749	16194
567.809	16911
567.868	16879
567.928	16799
567.988	17613
568.047	17026
568.107	16656
568.166	17023
568.226	16639
568.285	16920
568.345	17412
568.404	17732
568.464	17067
568.523	16663
568.582	17818
568.642	19022
568.701	17001
568.761	15812
568.820	15199
568.879	16010
568.939	16521
568.998	16565
569.057	16106
569.116	16856
569.176	17275
569.235	16635
569.294	16081
569.353	15463
569.413	15776
569.472	15290
569.531	15828
569.590	14602
569.649	16248
569.708	15405
569.767	16462
569.827	16021
569.886	14811
569.945	15477
570.004	15829
570.063	16802
570.122	18154
570.181	17801
570.240	15564
570.299	17022
570.358	16359
570.417	17091
570.475	17297
570.534	19135
570.593	18134
570.652	17584
570.711	17854
570.770	16717
570.829	17110
570.887	19112
570.946	22249
571.005	17857
571.064	17265
571.122	18039
571.181	17857
571.240	16305
571.299	16147
571.357	16697
571.416	15426
571.475	16666
571.533	17249
571.592	17874
571.650	17845
571.709	19115
571.768	24116
571.826	24094
571.885	21266
571.943	16885
572.002	16452
572.060	15277
572.119	15335
572.177	15174
572.236	16071
572.294	17323
572.352	18568
572.411	17418
572.469	17159
572.528	16080
572.586	15609
572.644	15426
572.703	15184
572.761	14679
572.819	13899
572.877	13632
572.936	14488
572.994	14086
573.052	14429
573.110	15879
573.169	16734
573.227	16301
573.285	15593
573.343	15871
573.401	15687
573.459	16324
573.517	16743
573.576	18496
573.634	18341
573.692	16835
573.750	17559
573.808	16492
573.866	15192
573.924	15201
573.982	14927
574.040	15628
574.098	15452
574.155	15372
574.213	15254
574.271	16037
574.329	18598
574.387	16225
574.445	14669
574.503	13786
574.560	13457
574.618	15115
574.676	14529
574.734	15583
574.792	13941
574.849	12953
574.907	12556
574.965	10864
575.022	10980
575.080	12061
575.138	12534
575.195	12456
575.253	12248
575.311	13086
575.368	12514
575.426	11017
575.483	12235
575.541	11507
575.598	11817
575.656	12053
575.713	12595
575.771	14062
575.828	12801
575.886	11680
575.943	11902
576.001	11312
576.058	11317
576.115	11354
576.173	12322
576.230	14001
576.287	16586
576.345	14953
576.402	12725
576.459	13022
576.517	12500
576.574	11140
576.631	10479
576.688	10303
576.746	10390
576.803	9983
576.860	10195
576.917	10798
576.974	9841
577.031	10659
577.089	10447
577.146	8639
577.203	8911
577.260	10593
577.317	8476
577.374	9344
577.431	9379
577.488	10344
577.545	9315
577.602	9393
577.659	9599
577.716	9828
577.773	9292
577.830	9249
577.886	9284
577.943	9449
578.000	9177
578.057	9734
578.114	9877
578.171	8930
578.227	9129
578.284	8022
578.341	9390
578.398	9756
578.454	9661
578.511	9670
578.568	10138
578.625	9561
578.681	9137
578.738	10246
578.794	9210
578.851	10138
578.908	9822
578.964	10821
579.021	11048
579.077	10376
579.134	11263
579.190	10639
579.247	10315
579.303	10002
579.360	9645
579.416	10295
579.473	9818
579.529	9757
579.586	9577
579.642	10105
579.698	10498
579.755	9912
579.811	9959
579.867	10456
579.924	9740
579.980	8802
580.036	10250
580.093	9903
580.149	9911
580.205	10043
580.261	11331
580.317	11018
580.374	11327
580.430	12317
580.486	11962
580.542	10925
580.598	12173
580.619	12000
580.654	11716
580.692	11686
580.710	11700
580.765	11487
580.767	11495
580.823	11591
580.838	11749
580.879	12199
580.911	12296
580.935	12400
580.984	12107
580.991	12088
581.047	11955
581.057	11692
581.103	10533
581.130	10724
581.159	10985
581.203	11104
581.215	11136
581.270	11554
581.276	11380
581.326	9913
581.349	10183
581.382	10598
581.422	10916
581.438	11056
581.494	10642
581.494	10632
581.550	10660
581.567	10767
581.606	10980
581.640	11020
581.661	11082
581.713	11418
581.717	11454
581.773	10179
581.786	10300
581.829	10698
581.859	10715
581.885	10805
581.932	10503
581.940	10441
581.996	10245
582.004	10280
582.052	10590
582.077	10659
582.107	10682
582.150	10506
582.163	10497
582.219	10528
582.223	10500
582.274	10174
582.296	10462
582.330	10928
582.368	10430
582.386	10240
582.441	10426
582.441	10431
582.497	10220
582.514	10165
582.552	10302
582.587	10409
582.608	10352
582.659	10118
582.663	10117
582.719	10895
582.732	10770
582.774	10374
582.805	10713
582.830	10948
582.877	10992
582.885	11027
582.941	10460
582.950	10508
582.996	10578
583.023	10604
583.052	10952
583.095	11376
583.107	11333
583.162	10576
583.168	10558
583.218	10759
583.240	10539
583.273	10136
583.313	10004
583.328	9998
583.384	10743
583.385	10716
583.439	9807
583.458	10021
583.494	10449
583.531	9982
583.549	9744
583.603	9753
583.605	9751
583.660	10121
583.676	10189
583.715	10214
583.748	10099
583.770	10154
583.820	9585
583.825	9511
583.881	9907
583.893	9629
583.936	8823
583.965	9580
583.991	10036
584.038	9051
584.046	8964
584.101	9921
584.110	10038
584.156	10215
584.183	10278
584.211	10404
584.255	10458
584.266	10473
584.321	10587
584.328	10565
584.376	10201
584.400	10358
584.431	10696
584.472	10648
584.486	10582
584.541	10848
584.545	10884
584.596	11383
584.617	11404
584.651	11654
584.689	12484
584.706	12691
584.761	12929
584.762	12944
584.816	13605
584.834	13717
584.871	14124
584.906	15461
584.926	16085
584.978	17704
584.980	17761
585.035	19371
585.051	20248
585.090	22697
585.123	24859
585.145	26144
585.195	30251
585.200	30653
585.254	35595
585.267	37426
585.309	43058
585.340	47440
585.364	51173
585.412	60079
585.419	61357
585.473	78548
585.484	84295
585.528	110604
585.556	140835
585.583	181604
585.628	296736
585.637	328716
585.692	658824
585.700	718845
585.747	981066
585.772	792794
585.801	500913
585.845	196859
585.856	141994
585.910	69590
585.917	64619
585.965	44867
585.989	38667
586.019	32772
586.061	27817
586.074	26284
586.128	23519
586.133	23338
586.183	21968
586.205	21364
586.237	20147
586.277	19075
586.292	18795
586.346	17472
586.349	17502
586.401	17308
586.421	17037
586.455	16738
586.493	16907
586.509	16942
586.564	16945
586.565	16996
586.618	18355
586.637	18983
586.672	21132
586.709	25649
586.727	27466
586.781	30841
586.781	30792
586.835	22366
586.853	20721
586.889	17767
586.925	16382
586.944	16008
586.996	15822
586.998	15788
587.052	15012
587.068	14969
587.106	14913
587.140	14919
587.161	14728
587.212	14458
587.215	14439
587.269	14474
587.284	14550
587.323	14781
587.356	15092
587.377	15278
587.427	15695
587.431	15670
587.485	15987
587.499	15968
587.539	15841
587.571	15814
587.593	15788
587.643	16669
587.648	16776
587.702	17322
587.715	17429
587.755	16795
587.786	16999
587.810	17268
587.858	17331
587.864	17299
587.917	17393
587.930	17433
587.971	17466
588.001	17506
588.025	17400
588.073	17439
588.079	17453
588.133	17645
588.145	17851
588.187	18038
588.217	18134
588.241	18134
588.288	18419
588.295	18497
588.348	19418
588.360	19612
588.402	19704
588.431	19878
588.456	19784
588.503	20297
588.510	20434
588.564	22292
588.575	22727
588.617	23714
588.646	24548
588.671	25309
588.718	27989
588.725	28356
588.778	34025
588.789	36054
588.832	48670
588.861	62722
588.886	86332
588.932	154365
588.939	162613
588.993	235655
589.004	222609
589.047	98747
589.075	50257
589.100	33447
589.147	23927
589.154	23441
589.207	21616
589.218	21479
589.261	22387
589.290	23342
589.314	23566
589.361	25373
589.368	25783
589.421	32121
589.433	34601
589.475	52868
589.504	71187
589.528	92866
589.576	152954
589.582	152556
589.635	72704
589.647	60745
589.689	30189
589.718	19632
589.742	18595
589.790	17503
589.795	17367
589.849	16908
589.861	16866
589.902	15927
589.932	15639
589.955	15907
590.004	16038
590.009	15970
590.062	16236
590.075	16267
590.115	15628
590.146	15248
590.168	15137
590.218	15373
590.222	15383
590.275	15959
590.289	16189
590.328	16157
590.360	16212
590.381	16305
590.431	16507
590.435	16461
590.488	16884
590.503	16987
590.541	17112
590.574	17443
590.594	17175
590.645	16614
590.647	16583
590.700	17368
590.716	17702
590.753	18402
590.787	19287
590.806	19140
590.859	18884
590.859	18821
590.912	18928
590.930	19128
590.965	19582
591.001	20066
591.018	19686
591.071	18658
591.072	18716
591.124	18842
591.143	18942
591.177	19044
591.214	19425
591.230	19519
591.283	20079
591.285	20168
591.336	20398
591.356	20642
591.389	20966
591.427	21383
591.442	20784
591.495	18766
591.498	18693
591.547	18671
591.569	18853
591.600	18774
591.640	18728
591.653	18768
591.706	19253
591.711	19392
591.759	19683
591.782	19941
591.811	20554
591.853	21643
591.864	21425
591.917	20678
591.924	20649
591.969	20605
591.995	20700
592.022	20397
592.066	20220
592.075	20285
592.127	21192
592.137	21458
592.180	21489
592.208	21655
592.233	21706
592.279	22013
592.285	22018
592.338	22952
592.350	23238
592.390	22175
592.421	21580
592.443	22163
592.491	23771
592.495	23662
592.548	23509
592.562	23570
592.600	22953
592.633	22627
592.653	22595
592.704	22697
592.705	22824
592.775	22898
592.846	24213
592.916	24040
592.987	25934
593.058	25293
593.128	24162
593.199	25116
593.270	24793
593.341	25488
593.411	26790
593.482	27556
593.553	28564
593.623	28660
593.694	28553
593.764	29928
593.835	30667
593.906	30412
593.976	31159
594.047	32318
594.117	32885
594.188	32719
594.258	34400
594.329	33573
594.399	36429
594.470	35513
594.540	37056
594.611	37364
594.681	36984
594.751	37012
594.822	40118
594.892	39978
594.963	42168
595.033	42137
595.103	43694
595.174	44308
595.244	45457
595.314	47146
595.384	47351
595.455	49023
595.525	50219
595.595	53341
595.665	54089
595.736	51500
595.806	53636
595.876	53300
595.946	54662
596.016	56613
596.087	58825
596.157	58293
596.227	57909
596.297	60572
596.367	65580
596.437	70420
596.507	70158
596.577	69359
596.647	72692
596.717	76332
596.787	77594
596.857	76898
596.927	77519
596.997	77614
597.067	77579
597.137	79876
597.207	81308
597.277	80933
597.347	77395
597.417	75013
597.487	75244
597.557	77017
597.626	79597
597.696	80007
597.766	79052
597.836	74769
597.906	70865
597.975	68645
598.045	70482
598.115	73815
598.185	79544
598.254	88402
598.324	98861
598.394	99228
598.464	96533
598.533	94538
598.603	87593
598.672	84127
598.742	86880
598.812	86550
598.881	89447
598.951	88493
599.020	90177
599.090	93080
599.159	95846
599.229	90759
599.299	87995
599.368	91828
599.437	91476
599.507	83235
599.576	79397
599.646	78166
599.715	78195
599.785	76230
599.854	73494
599.924	72580
599.993	73483
600.062	74449
600.132	76457
600.201	80658
600.270	96406
600.340	102465
600.409	97406
600.478	97173
600.547	100689
600.617	90329
600.686	71163
600.755	63848
600.824	61631
600.894	58626
600.963	59145
601.032	58296
601.101	56345
601.170	52082
601.239	50212
601.308	51361
601.378	50528
601.447	50947
601.516	51539
601.585	52305
601.654	53415
601.723	53177
601.792	54891
601.861	56882
601.930	59676
601.999	61029
602.068	60554
602.137	60127
602.206	61726
602.275	62837
602.343	63806
602.412	65037
602.481	64317
602.550	63917
602.619	66467
602.688	67105
602.756	67156
602.825	68334
602.894	70146
602.963	70493
603.032	71792
603.100	72177
603.169	72952
603.238	73262
603.307	73988
603.375	74087
603.444	76999
603.513	76992
603.581	80328
603.650	79633
603.719	78881
603.787	82381
603.856	84081
603.924	86565
603.993	88446
604.061	93169
604.130	97366
604.198	97784
604.267	100663
604.335	102103
604.404	104025
604.472	105521
604.541	107734
604.609	106985
604.678	108059
604.746	107900
604.815	111461
604.883	114125
604.951	113277
605.020	115274
605.088	117865
605.156	120458
605.225	122807
605.293	121661
605.361	122178
605.429	125964
605.498	128879
605.566	131374
605.634	136779
605.702	142046
605.771	148512
605.839	148569
605.907	144769
605.975	139424
606.043	136403
606.111	136546
606.180	135194
606.248	134846
606.316	132406
606.384	132272
606.452	135273
606.520	142491
606.588	143570
606.656	143963
606.724	142495
606.792	132958
606.860	118614
606.928	108513
606.996	103696
607.064	102282
607.132	104409
607.200	110791
607.267	115590
607.335	117990
607.403	120591
607.471	115650
607.539	111876
607.607	114775
607.674	98982
607.742	100679
607.810	100068
607.878	99798
607.946	100995
608.013	104757
608.081	108510
608.149	108538
608.216	112530
608.284	117184
608.352	116857
608.419	116022
608.487	112908
608.555	109264
608.622	115348
608.690	122683
608.757	135382
608.825	140465
608.893	136124
608.960	126968
609.028	120672
609.095	119882
609.163	119820
609.230	106733
609.298	97599
609.365	103432
609.432	113850
609.500	122015
609.567	141170
609.635	163883
609.702	172081
609.769	164736
609.837	127809
609.904	108146
609.971	113828
610.039	128411
610.106	171878
610.173	330581
610.241	754860
610.308	416967
610.375	146909
610.442	122012
610.509	113415
610.577	112940
610.644	113110
610.711	117701
610.778	121231
610.845	125702
610.912	135231
610.980	138932
611.047	138732
611.114	137011
611.181	133010
611.248	131310
611.315	140916
611.382	143095
611.449	150224
611.516	151536
611.583	149570
611.650	151105
611.717	154469
611.784	157943
611.851	164186
611.918	177102
611.984	210084
612.051	299897
612.118	594044
612.185	1392166
612.252	876151
612.319	262522
612.386	209790
612.452	187607
612.519	177120
612.586	170194
612.653	172810
612.719	179130
612.786	173985
612.853	160365
612.919	154376
612.986	157664
613.053	148053
613.120	139605
613.186	132473
613.253	135731
613.319	133087
613.386	135791
613.453	137641
613.519	139669
613.586	138010
613.652	144512
613.719	140918
613.785	140708
613.852	139708
613.918	138344
613.985	140912
614.051	145310
614.118	145417
614.184	140056
614.250	136507
614.317	141045
614.383	140170
614.449	142365
614.516	141484
614.582	141849
614.648	138649
614.715	136848
614.781	136326
614.847	135296
614.914	134064
614.980	130286
615.046	131663
615.112	135247
615.179	135195
615.245	138540
615.311	134686
615.377	137492
615.443	138288
615.509	142686
615.575	147897
615.642	144498
615.708	152917
615.774	157620
615.840	170646
615.906	183966
615.972	225539
616.038	339575
616.104	713756
616.170	1590250
616.236	1326317
616.302	374619
616.368	284986
616.434	201216
616.500	182671
616.565	207129
616.631	263623
616.697	210835
616.763	219075
616.829	336853
616.895	605182
616.961	557470
617.026	236133
617.092	162636
617.158	149379
617.224	143519
617.289	131884
617.355	126043
617.421	123479
617.487	122873
617.552	115542
617.618	114001
617.684	114728
617.749	116695
617.815	109562
617.880	107663
617.946	107200
618.012	109603
618.077	112653
618.143	108248
618.208	108270
618.274	116546
618.339	117909
618.405	97395
618.470	96066
618.536	96168
618.601	94867
618.667	87552
618.732	83054
618.798	81588
618.863	81594
618.928	80401
618.994	83221
619.059	83448
619.124	88081
619.190	82947
619.255	80707
619.320	80973
619.386	80231
619.451	80265
619.516	77372
619.581	79356
619.647	80801
619.712	80409
619.777	76571
619.842	78667
619.907	80550
619.972	80269
620.038	80650
620.103	77892
620.168	77822
620.233	79135
620.298	79488
620.363	81307
620.428	82789
620.493	84752
620.558	84682
620.623	86796
620.688	87005
620.753	86200
620.818	87934
620.883	86978
620.948	88357
621.013	86597
621.078	85086
621.143	85635
621.207	88305
621.272	84582
621.337	83779
621.402	82514
621.467	80291
621.532	80408
621.596	81423
621.661	79141
621.726	78292
621.791	79243
621.855	80300
621.920	79322
621.985	80347
622.049	80945
622.114	81795
622.179	82552
622.243	85786
622.308	87755
622.373	93579
622.437	89225
622.502	85334
622.566	83106
622.631	82834
622.695	85394
622.760	83994
622.824	83063
622.889	84907
622.953	85757
623.018	96653
623.082	96264
623.147	90774
623.211	88212
623.276	88201
623.340	82318
623.404	81302
623.469	80553
623.533	82773
623.597	79867
623.662	80003
623.726	73434
623.790	69555
623.854	66525
623.919	69057
623.983	69455
624.047	71569
624.111	71126
624.176	73824
624.240	73899
624.304	76109
624.368	72205
624.432	73554
624.496	75515
624.560	81545
624.625	83329
624.689	80255
624.753	83742
624.817	79380
624.881	76828
624.945	69049
625.009	66833
625.073	68944
625.137	69877
625.201	77006
625.265	76834
625.329	71595
625.393	71844
625.456	72788
625.520	73683
625.584	75843
625.648	77102
625.712	79517
625.776	77461
625.839	74093
625.903	63126
625.967	57538
626.031	62757
626.095	74174
626.158	68673
626.222	53075
626.286	50851
626.349	48315
626.413	43723
626.477	46288
626.540	45952
626.604	43987
626.668	42948
626.731	42444
626.795	42432
626.858	43366
626.922	42656
626.986	42453
627.049	41018
627.113	44748
627.176	42208
627.240	40191
627.303	41207
627.366	40691
627.430	41646
627.493	41972
627.557	39583
627.620	41208
627.684	42687
627.747	44192
627.810	38942
627.874	34875
627.937	33175
628.000	36156
628.064	33912
628.127	30072
628.190	30771
628.253	29276
628.317	27526
628.380	27017
628.443	26070
628.506	25812
628.569	24965
628.632	23625
628.696	23777
628.759	23125
628.822	22239
628.885	22411
628.948	20356
629.011	22050
629.074	20917
629.137	19571
629.200	18398
629.263	19648
629.326	18721
629.389	19582
629.452	18773
629.515	18379
629.578	18027
629.641	18448
629.704	18270
629.767	18292
629.830	18838
629.892	17292
629.955	16844
630.018	19829
630.081	18283
630.144	20842
630.207	17782
630.269	18506
630.332	16449
630.395	16967
630.458	16112
630.520	15105
630.583	16292
630.646	17733
630.708	15580
630.771	16650
630.834	18481
630.896	17462
630.959	17321
631.021	17291
631.084	15801
631.146	16801
631.209	17608
631.272	16592
631.334	18144
631.397	18217
631.459	18767
631.522	21564
631.584	21047
631.646	23985
631.709	25073
631.771	26727
631.834	24528
631.896	21714
631.958	18893
632.021	18685
632.083	16801
632.145	17940
632.208	16740
632.270	17116
632.332	15525
632.395	15816
632.457	17083
632.519	15198
632.581	16411
632.643	14889
632.706	15605
632.768	14817
632.830	16737
632.892	16322
632.954	16532
633.016	17814
633.078	14483
633.141	16272
633.203	15761
633.265	16489
633.327	16032
633.389	16403
633.451	17063
633.513	18153
633.575	17811
633.637	18337
633.698	18453
633.760	18594
633.822	19707
633.884	20595
633.946	21435
634.008	21810
634.070	23145
634.132	25778
634.193	27484
634.255	32653
634.317	32925
634.379	33213
634.441	28079
634.502	23764
634.564	22647
634.626	19566
634.687	18322
634.749	17226
634.811	17442
634.873	16305
634.934	16678
634.996	17240
635.057	16066
635.119	16789
635.181	17408
635.242	18656
635.304	16039
635.365	20241
635.427	16614
635.488	17711
635.550	16620
635.611	17578
635.673	17179
635.734	20209
635.796	20882
635.857	25257
635.918	26356
635.980	31327
636.041	34008
636.102	37129
636.164	38140
636.225	35943
636.286	29300
636.348	25598
636.409	22225
636.470	19087
636.531	18558
636.593	16954
636.654	16826
636.715	15755
636.776	14912
636.838	14176
636.899	15147
636.960	13590
637.021	14224
637.082	13303
637.143	13372
637.204	12700
637.265	12487
637.326	13939
637.387	14133
637.448	12809
637.509	13933
637.570	13847
637.631	14149
637.692	11866
637.753	11568
637.814	12667
637.875	11994
637.936	11875
637.997	11819
638.058	12407
638.119	11602
638.179	11414
638.240	11272
638.301	11834
638.362	10966
638.423	11150
638.483	11744
638.544	10360
638.605	11590
638.666	10837
638.726	11401
638.787	11778
638.848	10114
638.908	10780
638.969	10846
639.030	9771
639.090	9641
639.151	10682
639.211	11400
639.272	12369
639.332	15986
639.393	13367
639.453	11903
639.514	13903
639.574	10979
639.635	10420
639.695	10836
639.756	9346
639.816	10280
639.877	11848
639.937	13964
639.997	16745
640.058	9615
640.118	9912
640.178	10797
640.239	9631
640.299	10218
640.359	9575
640.420	10645
640.480	13498
640.540	15989
640.600	16868
640.661	13732
640.721	13405
640.781	17910
640.841	15365
640.901	12210
640.961	10673
641.021	11279
641.082	13295
641.142	13340
641.202	12410
641.262	7740
641.322	9985
641.382	7889
641.442	10116
641.502	8140
641.562	9618
641.622	9530
641.682	11768
641.742	14310
641.802	11570
641.861	9764
641.921	8983
641.981	10948
642.041	9204
642.101	10196
642.161	8269
642.221	8303
642.280	8797
642.340	8258
642.400	8231
642.460	9583
642.519	8583
642.579	9205
642.639	9821
642.698	7125
642.758	11396
642.818	9343
642.877	8721
642.937	9304
642.997	9590
643.056	12278
643.116	9288
643.175	10928
643.235	10301
643.294	10662
643.354	12078
643.414	14083
643.473	16697
643.532	20525
643.592	32295
643.651	53645
643.711	99210
643.770	196040
643.830	477109
643.889	993328
643.948	248364
644.008	45724
644.067	25517
644.126	17348
644.186	15300
644.245	13514
644.304	11057
644.363	13137
644.423	10370
644.482	11484
644.541	11569
644.600	11418
644.659	17768
644.719	21250
644.778	35963
644.837	62551
644.896	135936
644.955	310762
645.014	103739
645.073	21697
645.132	14702
645.191	13944
645.250	12440
645.309	14085
645.368	14471
645.427	21142
645.486	36308
645.545	66443
645.604	20219
645.663	11343
645.722	11876
645.781	13981
645.840	15002
645.898	19638
645.957	30380
646.016	49879
646.075	93683
646.134	187023
646.192	499644
646.251	740977
646.310	118956
646.369	31465
646.427	24642
646.486	16653
646.545	13267
646.603	11241
646.662	10943
646.721	10592
646.779	10041
646.838	10994
646.896	16015
646.955	21107
647.014	35271
647.072	72576
647.131	204087
647.189	99352
647.248	15117
647.306	10703
647.365	9275
647.423	6173
647.481	8325
647.540	6444
647.598	6971
647.657	5823
647.715	7491
647.773	5385
647.832	7226
647.890	5167
647.948	5498
648.007	5899
648.065	4716
648.123	5587
648.181	7133
648.240	5954
648.298	4739
648.356	5299
648.414	6406
648.472	6117
648.531	5643
648.589	5436
648.647	5753
648.705	4700
648.763	5600
648.821	5635
648.879	6666
648.937	6874
648.995	10087
649.053	14630
649.111	23185
649.169	40572
649.227	77229
649.285	164561
649.343	479373
649.401	228329
649.459	34368
649.516	18584
649.574	10606
649.632	12158
649.690	12596
649.748	16444
649.806	23516
649.863	48700
649.921	142428
649.979	96923
650.037	13638
650.094	5394
650.152	6142
650.210	4010
650.268	5836
650.325	5250
650.383	8027
650.440	4277
650.498	3733
650.556	3340
650.613	3379
650.671	3712
650.728	3465
650.786	4953
650.843	6449
650.901	2736
650.958	3794
651.016	2612
651.073	3186
651.131	2132
651.188	2040
651.246	2521
651.303	2368
651.360	2962
651.418	2445
651.475	2920
651.532	1080
651.590	2760
651.647	2071
651.704	2051
651.762	1545
651.819	2265
651.876	2076
651.933	2041
651.990	2693
652.048	1100
652.105	1887
652.162	2447
652.219	2305
652.276	2303
652.333	2848
652.390	1260
652.448	1906
652.505	1673
652.562	2538
652.619	1644
652.676	1792
652.733	2192
652.790	1586
652.847	1185
652.904	1425
652.961	545
653.017	1685
653.074	2448
653.131	2053
653.188	582
653.245	1540
653.302	1560
653.359	2196
653.415	1972
653.472	1839
653.529	1942
653.586	789
653.642	1507
653.699	2311
653.756	1389
653.813	1282
653.869	2438
653.926	1061
653.983	1484
654.039	2670
654.096	2165
654.152	2775
654.209	-63
654.266	1484
654.322	285
654.379	1640
654.435	1955
654.492	1738
654.548	2157
654.605	3338
654.661	2960
654.717	2503
654.774	1762
654.830	1833
654.887	1920
654.943	2361
655.000	3842
655.056	2001
655.112	1887
655.168	1124
655.225	1558
655.281	1710
655.337	1710
655.394	1263
655.450	1481
655.506	1655
655.562	1138
655.618	1871
655.675	1157
655.731	2531
655.787	831
655.843	2233
655.899	762
655.955	2672
656.011	2992
656.067	2165
656.123	3083
656.179	3699
656.235	4515
656.291	2503
656.347	4040
656.403	2628
656.459	1473
656.515	2165
656.571	1898
656.627	2627
656.683	1465
656.739	2075
656.795	2169
656.850	1422
656.906	2782
656.962	2473
657.018	1118
657.074	2472
657.129	3915
657.185	7343
657.241	16615
657.297	9333
657.352	2393
657.408	1279
657.464	1974
657.519	1602
657.575	331
657.630	1741
657.686	1194
657.742	887
657.797	514
657.853	912
657.908	1854
657.964	-159
658.019	1204
658.075	1735
658.130	1501
658.186	196
658.241	878
658.297	862
658.352	1172
658.407	967
658.463	679
658.518	580
658.573	360
658.629	650
658.684	725
658.739	1473
658.795	-922
658.850	843
658.905	-52
658.960	1512
659.016	521
659.071	968
659.126	971
659.181	917
659.236	4146
659.291	3451
659.346	1304
659.401	876
659.457	1879
659.512	745
659.567	1276
659.622	1089
659.677	627
659.732	704
659.787	893
659.842	469
659.897	661
659.952	1437
660.007	528
660.061	768
660.116	585
660.171	1074
660.226	762
660.281	1916
660.336	-11
660.391	1240
660.445	448
660.500	1020
660.555	789
660.610	578
660.664	1734
660.719	481
660.774	782
660.828	1696
660.883	512
660.938	1442
660.992	-248
661.047	1420
661.101	383
661.156	256
661.211	93
661.265	743
661.320	726
661.374	1192
661.429	464
661.483	1113
661.538	547
661.592	1112
661.647	976
661.701	2321
661.755	1195
661.810	1144
661.864	944
661.919	282
661.973	1124
662.027	634
662.081	463
662.136	358
662.190	1218
662.244	578
662.299	1005
662.353	764
662.407	521
662.461	1384
662.515	546
662.569	53
662.624	731
662.678	393
662.732	-121
662.786	274
662.840	213
662.894	610
662.948	873
663.002	1408
663.056	489
663.110	-281
663.164	940
663.218	-58
663.272	1119
663.326	1450
663.380	1406
663.434	731
663.488	475
663.542	1446
663.595	639
663.649	297
663.703	1034
663.757	614
663.811	421
663.864	723
663.918	1118
663.972	819
664.026	742
664.079	833
664.133	949
664.187	1285
664.240	233
664.294	706
664.348	990
664.401	829
664.455	1384
664.508	48
664.562	178
664.615	1716
664.669	255
664.722	532
664.776	292
664.829	936
664.883	878
664.936	567
664.990	656
665.043	725
665.097	620
665.150	1270
665.203	7
665.257	1241
665.310	562
665.363	1653
665.417	1142
665.470	887
665.523	1081
665.576	1878
665.630	1372
665.683	1094
665.736	829
665.789	1552
665.842	273
665.895	458
665.949	-224
666.002	1127
666.055	1308
666.108	1711
666.161	918
666.214	1745
666.267	1241
666.320	1488
666.373	992
666.426	651
666.479	818
666.532	1404
666.585	1853
666.638	1621
666.691	666
666.744	1140
666.796	1045
666.849	235
666.902	1277
666.955	560
667.008	825
667.060	1403
667.113	1092
667.166	1218
667.219	1836
667.271	1033
667.324	1031
667.377	995
667.430	1216
667.482	1040
667.535	1053
667.587	1636
667.640	818
667.693	2088
667.745	3078
667.798	4087
667.850	1802
667.903	1385
667.955	1108
668.008	853
668.060	767
668.113	1151
668.165	638
668.218	1238
668.270	140
668.322	659
668.375	1665
668.427	1507
668.479	313
668.532	1059
668.584	-7
668.636	647
668.689	1310
668.741	1082
668.793	1846
668.845	639
668.898	642
668.950	355
669.002	840
669.054	359
669.106	-361
669.158	1185
669.211	912
669.263	819
669.315	147
669.367	1023
669.419	243
669.471	2189
669.523	1303
669.575	759
669.627	630
669.679	554
669.731	586
669.783	736
669.835	885
669.886	831
669.938	1181
669.990	1453
670.042	950
670.094	823
670.146	405
670.197	873
670.249	806
670.301	1233
670.353	1869
670.404	2322
670.456	1198
670.508	2225
670.560	1762
670.611	3712
670.663	6014
670.715	15310
670.766	27235
670.818	9979
670.869	2233
670.921	2512
670.972	1537
671.024	1475
671.075	687
671.127	1884
671.178	1791
671.230	2094
671.281	2168
671.333	2167
671.384	2321
671.436	4580
671.487	7186
671.538	11300
671.590	18109
671.641	31036
671.692	60402
671.744	127304
671.795	87109
671.846	30324
671.897	13651
671.949	7345
672.000	5093
672.051	3603
672.102	3674
672.153	2134
672.204	1617
672.256	2251
672.307	916
672.358	1635
672.409	874
672.460	1440
672.511	1325
672.562	360
672.613	623
672.664	161
672.715	1495
672.766	1436
672.817	112
672.868	729
672.919	649
672.970	302
673.021	371
673.071	-88
673.122	339
673.173	878
673.224	817
673.275	407
673.326	700
673.376	681
673.427	-98
673.478	504
673.528	715
673.579	486
673.630	-226
673.680	1546
673.731	567
673.782	352
673.832	475
673.883	659
673.934	333
673.984	456
674.035	143
674.085	478
674.136	440
674.186	1171
674.237	105
674.287	313
674.338	685
674.388	670
674.438	514
674.489	642
674.539	1149
674.589	1282
674.640	1214
674.690	1318
674.740	1146
674.791	99
674.841	781
674.891	658
674.942	265
674.992	564
675.042	677
675.092	873
675.142	-244
675.193	477
675.243	-584
675.293	628
675.343	431
675.393	435
675.443	862
675.493	69
675.543	-83
675.593	505
675.643	707
675.693	202
675.743	198
675.793	637
675.843	-166
675.893	-201
675.943	533
675.993	-260
676.043	74
676.093	549
676.142	167
676.192	608
676.242	-272
676.292	-758
676.341	-931
676.391	-266
676.441	356
676.491	435
676.540	652
676.590	-152
676.640	194
676.689	31
676.739	-348
676.789	-145
676.838	-271
676.888	386
676.937	128
676.987	-505
677.037	112
677.086	224
677.136	215
677.185	-430
677.235	-183
677.284	-340
677.333	-59
677.383	3
677.432	-461
677.482	516
677.531	232
677.580	506
677.630	32
677.679	-398
677.728	-249
677.778	-135
677.827	-550
677.876	407
677.925	-760
677.975	782
678.024	655
678.073	-228
678.122	122
678.171	-324
678.220	490
678.269	716
678.319	675
678.368	1687
678.417	217
678.466	194
678.515	-217
678.564	93
678.613	-91
678.662	-297
678.711	180
678.760	-262
678.809	-137
678.857	325
678.906	502
678.955	532
679.004	-91
679.053	134
679.102	366
679.151	34
679.199	-302
679.248	-25
679.297	48
679.346	826
679.394	-417
679.443	-371
679.492	247
679.540	47
679.589	-534
679.638	-304
679.686	237
679.735	656
679.784	167
679.832	1469
679.881	820
679.929	227
679.978	-46
680.026	251
680.075	632
680.123	322
680.172	172
680.220	-167
680.268	-762
680.317	-425
680.365	-368
680.414	-570
680.462	-250
680.510	-121
680.559	389
680.607	130
680.655	133
680.703	235
680.752	-56
680.800	-206
680.848	-251
680.896	-374
680.945	-724
680.993	-324
681.041	-89
681.089	-13
681.137	691
681.185	-200
681.233	-631
681.258	-442
681.281	-271
681.329	-871
681.377	-485
681.380	-449
681.425	66
681.473	178
681.502	62
681.521	-40
681.569	1065
681.617	-77
681.624	-52
681.665	60
681.713	752
681.745	309
681.761	85
681.809	-341
681.857	455
681.867	333
681.904	-121
681.952	-462
681.989	-107
682.000	-17
682.048	-175
682.096	584
682.111	271
682.143	-432
682.191	-49
682.233	653
682.239	750
682.286	365
682.334	238
682.354	284
682.382	338
682.430	573
682.476	-92
682.477	-113
682.525	206
682.572	451
682.598	393
682.620	335
682.667	-505
682.715	583
682.720	561
682.763	248
682.810	265
682.841	7
682.857	-138
682.905	-31
682.952	954
682.963	847
683.000	409
683.047	-286
683.085	956
683.095	1295
683.142	-773
683.190	639
683.206	383
683.237	-118
683.284	1027
683.328	858
683.332	839
683.379	458
683.426	607
683.449	680
683.473	744
683.521	466
683.568	922
683.571	917
683.615	761
683.662	454
683.693	132
683.709	-35
683.757	108
683.804	827
683.814	654
683.851	-25
683.898	568
683.936	831
683.945	890
683.992	93
684.039	1672
684.057	1408
684.086	1043
684.133	1372
684.179	920
684.180	891
684.227	1846
684.274	1054
684.300	1424
684.321	1717
684.368	209
684.415	924
684.422	912
684.462	863
684.509	375
684.543	312
684.556	301
684.603	1397
684.649	591
684.665	591
684.696	523
684.743	921
684.786	726
684.790	711
684.837	652
684.883	741
684.908	984
684.930	1146
684.977	985
685.023	432
685.029	436
685.070	535
685.117	1073
685.150	1147
685.164	1133
685.210	820
685.257	1014
685.272	1086
685.303	1328
685.350	707
685.393	997
685.396	1024
685.443	1679
685.490	2095
685.514	2095
685.536	1881
685.583	1402
685.629	877
685.636	818
685.675	647
685.722	1405
685.757	1229
685.768	1176
685.815	942
685.861	1061
685.878	1095
685.908	1061
685.954	415
686.000	597
686.000	601
686.047	630
686.093	1141
686.121	1353
686.139	1462
686.185	1512
686.232	1031
686.242	1072
686.278	1173
686.324	1350
686.363	743
686.370	637
686.416	1224
686.463	1531
686.484	1497
686.509	1452
686.555	1435
686.601	790
686.606	857
686.647	1427
686.693	1113
686.727	1147
686.739	1146
686.785	1092
686.831	1107
686.848	1086
686.877	1123
686.923	1213
686.969	1449
686.969	1450
687.015	1702
687.061	1145
687.090	1380
687.107	1446
687.153	1141
687.199	2113
687.211	1809
687.245	1127
687.291	1775
687.332	1463
687.336	1443
687.382	1664
687.428	1967
687.453	2283
687.474	2414
687.520	2684
687.565	2386
687.574	2383
687.611	2818
687.657	3009
687.695	3854
687.702	4096
687.748	5601
687.794	7580
687.816	7751
687.839	6746
687.885	4439
687.931	3016
687.937	2847
687.976	2796
688.022	2570
688.058	2429
688.067	2410
688.113	2242
688.158	1789
688.179	1743
688.204	1814
688.249	1469
688.295	2434
688.300	2433
688.340	2353
688.386	2098
688.421	1879
688.431	1845
688.477	2117
688.522	1838
688.542	2264
688.567	2828
688.613	2071
688.658	2772
688.663	2748
688.703	2386
688.749	1832
688.784	1928
688.794	1951
688.839	2148
688.884	2442
688.905	2279
688.930	2198
688.975	2302
689.020	2547
689.026	2532
689.065	2447
689.110	1926
689.146	1969
689.155	2027
689.201	3092
689.246	3006
689.267	3175
689.291	3069
689.336	2924
689.381	2433
689.388	2358
689.426	2201
689.471	2469
689.509	2373
689.516	2387
689.561	2976
689.606	2507
689.630	2712
689.651	2757
689.696	1920
689.741	2069
689.750	2008
689.785	2078
689.830	2583
689.871	2594
689.875	2570
689.920	2663
689.965	2448
689.992	2264
690.010	2239
690.054	2507
690.099	2494
690.112	2424
690.144	2255
690.189	2412
690.233	2332
690.233	2338
690.278	2762
690.323	3059
690.354	3008
690.367	2895
690.412	2941
690.457	2685
690.474	2741
690.501	2799
690.546	2413
690.590	2151
690.595	2145
690.635	2474
690.680	2458
690.716	2511
690.724	2440
690.769	2163
690.813	2140
690.836	1875
690.857	1940
690.902	2417
690.946	2366
690.957	2536
690.991	2929
691.035	2690
691.077	3172
691.080	3190
691.124	2847
691.168	2759
691.198	2496
691.213	2481
691.257	2390
691.301	2906
691.318	2930
691.346	2934
691.390	2780
691.434	2763
691.439	2778
691.478	3003
691.522	3194
691.559	3056
691.567	3021
691.611	2990
691.655	3148
691.680	3101
691.699	3059
691.743	3120
691.787	3003
691.800	2882
691.831	2731
691.875	3163
691.919	3014
691.921	3012
691.964	3053
692.008	2665
692.041	2561
692.052	2560
692.096	3082
692.139	2844
692.162	2874
692.183	2899
692.227	2913
692.271	2720
692.282	2717
692.315	2904
692.359	3041
692.402	3256
692.403	3264
692.447	3428
692.490	2944
692.523	2951
692.534	2972
692.578	2927
692.622	2858
692.643	2841
692.666	2870
692.709	2848
692.753	3045
692.763	3006
692.797	2858
692.840	2864
692.884	2508
692.884	2516
692.928	2938
692.971	3103
693.004	3343
693.015	3376
693.059	3048
693.102	3211
693.124	3190
693.146	3176
693.189	3108
693.233	2898
693.245	2906
693.276	3073
693.320	3295
693.363	3218
693.365	3207
693.407	3122
693.450	3268
693.485	3158
693.493	3130
693.537	3316
693.580	2957
693.605	3049
693.624	3134
693.667	3052
693.710	2999
693.725	2965
693.753	2953
693.797	2814
693.840	2996
693.845	2956
693.883	2836
693.926	3125
693.966	3217
693.970	3229
694.013	3154
694.056	3023
694.086	3073
694.099	3070
694.142	2825
694.185	2685
694.206	2734
694.229	3106
694.272	3194
694.315	3782
694.326	3886
694.358	4002
694.401	4068
694.444	4223
694.446	4212
694.487	4172
694.530	4339
694.566	4237
694.573	4187
694.616	3894
694.659	3660
694.686	3547
694.702	3649
694.745	3685
694.787	4059
694.806	4047
694.830	3840
694.873	3653
694.916	3438
694.926	3329
694.959	3480
695.002	4043
695.044	4349
695.046	4345
695.087	4235
695.130	4388
695.166	4449
695.172	4467
695.215	4313
695.258	4338
695.286	4341
695.301	4385
695.343	4361
695.386	4544
695.406	4505
695.428	4647
695.471	4979
695.514	5398
695.526	5495
695.556	5674
695.599	5927
695.641	6008
695.646	6013
695.684	5941
695.726	5748
695.766	5684
695.769	5683
695.811	5270
695.854	5015
695.886	4946
695.896	5063
695.938	5071
695.981	5233
696.005	5357
696.023	5564
696.065	5948
696.108	6432
696.125	6564
696.150	6625
696.192	6943
696.235	6892
696.245	6920
696.277	6782
696.319	6513
696.361	6256
696.365	6208
696.404	6327
696.446	6643
696.485	6676
696.488	6680
696.530	6722
696.572	6562
696.604	6541
696.614	6530
696.656	6214
696.698	6065
696.724	5956
696.740	6080
696.783	6294
696.825	6496
696.844	6629
696.867	6752
696.909	6717
696.951	6860
696.964	6840
696.992	6705
697.034	6601
697.076	6472
697.083	6428
697.118	6616
697.160	6825
697.202	7031
697.203	7016
697.244	6903
697.286	6832
697.323	6621
697.327	6678
697.369	7112
697.411	7488
697.442	7779
697.453	7828
697.494	7920
697.536	8009
697.562	8014
697.578	7993
697.620	7993
697.661	7890
697.682	7843
697.703	7925
697.744	8074
697.786	8133
697.801	8157
697.828	8177
697.869	8086
697.911	8033
697.921	8016
697.952	8063
697.994	7994
698.035	7995
698.040	7969
698.077	7985
698.118	7952
698.160	7940
698.160	7917
698.201	8034
698.243	8091
698.279	8159
698.284	8216
698.325	8495
698.367	8802
698.399	8996
698.408	9039
698.449	9181
698.491	9270
698.518	9326
698.532	9299
698.573	9092
698.614	8931
698.638	8787
698.656	8825
698.697	8902
698.738	8952
698.757	8957
698.779	8946
698.820	8868
698.862	8789
698.877	8740
698.903	8866
698.944	9021
698.985	9175
698.996	9195
699.026	9108
699.067	8953
699.116	8746
699.235	7997
699.354	8447
699.474	8566
699.593	8304
699.713	8575
699.832	8622
699.951	8987
700.070	9816
700.190	7899
700.309	7925
700.428	7427
700.547	7803
700.667	7638
700.786	7770
700.905	7190
701.024	6914
701.143	7137
701.262	7171
701.381	7733
701.500	8114
701.619	9277
701.738	7756
701.857	7764
701.976	7345
702.095	7153
702.214	8654
702.333	8675
702.452	7725
702.571	7954
702.690	8278
702.809	6628
702.928	7251
703.047	7174
703.165	7561
703.284	6454
703.403	8048
703.522	6548
703.640	6679
703.759	8052
703.878	7214
703.997	6924
704.115	7006
704.234	7555
704.353	6674
704.471	5873
704.590	6185
704.708	6570
704.827	6213
704.946	6229
705.064	6073
705.183	6569
705.301	5794
705.420	5654
705.538	6796
705.656	6287
705.775	5412
705.893	5566
706.012	4509
706.130	5684
706.249	6156
706.367	5555
706.485	5799
706.604	5438
706.722	6913
706.840	9902
706.958	19045
707.077	10452
707.195	6597
707.313	5625
707.431	4611
707.549	4077
707.668	4524
707.786	6025
707.904	4366
708.022	5244
708.140	5894
708.258	5344
708.376	6315
708.494	4697
708.612	6039
708.730	5795
708.848	6065
708.966	5467
709.084	6700
709.202	5461
709.320	4009
709.438	4320
709.556	4778
709.674	3272
709.791	4528
709.909	4143
710.027	5112
710.145	3713
710.263	4134
710.380	2639
710.498	4360
710.616	4017
710.733	4062
710.851	3779
710.969	4494
711.086	4442
711.204	5112
711.322	4319
711.439	4039
711.557	4229
711.674	4250
711.792	4169
711.909	4137
712.027	3391
712.144	3856
712.262	4516
712.379	3773
712.497	4582
712.614	4483
712.732	4360
712.849	4022
712.966	4890
713.084	7228
713.201	4426
713.318	5394
713.436	5116
713.553	5314
713.670	6495
713.787	5880
713.905	5788
714.022	6070
714.139	7020
714.256	12854
714.373	22969
714.490	52897
714.608	169802
714.725	757290
714.842	723380
714.959	48223
715.076	16143
715.193	11000
715.310	9294
715.427	6145
715.544	6804
715.661	7521
715.778	4439
715.895	4379
716.011	5831
716.128	4975
716.245	4896
716.362	7345
716.479	5503
716.596	4916
716.713	5113
716.829	4289
716.946	3518
717.063	3494
717.180	2979
717.296	3990
717.413	4144
717.530	3426
717.646	3656
717.763	3711
717.880	2572
717.996	2971
718.113	3865
718.229	3748
718.346	3611
718.462	3540
718.579	5631
718.695	12321
718.812	5594
718.928	4205
719.045	4357
719.161	3103
719.277	3437
719.394	4329
719.510	3907
719.626	5584
719.743	9683
719.859	19679
719.975	49221
720.092	236304
720.208	527091
720.324	49742
720.440	9543
720.557	8226
720.673	10767
720.789	7091
720.905	3565
721.021	3296
721.137	3922
721.253	3197
721.369	3001
721.486	2991
721.602	2567
721.718	2658
721.834	3489
721.950	3491
722.066	2753
722.181	2640
722.297	2959
722.413	2831
722.529	2396
722.645	3464
722.761	3251
722.877	2252
722.993	3646
723.108	7764
723.224	6252
723.340	3045
723.456	2434
723.571	2696
723.687	2422
723.803	2923
723.918	2456
724.034	3164
724.150	1923
724.265	2436
724.381	1939
724.497	2179
724.612	2564
724.728	2414
724.843	1835
724.959	2839
725.074	2243
725.190	2464
725.305	2707
725.421	2199
725.536	2023
725.651	2284
725.767	2547
725.882	2966
725.997	2231
726.113	2639
726.228	1836
726.343	2138
726.459	1831
726.574	1859
726.689	1939
726.804	2157
726.920	1546
727.035	2021
727.150	1995
727.265	2270
727.380	2477
727.495	2116
727.610	2104
727.725	1910
727.841	2567
727.956	2463
728.071	2692
728.186	2190
728.301	1443
728.416	2752
728.531	1830
728.645	2353
728.760	2165
728.875	2376
728.990	1833
729.105	2766
729.220	2954
729.335	2373
729.449	2170
729.564	2457
729.679	1561
729.794	2993
729.908	2045
730.023	2406
730.138	2423
730.253	2288
730.367	2212
730.482	2502
730.596	2285
730.711	3146
730.826	6329
730.940	8135
731.055	3023
731.169	3627
731.284	3370
731.398	3707
731.513	3783
731.627	4078
731.742	5325
731.856	6435
731.970	8403
732.085	11492
732.199	19981
732.313	39276
732.428	116735
732.542	359526
732.656	196983
732.771	27664
732.885	13793
732.999	9964
733.113	8014
733.227	7237
733.342	7346
733.456	6695
733.570	5970
733.684	5955
733.798	4762
733.912	5073
734.026	4353
734.140	5401
734.254	4861
734.368	5383
734.482	4338
734.596	3854
734.710	3085
734.824	4548
734.938	4222
735.052	4902
735.166	4398
735.280	4706
735.393	4462
735.507	4788
735.621	3915
735.735	3727
735.849	4261
735.962	3896
736.076	4616
736.190	4164
736.303	3526
736.417	4098
736.531	3535
736.644	4492
736.758	3321
736.872	3239
736.985	3852
737.099	3994
737.212	3737
737.326	3447
737.439	3861
737.553	3642
737.666	4245
737.780	4561
737.893	3267
738.007	2805
738.120	3234
738.233	3426
738.347	3054
738.460	3818
738.573	4650
738.687	3008
738.800	4525
738.913	5669
739.026	3302
739.140	3243
739.253	2890
739.366	3851
739.479	2699
739.592	3630
739.705	2709
739.818	3836
739.932	2846
740.045	3718
740.158	2867
740.271	3669
740.384	2902
740.497	3107
740.610	3106
740.723	4462
740.836	3118
740.949	4097
741.062	4953
741.174	3975
741.287	3006
741.400	3320
741.513	2751
741.626	3831
741.739	3388
741.851	3218
741.964	2899
742.077	2999
742.189	3305
742.302	6756
742.415	5973
742.527	2942
742.640	2388
742.753	3134
742.865	3367
742.978	3073
743.090	2378
743.203	3025
743.316	2898
743.428	2736
743.541	3044
743.653	2280
743.766	3192
743.878	3212
743.990	2281
744.103	6354
744.215	11855
744.327	4640
744.440	4127
744.552	6568
744.664	3588
744.777	2498
744.889	3251
745.001	3020
745.113	2231
745.226	2166
745.338	3398
745.450	3210
745.562	1753
745.674	2817
745.786	2084
745.898	2633
746.010	1846
746.122	2343
746.234	2149
746.347	2937
746.459	3154
746.570	3275
746.682	7126
746.794	15342
746.906	7610
747.018	2870
747.130	3019
747.242	3048
747.354	2720
747.466	2909
747.577	1934
747.689	3036
747.801	2131
747.913	2436
748.024	2018
748.136	1790
748.248	1983
748.359	2065
748.471	1968
748.583	1692
748.694	1865
748.806	2030
748.918	1340
749.029	2005
749.141	2716
749.252	2483
749.364	3104
749.475	6715
749.587	2812
749.698	1695
749.809	2573
749.921	2185
750.032	1493
750.144	1539
750.255	2303
750.366	1867
750.478	2223
750.589	2262
750.700	1856
750.811	2352
750.923	3193
751.034	6832
751.145	6157
751.256	2031
751.367	1485
751.479	1393
751.590	1021
751.701	1686
751.812	1592
751.923	1310
752.034	1804
752.145	1898
752.256	1763
752.367	1976
752.478	1465
752.589	1713
752.700	1257
752.811	1207
752.922	1507
753.032	2742
753.143	2812
753.254	1688
753.365	2368
753.476	2405
753.586	1800
753.697	1761
753.808	1480
753.919	1283
754.029	1081
754.140	1608
754.251	1372
754.361	904
754.472	1693
754.582	2041
754.693	1462
754.804	2371
754.914	624
755.025	1397
755.135	1472
755.246	1899
755.356	1081
755.466	1660
755.577	1846
755.687	1510
755.798	931
755.908	1612
756.018	1021
756.129	1766
756.239	1162
756.349	2656
756.460	1981
756.570	2907
756.680	1634
756.790	2090
756.900	968
757.011	1284
757.121	1061
757.231	1751
757.341	990
757.451	1054
757.561	1098
757.671	1992
757.781	535
757.891	2267
758.001	982
758.111	2348
758.221	1744
758.331	2959
758.441	2726
758.551	3964
758.661	3447
758.771	2960
758.880	2618
758.990	1860
759.100	1415
759.210	2784
759.320	1668
759.429	2887
759.539	2742
759.649	4206
759.758	4847
759.868	5742
759.978	4892
760.087	5131
760.197	6266
760.307	5004
760.416	4051
760.526	3142
760.635	5032
760.745	4828
760.854	6055
760.964	6295
761.073	6699
761.182	6713
761.292	4597
761.401	2914
761.511	3316
761.620	2763
761.729	2027
761.839	1583
761.948	2375
762.057	2069
762.166	1545
762.276	1511
762.385	2693
762.494	1227
762.603	1165
762.712	1727
762.822	1357
762.931	1681
763.040	-35
763.149	1076
763.258	110
763.367	1648
763.476	1184
763.585	939
763.694	1413
763.803	916
763.912	790
764.021	1317
764.130	1196
764.238	1874
764.347	1005
764.456	1687
764.565	837
764.674	1667
764.783	649
764.891	681
765.000	1195
765.109	1373
765.217	-755
765.326	1417
765.435	417
765.543	1186
765.652	396
765.761	818
765.869	1147
765.978	1518
766.086	1946
766.195	1991
766.303	3914
766.412	13749
766.520	12151
766.629	1597
766.737	719
766.846	320
766.954	72
767.062	1187
767.171	807
767.279	2177
767.387	1143
767.496	981
767.604	623
767.712	169
767.820	379
767.928	794
768.037	154
768.145	1362
768.253	934
768.361	-27
768.469	373
768.577	387
768.685	759
768.793	1172
768.901	-385
769.009	596
769.117	143
769.225	1100
769.333	672
769.441	1215
769.549	552
769.657	890
769.765	3823
769.873	10549
769.981	2281
770.088	407
770.196	587
770.304	1222
770.412	1094
770.519	976
770.627	1761
770.735	904
770.842	1190
770.950	1698
771.058	805
771.165	2070
771.273	1683
771.380	2098
771.488	2926
771.595	3204
771.703	1621
771.810	2307
771.918	2031
772.025	3075
772.133	4115
772.240	2694
772.348	3786
772.455	3237
772.562	2165
772.670	3056
772.777	3362
772.884	3526
772.991	2404
773.099	3563
773.206	2339
773.313	3364
773.420	2620
773.528	3085
773.635	2606
773.742	2486
773.849	2609
773.956	2936
774.063	2312
774.170	2756
774.277	3126
774.384	2303
774.491	1361
774.598	2628
774.705	2546
774.812	3219
774.919	1896
775.026	2421
775.133	2512
775.239	2052
775.346	1915
775.453	2774
775.560	1966
775.667	3939
775.773	1740
775.880	2725
775.987	1567
776.093	2027
776.200	2353
776.307	1325
776.413	2917
776.520	2512
776.627	1911
776.733	2676
776.840	1320
776.946	5823
777.053	9566
777.159	24425
777.266	13343
777.372	19294
777.478	17796
777.585	9313
777.691	2871
777.798	3479
777.904	2439
778.010	2707
778.117	3345
778.223	2232
778.329	863
778.435	2148
778.542	2903
778.648	1925
778.754	649
778.860	2488
778.966	2063
779.072	1878
779.178	1783
779.284	1969
779.391	1149
779.497	742
779.603	3827
779.708	11
779.815	1436
779.920	1021
780.026	596
780.132	2674
780.238	2045
780.344	1449
780.450	2199
780.556	1512
780.661	477
780.767	1846
780.873	626
780.979	1997
781.085	2118
781.190	1964
781.296	1081
781.402	1194
781.507	1342
781.613	1045
781.719	572
781.824	1282
781.930	2267
782.035	1801
782.141	1229
782.246	1293
782.352	732
782.457	1443
782.563	1001
782.668	1290
782.773	834
782.879	878
782.984	1817
783.090	1404
783.195	2619
783.300	2319
783.405	405
783.511	703
783.616	1527
783.721	1213
783.826	995
783.932	1679
784.037	617
784.142	1667
784.247	293
784.352	2020
784.457	-244
784.562	1247
784.667	1102
784.772	843
784.877	461
784.982	1837
785.087	356
785.192	1502
785.297	452
785.402	823
785.507	744
785.611	1237
785.716	1126
785.821	609
785.926	1195
786.031	1093
786.135	397
786.240	1011
786.345	-343
786.450	1763
786.554	-13
786.659	966
786.763	176
786.868	1899
786.973	1715
787.077	998
787.182	661
787.286	300
787.391	892
787.495	512
787.600	260
787.704	802
787.809	873
787.913	196
788.017	654
788.122	1160
788.226	589
788.330	-98
788.435	893
788.539	491
788.643	301
788.747	583
788.852	597
788.956	912
789.060	1816
789.164	1135
789.268	114
789.372	1349
789.476	1139
789.580	458
789.684	119
789.788	1164
789.892	921
789.996	523
790.100	42
790.204	773
790.308	189
790.412	222
790.516	388
790.620	23
790.724	1172
790.828	719
790.931	58
791.035	2071
791.139	127
791.242	-290
791.346	956
791.450	721
791.554	653
791.657	-260
791.761	1401
791.864	1879
791.968	595
792.072	704
792.175	326
792.279	149
792.382	249
792.486	709
792.589	143
792.693	781
792.796	-52
792.899	1193
793.003	969
793.106	-660
793.209	318
793.313	536
793.416	-1013
793.519	1529
793.623	2204
793.726	2793
793.829	1072
793.932	107
794.035	-209
794.138	1265
794.242	1218
794.345	156
794.448	746
794.551	801
794.654	2132
794.757	1694
794.860	-15
794.963	981
795.066	-250
795.169	1453
795.272	-121
795.375	1145
795.477	-110
795.580	652
795.683	-1228
795.786	864
795.889	-1309
795.991	1197
796.094	922
796.197	-446
796.300	1525
796.402	522
796.505	-494
796.608	276
796.710	1302
796.813	1024
796.915	1159
797.018	751
797.120	475
797.223	-210
797.326	1253
797.428	821
797.530	-25
797.633	1088
797.735	1556
797.838	506
797.940	1908
798.042	35
798.145	-42
798.247	332
798.349	-307
798.452	1180
798.554	1053
798.656	625
798.758	2203
798.860	354
798.962	229
799.065	1031
799.167	-800
799.269	1516
799.371	1748
799.473	2916
799.575	1427
799.677	857
799.779	2232
799.881	1110
799.983	1238
800.085	312
800.187	311
800.289	-788
800.390	765
800.492	619
800.594	1437
800.696	-353
800.798	348
800.899	-295
801.001	-196
801.103	406
801.205	779
801.306	191
801.408	-987
801.509	568
801.611	-654
801.713	1043
801.814	-622
801.916	724
802.017	407
802.119	16
802.220	176
802.322	-1203
802.423	962
802.525	-815
802.626	-228
802.727	849
802.829	662
802.930	-813
803.031	860
803.133	-199
803.234	170
803.335	-131
803.436	-993
803.538	-106
803.639	-1094
803.740	522
803.841	40
803.942	893
804.043	991
804.144	333
804.245	-75
804.346	539
804.447	-959
804.548	1471
804.649	1561
804.750	-238
804.851	-426
804.952	-554
805.053	-190
805.154	-582
805.255	966
805.355	8
805.456	-180
805.557	-404
805.658	-445
805.758	251
805.859	-6
805.960	-430
806.061	-819
806.161	-286
806.262	36
806.362	684
806.463	-435
806.564	337
806.664	-385
806.765	167
806.865	-169
806.966	-656
807.066	-1364
807.166	1066
807.267	379
807.367	-757
807.468	565
807.568	-1101
807.668	599
807.769	559
807.869	-1218
807.969	802
808.069	45
808.170	382
808.270	-723
808.370	207
808.470	521
808.570	-510
808.670	-724
808.770	550
808.870	-1234
808.970	569
809.070	19
809.170	-788
809.271	-214
809.370	-1072
809.470	436
809.570	-598
809.670	-698
809.770	-429
809.870	-79
809.970	-249
810.070	-1410
810.169	-394
810.269	-1207
810.369	609
810.469	10
810.568	237
810.668	172
810.768	-616
810.867	-242
810.967	88
811.066	313
811.166	-216
811.265	1040
811.365	-367
811.464	12
811.564	304
811.663	-631
811.763	-1015
811.862	341
811.962	134
812.061	-818
812.160	-504
812.260	-476
812.359	210
812.458	-307
812.557	220
812.657	-739
812.756	623
812.855	-654
812.954	-697
813.053	226
813.153	-183
813.252	-1076
813.351	153
813.450	535
813.549	-865
813.648	5
813.747	309
813.846	675
813.945	18
814.044	-88
814.143	38
814.242	200
814.341	-148
814.439	103
814.538	1015
814.637	-196
814.736	-131
814.835	346
814.933	327
815.032	593
815.131	959
815.229	1162
815.328	2198
815.427	1094
815.525	1814
815.624	1717
815.722	826
815.821	1561
815.919	1233
816.018	1119
816.116	2348
816.215	1932
816.313	2432
816.412	2665
816.510	1581
816.609	4094
816.707	3756
816.805	3367
816.904	2563
817.002	2842
817.100	4280
817.198	3777
817.296	2392
817.395	2016
817.493	2858
817.591	1848
817.689	2745
817.787	1140
817.885	1863
817.983	2492
818.081	2287
818.179	2938
818.277	2926
818.375	4402
818.473	5468
818.571	3688
818.669	3986
818.767	5639
818.865	3522
818.963	1375
819.061	1652
819.158	1341
819.256	4304
819.354	2141
819.452	3807
819.549	2383
819.647	2936
819.745	1763
819.842	2036
819.940	2451
820.038	3294
820.135	2218
820.233	4444
820.330	1702
820.428	1609
820.525	2804
820.623	1749
820.720	707
820.818	2251
820.915	1920
821.012	3325
821.110	1832
821.207	3254
821.304	1242
821.402	2290
821.499	5922
821.596	10233
821.693	6826
821.791	3596
821.888	2799
821.985	5556
822.082	2906
822.179	3644
822.276	5485
822.373	3158
822.470	1799
822.567	2070
822.664	931
822.761	2430
822.858	1083
822.955	2100
823.052	732
823.149	1093
823.246	1600
823.343	725
823.440	1058
823.536	1241
823.633	759
823.730	1230
823.827	1907
823.923	835
824.020	2587
824.117	1633
824.213	4047
824.310	2982
824.407	1168
824.503	1833
824.600	1348
824.696	1770
824.793	3892
824.889	2818
824.986	1728
825.082	1810
825.179	1843
825.275	2517
825.371	1399
825.468	2086
825.564	28
825.660	1724
825.757	1953
825.853	1685
825.949	139
826.045	919
826.142	850
826.238	1241
826.334	1129
826.430	914
826.526	216
826.622	89
826.718	1027
826.814	1373
826.910	658
827.006	531
827.102	605
827.198	1679
827.294	446
827.390	1488
827.486	1144
827.582	-596
827.678	-82
827.774	2638
827.869	150
827.965	1822
828.061	190
828.157	1651
828.252	1366
828.348	709
828.444	937
828.539	803
828.635	186
828.731	2207
828.826	258
828.922	1394
829.017	1298
829.113	1685
829.208	909
829.304	1556
829.399	3186
829.495	338
829.590	1662
829.685	1037
829.781	623
829.876	1577
829.971	975
830.066	75
830.162	1045
830.257	444
830.352	1321
830.447	1270
830.543	289
830.638	664
830.733	2302
830.828	1819
830.923	2036
831.018	849
831.113	1268
831.208	-84
831.303	-290
831.398	929
831.493	1026
831.588	1536
831.683	255
831.778	1380
831.873	98
831.967	2040
832.062	723
832.157	307
832.252	1467
832.346	1106
832.441	2249
832.536	1310
832.631	3318
832.725	2198
832.820	1197
832.914	515
833.009	37
833.104	1172
833.198	1144
833.293	411
833.387	1116
833.482	1328
833.576	483
833.670	1731
833.765	1225
833.859	1179
833.954	763
834.048	840
834.142	496
834.237	562
834.331	200
834.425	652
834.519	243
834.613	1432
834.708	351
834.802	1328
834.896	376
834.990	782
835.084	-196
835.178	122
835.272	530
835.366	1073
835.460	1661
835.554	545
835.648	-393
835.742	182
835.836	-1016
835.930	-751
836.024	-147
836.117	1166
836.211	178
836.305	-58
836.399	251
836.493	-707
836.586	1276
836.680	595
836.774	-492
836.867	1148
836.961	-799
837.055	-848
837.148	501
837.242	369
837.335	-609
837.429	-366
837.522	-1032
837.616	-298
837.709	161
837.803	-224
837.896	1356
837.989	-447
838.083	-284
838.176	-571
838.269	46
838.363	1200
838.456	-210
838.549	1528
838.642	1159
838.735	3531
838.829	964
838.922	-601
839.015	439
839.108	-731
839.201	184
839.294	255
839.387	-294
839.480	-174
839.573	242
839.666	-962
839.759	-414
839.852	-327
839.945	-683
840.038	-71
840.131	-441
840.223	-290
840.316	636
840.409	553
840.502	-826
840.594	565
840.687	-1272
840.780	2
840.873	-499
840.965	-307
841.058	-111
841.150	284
841.243	-736
841.336	625
841.428	-432
841.521	-237
841.613	-166
841.706	-81
841.798	-281
841.890	302
841.983	-930
842.075	976
842.167	-573
842.260	70
842.352	602
842.444	-335
842.537	115
842.629	-860
842.721	-620
842.813	641
842.905	-1623
842.997	-612
843.090	96
843.182	430
843.274	-1268
843.366	9
843.458	-609
843.550	964
843.642	72
843.734	582
843.826	-1715
843.918	117
844.009	50
844.101	-760
844.193	50
844.285	875
844.377	1331
844.469	2751
844.560	5758
844.652	5425
844.744	1546
844.835	393
844.927	118
845.019	7
845.110	-58
845.202	266
845.293	-345
845.385	-104
845.476	-308
845.568	521
845.659	-580
845.751	184
845.842	-208
845.934	-682
846.025	-103
846.116	-250
846.208	-356
846.299	-1198
846.390	-514
846.482	34
846.573	666
846.664	43
846.755	474
846.846	846
846.937	-1470
847.029	-574
847.120	-586
847.211	-109
847.302	1229
847.393	-317
847.484	319
847.575	-251
847.666	-867
847.757	-997
847.847	392
847.938	995
848.029	114
848.120	-343
848.211	-57
848.302	-44
848.392	-185
848.483	485
848.574	473
848.664	50
848.755	-521
848.846	651
848.936	-580
849.027	1043
849.118	1055
849.208	1612
849.299	5068
849.389	9604
849.480	23411
849.570	53455
849.661	104163
849.751	180465
849.841	63814
849.932	8709
850.022	2728
850.112	2172
850.203	1337
850.293	1125
850.383	977
850.474	-211
850.564	508
850.654	848
850.744	-451
850.834	219
850.924	1029
851.014	659
851.104	-117
851.194	369
851.284	954
851.374	438
851.464	788
851.554	192
851.644	4
851.734	815
851.824	-240
851.914	-411
852.004	798
852.094	-581
852.183	763
852.273	854
852.363	354
852.452	1533
852.542	770
852.632	432
852.721	937
852.811	500
852.901	1304
852.990	1839
853.080	1913
853.169	3189
853.259	3496
853.348	3876
853.438	5876
853.527	9739
853.617	13597
853.706	27354
853.795	49873
853.885	105968
853.974	195666
854.063	350966
854.152	494853
854.242	220863
854.331	54442
854.420	22611
854.509	13487
854.598	10915
854.687	6889
854.777	5611
854.866	4149
854.955	3835
855.044	1180
855.133	1778
855.222	1472
855.311	822
855.400	452
855.488	1150
855.577	-488
855.666	1371
855.755	861
855.844	868
855.933	-171
856.021	460
856.110	282
856.199	-386
856.288	-859
856.376	-597
856.465	-239
856.554	482
856.642	-93
856.731	385
856.819	557
856.908	-275
856.996	904
857.085	290
857.173	-576
857.262	-3
857.350	-175
857.438	207
857.527	-525
857.615	-6
857.703	-212
857.792	935
857.880	-261
857.968	-460
858.056	-55
858.145	-618
858.233	-768
858.321	-1154
858.409	-652
858.497	-128
858.585	-553
858.673	111
858.761	-802
858.849	719
858.937	-386
859.025	-84
859.113	218
859.201	20
859.289	140
859.377	1312
859.465	365
859.552	112
859.640	-430
859.728	-287
859.816	-892
859.903	-587
859.991	-1751
860.079	260
860.166	-1021
860.254	384
860.342	-633
860.429	-95
860.517	-1306
860.604	-910
860.692	-571
860.779	-713
860.867	-1066
860.954	-31
861.042	-92
861.129	511
861.216	-91
861.304	-515
861.391	332
861.478	123
861.565	-575
861.653	451
861.740	-997
861.827	-290
861.914	41
862.001	-667
862.089	-241
862.176	-126
862.263	-74
862.350	-113
862.437	-355
862.524	-176
862.611	677
862.698	1324
862.785	1529
862.871	3485
862.958	994
863.045	1122
863.132	419
863.219	192
863.306	-230
863.392	-195
863.479	-199
863.566	-142
863.652	91
863.739	-48
863.826	-259
863.912	15
863.999	-566
864.086	-140
864.172	336
864.259	-199
864.345	708
864.432	953
864.518	291
864.604	-204
864.691	48
864.777	1247
864.863	2203
864.950	3128
865.036	4173
865.122	7403
865.209	7137
865.295	7409
865.381	7550
865.467	8865
865.553	10831
865.639	17714
865.726	29298
865.812	57855
865.898	110229
865.984	166616
866.070	295186
866.156	311950
866.242	99025
866.328	26736
866.414	13447
866.499	10483
866.585	8578
866.671	6665
866.757	6714
866.843	6075
866.928	3933
867.014	4509
867.100	4426
867.186	4141
867.271	3634
867.357	4463
867.442	3669
867.528	4191
867.614	3758
867.699	5565
867.785	6162
867.870	9137
867.956	11294
868.041	7538
868.127	5748
868.212	6911
868.297	8302
868.383	5341
868.468	6079
868.553	6241
868.639	5366
868.724	7196
868.809	6339
868.894	3210
868.979	2502
869.065	3807
869.150	2334
869.235	2828
869.320	2415
869.405	2176
869.490	2708
869.575	2433
869.660	1838
869.745	2980
869.830	2448
869.915	2103
870.000	2198
870.085	3038
870.169	3777
870.254	4974
870.339	1611
870.424	1812
870.509	2422
870.593	3172
870.678	2309
870.763	1545
870.847	1749
870.932	3289
871.016	4003
871.101	2843
871.186	2927
871.270	3015
871.355	1973
871.439	1781
871.523	2241
871.608	1611
871.692	1972
871.777	4268
871.861	3155
871.945	1635
872.030	1777
872.114	1967
872.198	1646
872.282	1154
872.367	1669
872.451	1342
872.535	1058
872.619	1742
872.703	1732
872.787	2095
872.871	1975
872.955	1155
873.039	797
873.123	2589
873.207	2231
873.291	739
873.375	1139
873.459	2361
873.543	1204
873.627	1412
873.711	639
873.794	1332
873.878	320
873.962	-393
874.045	576
874.129	1200
874.137	1199
874.213	1185
874.245	1178
874.296	1167
874.352	889
874.380	755
874.460	1048
874.464	1059
874.547	1320
874.568	1436
874.631	1788
874.676	1605
874.714	1450
874.784	2405
874.798	2592
874.881	2093
874.892	1944
874.965	992
874.999	1461
875.048	2040
875.107	1841
875.131	1764
875.215	802
875.215	803
875.298	988
875.323	1172
875.381	1563
875.430	1928
875.465	2201
875.538	1340
875.548	1209
875.631	940
875.646	862
875.714	559
875.753	1088
875.798	1704
875.861	1874
875.881	1910
875.964	1370
875.968	1344
876.047	935
876.076	1210
876.130	1800
876.183	1775
876.213	1691
876.291	1628
876.296	1625
876.379	1279
876.398	1242
876.462	1127
876.506	772
876.545	499
876.613	1014
876.628	1131
876.711	1277
876.721	1335
876.794	1877
876.828	1682
876.877	1113
876.935	849
876.960	867
877.043	892
877.043	894
877.125	1556
877.150	1770
877.208	2215
877.258	1425
877.291	814
877.365	788
877.374	826
877.456	715
877.472	769
877.539	774
877.579	1045
877.622	1461
877.687	1553
877.704	1530
877.787	1009
877.794	993
877.869	914
877.901	1173
877.952	1359
878.008	595
878.034	403
878.115	1139
878.117	1154
878.199	588
878.222	738
878.282	1070
878.329	1525
878.364	1968
878.437	2612
878.447	2620
878.529	773
878.544	740
878.611	1013
878.651	1314
878.694	1683
878.758	1822
878.776	1815
878.858	1090
878.865	1131
878.941	1498
878.972	1155
879.023	713
879.078	881
879.105	1113
879.185	1865
879.187	1873
879.269	2033
879.292	1950
879.351	1652
879.399	1496
879.433	1469
879.506	1421
879.516	1424
879.598	1221
879.613	1131
879.680	596
879.720	1079
879.762	1669
879.827	971
879.844	789
879.926	1355
879.933	1335
880.007	1282
880.040	1338
880.089	1275
880.147	1453
880.171	1659
880.253	1721
880.254	1721
880.335	1825
880.360	1894
880.417	2880
880.467	3686
880.499	3972
880.574	4625
880.580	4625
880.662	2730
880.680	2540
880.744	1516
880.787	1061
880.825	1224
880.893	1649
880.907	1634
880.989	988
881.000	1016
881.070	1654
881.106	1381
881.152	944
881.213	1061
881.233	1128
881.315	1333
881.319	1330
881.396	1368
881.426	1217
881.478	1082
881.532	2001
881.559	2320
881.639	1604
881.641	1589
881.722	1470
881.745	1411
881.803	1898
881.852	2255
881.885	1986
881.958	1405
881.966	1419
882.047	1996
882.064	1890
882.129	1425
882.171	1510
882.210	1940
882.277	2850
882.291	2902
882.372	2617
882.383	2589
882.454	2546
882.489	2443
882.535	2134
882.596	2087
882.616	2138
882.697	1672
882.702	1661
882.778	1481
882.808	1440
882.859	1262
882.914	1182
882.940	1450
883.020	1436
883.021	1438
883.102	1597
883.127	1707
883.183	2356
883.233	2601
883.264	2173
883.339	1110
883.345	1075
883.426	744
883.445	818
883.507	1576
883.551	1606
883.587	1668
883.657	2469
883.668	2624
883.749	2881
883.763	2939
883.830	2121
883.869	1757
883.910	1745
883.975	1779
883.991	1780
884.072	1558
884.081	1543
884.152	2155
884.187	2353
884.233	2369
884.292	2505
884.314	2420
884.394	1653
884.398	1624
884.475	1114
884.504	1002
884.555	1036
884.610	890
884.636	1131
884.716	1983
884.716	1994
884.797	2565
884.821	2683
884.877	2396
884.927	2325
884.958	2405
885.033	2081
885.038	2037
885.118	1039
885.139	938
885.199	1264
885.244	1474
885.279	1618
885.350	2050
885.359	2167
885.439	2803
885.456	2908
885.520	2472
885.561	2106
885.600	1712
885.667	1264
885.680	1375
885.760	2002
885.773	2053
885.840	1330
885.878	963
885.920	961
885.984	1220
886.000	1461
886.080	2214
886.089	2308
886.160	2457
886.195	2470
886.240	2305
886.300	2020
886.320	2076
886.400	2569
886.406	2572
886.480	1907
886.511	1704
886.560	1915
886.616	2022
886.640	1999
886.720	1982
886.722	1976
886.800	1879
886.827	1795
886.879	1790
886.932	1768
886.959	2111
887.038	3308
887.039	3311
887.119	2444
887.143	2217
887.198	2074
887.248	1758
887.278	1835
887.354	2324
887.358	2331
887.437	2072
887.459	2049
887.517	2412
887.564	2585
887.596	2257
887.669	1576
887.676	1535
887.755	998
887.774	846
887.835	1491
887.880	1998
887.914	2286
887.985	2831
887.994	2803
888.073	2484
888.090	2397
888.153	2898
888.195	3251
888.232	2865
888.300	2035
888.311	2003
888.391	1720
888.405	1694
888.470	1656
888.510	1554
888.549	1666
888.615	1900
888.628	2121
888.708	3344
888.720	3526
888.787	2857
888.825	2451
888.866	2244
888.930	1929
888.945	1914
889.024	1807
889.035	1784
889.103	2414
889.140	2724
889.182	2363
889.245	1851
889.261	1970
889.340	2478
889.349	2530
889.419	2451
889.454	2392
889.498	2340
889.559	2266
889.577	2258
889.656	2196
889.664	2186
889.735	2575
889.768	2750
889.814	2399
889.873	1921
889.978	3497
890.083	1471
890.187	2800
890.292	2236
890.397	2059
890.501	2657
890.606	1799
890.710	2822
890.815	3591
890.919	1989
891.024	3008
891.128	2634
891.233	2090
891.337	2548
891.442	3047
891.546	2433
891.650	1822
891.755	1841
891.859	4288
891.963	2544
892.068	1912
892.172	2480
892.276	2075
892.380	2339
892.484	3096
892.589	3911
892.693	3967
892.797	1177
892.901	1512
893.005	1263
893.109	3421
893.213	2776
893.317	2305
893.421	1499
893.525	1296
893.629	1488
893.733	2904
893.837	1849
893.941	2617
894.045	1476
894.148	1226
894.252	1920
894.356	2312
894.460	3610
894.564	1868
894.667	2485
894.771	1627
894.875	836
894.978	2193
895.082	1897
895.186	2196
895.289	1560
895.393	2081
895.496	3258
895.600	1541
895.703	2464
895.807	1761
895.910	2805
896.014	1892
896.117	1131
896.221	2834
896.324	1832
896.427	1908
896.531	1331
896.634	1821
896.737	1486
896.840	2469
896.944	2051
897.047	3266
897.150	2490
897.253	1355
897.356	968
897.460	1875
897.563	2203
897.666	2511
897.769	2856
897.872	1848
897.975	1519
898.078	1226
898.181	1378
898.284	1333
898.387	3166
898.490	2288
898.593	1432
898.695	1346
898.798	1329
898.901	1488
899.004	2316
899.107	1895
899.209	2402
899.312	2653
899.415	2539
899.518	969
899.620	1116
899.723	1790
899.826	2330
899.928	2952
900.031	1531
900.133	2470
900.236	602
900.338	829
900.441	1224
900.543	1643
900.646	1144
900.748	1465
900.851	2327
900.953	1737
901.055	1295
901.158	1669
901.260	1694
901.362	1007
901.465	972
901.567	1384
901.669	2678
901.771	1474
901.873	1467
901.976	2102
902.078	1647
902.180	1377
902.282	1315
902.384	1449
902.486	2102
902.588	1135
902.690	1148
902.792	1708
902.894	1273
902.996	1740
903.098	2048
903.200	1178
903.302	580
903.404	1505
903.505	673
903.607	1855
903.709	2159
903.811	2631
903.913	1221
904.014	1079
904.116	687
904.218	1065
904.319	1717
904.421	2995
904.523	2425
904.624	1171
904.726	669
904.827	1157
904.929	1907
905.030	1187
905.132	2116
905.233	1807
905.335	1812
905.436	998
905.537	214
905.639	852
905.740	1661
905.841	1286
905.943	1284
906.044	1373
906.145	1552
906.247	433
906.348	972
906.449	1825
906.550	2260
906.651	1763
906.752	778
906.854	899
906.955	608
907.056	1437
907.157	1794
907.258	1767
907.359	629
907.460	899
907.561	1121
907.662	495
907.762	1079
907.863	1271
907.964	2513
908.065	1739
908.166	966
908.267	863
908.367	740
908.468	526
908.569	903
908.670	1270
908.770	1831
908.871	2280
908.971	2521
909.072	1200
909.173	1183
909.273	1588
909.374	2477
909.474	1370
909.575	1280
909.675	950
909.776	1994
909.876	1345
909.977	1552
910.077	2199
910.177	1882
910.278	1989
910.378	889
910.478	1317
910.579	2195
910.679	2607
910.779	1970
910.879	2239
910.980	1359
911.080	1428
911.180	1385
911.280	926
911.380	1019
911.480	1782
911.580	1275
911.680	2178
911.780	1782
911.880	1718
911.980	1046
912.080	942
912.180	1184
912.280	1226
912.380	1745
912.480	900
912.580	902
912.679	1026
912.779	1710
912.879	1857
912.979	115
913.078	993
913.178	324
913.278	809
913.377	1024
913.477	768
913.577	565
913.676	2624
913.776	1371
913.875	1162
913.975	1268
914.074	1792
914.174	1354
914.273	727
914.373	1958
914.472	1193
914.572	619
914.671	991
914.770	1026
914.870	1086
914.969	1176
915.068	1260
915.167	1627
915.267	338
915.366	585
915.465	2167
915.564	797
915.663	1453
915.763	1110
915.862	1927
915.961	1469
916.060	858
916.159	1428
916.258	1328
916.357	746
916.456	1688
916.555	1330
916.654	1030
916.752	1980
916.851	1692
916.950	1851
917.049	944
917.148	1091
917.247	969
917.345	889
917.444	421
917.543	411
917.642	1395
917.740	1195
917.839	2451
917.937	2477
918.036	1433
918.135	738
918.233	1609
918.332	101
918.430	122
918.529	866
918.627	1447
918.726	1402
918.824	1145
918.923	614
919.021	543
919.119	867
919.218	1017
919.316	401
919.414	1605
919.512	1641
919.611	1839
919.709	1644
919.807	1777
919.905	2538
920.003	2523
920.102	1910
920.200	1443
920.298	2335
920.396	2531
920.494	2008
920.592	1413
920.690	2651
920.788	2279
920.886	2266
920.984	2698
921.082	2313
921.180	3368
921.277	2884
921.375	3576
921.473	3692
921.571	4721
921.669	3352
921.766	3149
921.864	3089
921.962	4257
922.060	3293
922.157	3166
922.255	4027
922.352	3466
922.450	4226
922.548	3848
922.645	4415
922.743	6515
922.840	8910
922.938	11752
923.035	9977
923.133	9448
923.230	10940
923.327	13577
923.425	12376
923.522	12452
923.619	11132
923.717	10506
923.814	9340
923.911	10206
924.008	9994
924.106	9690
924.203	9268
924.300	9762
924.397	8930
924.494	9270
924.591	10234
924.688	8830
924.786	9559
924.883	9954
924.979	9464
925.077	9286
925.173	9118
925.270	9151
925.367	8660
925.464	10741
925.561	10592
925.658	11979
925.755	9933
925.852	11877
925.948	9958
926.045	9257
926.142	9530
926.239	10479
926.335	7986
926.432	9731
926.529	10150
926.625	11149
926.722	8442
926.818	8439
926.915	10143
927.011	8673
927.108	8724
927.204	8720
927.301	8002
927.397	9068
927.494	10290
927.590	7310
927.687	7507
927.783	9236
927.879	9138
927.976	8706
928.072	7209
928.168	8131
928.264	8847
928.361	6906
928.457	9649
928.553	7760
928.649	7061
928.745	8660
928.841	7353
928.937	7986
929.033	8440
929.129	7186
929.225	8193
929.321	7496
929.417	6349
929.513	8937
929.609	6906
929.705	6805
929.801	8735
929.897	5441
929.993	7154
930.089	7196
930.184	7531
930.280	7742
930.376	8495
930.471	6690
930.567	5262
930.663	7558
930.758	6213
930.854	7158
930.950	7099
931.045	6192
931.141	6940
931.236	9186
931.332	7867
931.427	5455
931.523	8119
931.618	7817
931.714	4800
931.809	5301
931.905	8236
932.000	5278
932.095	4777
932.191	8016
932.286	8066
932.381	7527
932.476	4445
932.572	7114
932.667	5672
932.762	5624
932.857	6669
932.952	8231
933.047	6571
933.142	3706
933.237	5886
933.332	7276
933.427	7791
933.522	6394
933.617	5005
933.712	5923
933.807	7675
933.902	8187
933.997	7699
934.092	5967
934.187	5094
934.282	6711
934.376	5928
934.471	7085
934.566	5615
934.661	4477
934.755	6203
934.850	7104
934.945	5189
935.039	5578
935.134	4317
935.228	5356
935.323	8525
935.417	5618
935.512	4121
935.606	4075
935.701	5629
935.795	6577
935.890	5989
935.984	4903
936.079	4016
936.173	6527
936.267	5097
936.362	5087
936.456	5699
936.550	7736
936.644	6056
936.738	4144
936.833	4110
936.927	4098
937.021	4202
937.115	5064
937.209	5021
937.303	6176
937.397	4123
937.491	5266
937.585	5011
937.679	5161
937.773	4489
937.867	3771
937.961	3476
938.055	6663
938.149	5767
938.243	3615
938.337	3000
938.430	4358
938.524	6706
938.618	5372
938.712	3745
938.805	4198
938.899	5816
938.993	6063
939.086	5070
939.180	3167
939.274	3935
939.367	5803
939.461	6331
939.554	3928
939.648	3587
939.741	4013
939.835	3983
939.928	6743
940.022	6563
940.115	5141
940.208	4680
940.302	6404
940.395	6869
940.488	4404
940.582	5435
940.675	3393
940.768	3771
940.861	5609
940.954	5026
941.048	4077
941.141	3192
941.234	3764
941.327	4510
941.420	4616
941.513	6112
941.606	4248
941.699	5022
941.792	5695
941.885	4511
941.978	4807
942.071	4106
942.164	3149
942.257	3217
942.349	4308
942.442	5320
942.535	2465
942.628	3707
942.721	3611
942.813	3287
942.906	4671
942.999	3481
943.091	3619
943.184	3729
943.277	3563
943.369	2887
943.462	2133
943.554	3012
943.647	3189
943.739	4986
943.832	4370
943.924	2069
944.017	2286
944.109	1931
944.201	2793
944.294	3408
944.386	4195
944.478	3455
944.571	2083
944.663	2609
944.755	3156
944.847	4020
944.940	3517
945.032	1938
945.124	2567
945.216	4664
945.308	3597
945.400	3468
945.492	2367
945.584	4371
945.676	5149
945.768	2831
945.860	4645
945.952	4708
946.044	4397
946.136	3431
946.228	3119
946.320	2596
946.412	3723
946.503	4284
946.595	4640
946.687	2214
946.779	2536
946.870	2001
946.962	2243
947.054	2868
947.145	3796
947.237	2873
947.329	2736
947.420	3141
947.512	3096
947.603	2276
947.695	2376
947.786	2438
947.878	2499
947.969	2549
948.061	2803
948.152	2600
948.243	2316
948.335	2929
948.426	1837
948.517	2927
948.609	3905
948.700	2985
948.791	2043
948.882	1797
948.973	1554
949.065	2684
949.156	3256
949.247	1790
949.338	2885
949.429	1235
949.520	1190
949.611	2296
949.702	3342
949.793	2710
949.884	1970
949.975	2709
950.066	1206
950.157	1425
950.247	2420
950.338	1178
950.429	1790
950.520	2189
950.611	1683
950.701	2882
950.792	3883
950.883	3556
950.973	2662
951.064	3239
951.155	2464
951.245	2832
951.336	2954
951.427	2521
951.517	4537
951.608	2951
951.698	2422
951.788	2016
951.879	1749
951.969	973
952.060	1835
952.150	2457
952.240	3828
952.331	1516
952.421	3344
952.511	1575
952.602	1706
952.692	2034
952.782	1637
952.872	1207
952.962	2899
953.052	1912
953.143	1467
953.233	1328
953.323	2512
953.413	2283
953.503	3366
953.593	3099
953.683	2686
953.773	387
953.863	1437
953.953	1549
954.042	2180
954.132	3868
954.222	2878
954.312	2131
954.402	2140
954.492	1813
954.581	2361
954.671	2190
954.761	1335
954.850	2753
954.940	642
955.030	631
955.119	789
955.209	1283
955.298	2147
955.388	2324
955.477	2511
955.567	1109
955.656	1826
955.746	1947
955.835	1099
955.925	381
956.014	1616
956.103	2263
956.193	2832
956.282	2275
956.371	2409
956.461	1439
956.550	1811
956.639	1322
956.728	1293
956.817	946
956.906	1343
956.995	3022
957.085	1639
957.174	1589
957.263	1381
957.352	1533
957.441	503
957.530	2252
957.619	1373
957.708	1138
957.796	1049
957.885	1849
957.974	768
958.063	1100
958.152	198
958.241	1037
958.329	1017
958.418	679
958.507	421
958.596	2145
958.684	967
958.773	1831
958.861	1016
958.950	1181
959.039	1100
959.127	390
959.216	1574
959.304	1034
959.393	1817
959.481	1655
959.570	1663
959.658	489
959.746	746
959.835	1294
959.923	837
960.011	231
960.100	1150
960.188	2105
960.276	990
960.365	1309
960.453	401
960.541	144
960.629	791
960.717	656
960.805	-174
960.893	968
960.981	2046
961.069	2926
961.158	2790
961.245	2844
961.333	2078
961.421	1049
961.509	2122
961.597	1328
961.685	1050
961.773	1115
961.861	623
961.949	2227
962.036	1361
962.124	920
962.212	1486
962.299	787
962.387	509
962.475	794
962.562	-385
962.650	1489
962.738	1317
962.825	357
962.913	923
963.000	1072
963.088	355
963.175	1572
963.263	481
963.350	-61
963.438	1619
963.525	294
963.612	1578
963.700	779
963.787	1980
963.874	301
963.962	941
964.049	461
964.136	124
964.223	-344
964.310	446
964.398	870
964.485	1065
964.572	1284
964.659	1074
964.746	980
964.833	967
964.920	255
965.007	863
965.094	275
965.181	696
965.268	1046
965.355	508
965.441	1359
965.528	412
965.615	1684
965.702	1085
965.789	1205
965.875	1211
965.962	1533
966.049	1236
966.136	1803
966.222	2236
966.309	3442
966.395	2120
966.482	2244
966.569	1053
966.655	1809
966.742	1016
966.828	631
966.915	448
967.001	700
967.087	188
967.174	-219
967.260	1062
967.347	905
967.433	817
967.519	1552
967.605	2691
967.692	943
967.778	1084
967.864	760
967.950	868
968.036	1028
968.123	1718
968.209	1190
968.295	-88
968.381	1602
968.467	486
968.553	-123
968.639	2257
968.725	2332
968.811	5194
968.897	3514
968.983	1368
969.069	1273
969.154	1839
969.240	1013
969.326	-141
969.412	298
969.497	899
969.583	1320
969.669	1873
969.755	1595
969.840	1452
969.926	3654
970.012	4493
970.097	8414
970.183	6795
970.268	2606
970.354	1651
970.439	-737
970.525	1940
970.610	126
970.696	2188
970.781	329
970.866	223
970.952	1307
971.037	500
971.122	1181
971.208	1333
971.293	1111
971.378	-165
971.463	1055
971.549	896
971.634	1162
971.719	1029
971.804	-27
971.889	1135
971.974	1190
972.059	524
972.144	363
972.229	902
972.314	828
972.399	1585
972.484	267
972.569	806
972.654	535
972.739	1552
972.824	-111
972.908	518
972.993	232
973.078	1589
973.163	1077
973.247	1403
973.332	-392
973.417	2840
973.501	821
973.586	1321
973.671	811
973.755	988
973.840	1045
973.924	2756
974.009	1632
974.093	1145
974.178	2458
974.262	1341
974.346	1013
974.431	1279
974.515	840
974.600	1444
974.684	2063
974.768	1428
974.852	1548
974.937	847
975.021	1349
975.105	1832
975.189	1295
975.273	1400
975.358	-212
975.442	860
975.526	1177
975.610	1848
975.694	1242
975.778	2298
975.862	770
975.946	-347
976.030	2964
976.114	632
976.198	1342
976.281	278
976.365	1675
976.449	980
976.533	1362
976.617	1431
976.700	588
976.784	505
976.868	651
976.951	619
977.035	672
977.119	848
977.202	444
977.286	2418
977.369	1925
977.453	3277
977.536	2154
977.620	1866
977.703	1912
977.787	1266
977.870	1868
977.953	2651
978.037	841
978.120	1395
978.203	451
978.287	915
978.370	1330
978.453	539
978.536	1034
978.620	2222
978.703	1186
978.786	810
978.869	75
978.952	1138
979.035	2815
979.118	1423
979.201	-775
979.284	1614
979.367	676
979.450	2036
979.533	199
979.616	1207
979.699	20
979.782	1996
979.865	1227
979.948	292
980.030	546
980.113	1079
980.196	-87
980.279	1055
980.361	1195
980.444	861
980.526	1809
980.609	2671
980.692	3645
980.774	3825
980.857	603
980.939	2883
981.022	1441
981.104	1320
981.187	1399
981.269	1964
981.352	1441
981.434	680
981.516	1150
981.599	2568
981.681	1474
981.763	1623
981.846	1254
981.928	1131
982.010	883
982.092	874
982.174	1426
982.256	559
982.339	816
982.421	809
982.503	1642
982.585	447
982.667	674
982.749	853
982.831	374
982.913	464
982.995	1760
983.077	1358
983.158	1423
983.240	782
983.322	2680
983.404	4424
983.486	3046
983.568	2802
983.649	1952
983.731	2586
983.813	1580
983.894	1915
983.976	1993
984.058	1619
984.139	2008
984.221	898
984.302	2343
984.384	1714
984.465	847
984.547	1382
984.628	1201
984.710	2599
984.791	2093
984.872	1559
984.954	1461
985.035	2379
985.116	1504
985.198	1314
985.279	3344
985.360	1557
985.441	1746
985.522	2145
985.604	1778
985.685	100
985.766	2305
985.847	4010
985.928	1297
986.009	2012
986.090	1014
986.171	2433
986.252	659
986.333	2078
986.414	1587
986.495	2497
986.576	1827
986.656	2221
986.737	1812
986.818	2923
986.899	2015
986.980	2510
987.060	2985
987.141	1624
987.222	3006
987.302	3140
987.383	3575
987.464	2535
987.544	3796
987.625	3783
987.705	4183
987.786	3202
987.866	3124
987.947	2531
988.027	3219
988.108	2679
988.188	3320
988.268	2033
988.349	2141
988.429	2923
988.509	2019
988.589	2037
988.670	1018
988.750	3211
988.830	2624
988.910	2514
988.990	1942
989.070	2056
989.151	1837
989.231	1936
989.311	2662
989.391	1537
989.471	1754
989.551	2785
989.631	2379
989.711	2793
989.791	2399
989.870	1076
989.950	2349
990.030	1919
990.110	1942
990.190	1690
990.269	862
990.349	1945
990.429	1975
990.509	2015
990.588	651
990.668	2237
990.747	1655
990.827	1793
990.907	1613
990.986	2377
991.066	2066
991.145	1385
991.225	2786
991.304	1944
991.383	1868
991.463	1406
991.542	2124
991.622	1198
991.701	156
991.780	1563
991.859	594
991.939	1518
992.018	1939
992.097	1880
992.176	1421
992.256	1358
992.335	1940
992.414	1659
992.493	38
992.572	-247
992.651	2434
992.730	861
992.809	1101
992.888	425
992.967	1465
993.046	1279
993.125	3
993.203	1251
993.282	1220
993.361	961
993.440	1510
993.519	344
993.597	1312
993.676	-41
993.755	1560
993.834	849
993.912	-117
993.991	876
994.069	230
994.148	627
994.226	568
994.305	612
994.384	349
994.462	1138
994.540	-314
994.619	230
994.697	1486
994.776	1481
994.854	1898
994.932	-91
995.011	719
995.089	-37
995.167	457
995.245	725
995.324	189
995.402	1234
995.480	-60
995.558	1142
995.636	-506
995.714	583
995.792	1561
995.870	-11
995.948	846
996.026	109
996.104	-194
996.182	999
996.260	-508
996.338	108
996.416	-242
996.494	106
996.572	858
996.649	134
996.727	-724
996.805	1060
996.883	822
996.960	297
997.038	144
997.116	1584
997.193	-783
997.271	564
997.348	-968
997.426	-198
997.504	-187
997.581	346
997.658	295
997.736	-1255
997.813	-931
997.891	700
997.968	-565
998.046	-125
998.123	-735
998.200	1075
998.277	-428
998.355	163
998.432	-1660
998.509	81
998.586	754
998.663	-274
998.741	-602
998.818	231
998.895	-718
998.972	211
999.049	772
999.126	170
999.203	165
999.280	169
999.357	-95
999.434	-701
999.511	159
999.587	588
999.664	-1070
999.741	441
999.818	65
999.895	-229
999.971	-1033
1000.048	-203
1000.125	-13
1000.202	-508
1000.278	-209
1000.355	991
1000.431	-425
1000.508	-1370
1000.584	-644
1000.661	-362
1000.738	-1533
1000.814	-583
1000.890	692
1000.967	456
1001.043	-281
1001.120	-467
1001.196	-222
1001.272	-592
1001.349	-301
1001.425	21
1001.501	-625
1001.577	-904
1001.654	-250
1001.730	-655
1001.806	-52
1001.882	-1378
1001.958	-278
1002.034	-89
1002.110	-859
1002.186	-988
1002.262	-585
1002.338	-1442
1002.414	59
1002.490	658
1002.566	-1124
1002.642	-1196
1002.718	44
1002.794	-734
1002.870	-730
1002.945	-276
1003.021	-734
1003.097	-422
1003.173	-215
1003.248	72
1003.324	-207
1003.400	-743
1003.475	-1408
1003.551	-823
1003.626	-683
1003.702	-988
1003.777	-597
1003.853	-501
1003.928	-1152
1004.004	-1136
1004.079	-647
1004.155	-102
1004.230	-1486
1004.305	16
1004.381	-1526
1004.456	-965
1004.531	-510
1004.607	-1279
1004.682	-820
1004.757	-1075
1004.832	-1057
1004.907	-603
1004.982	-359
1005.057	-127
1005.133	-862
1005.208	-1047
1005.283	-1252
1005.358	-237
1005.433	-830
1005.508	-173
1005.583	-574
1005.657	-766
1005.732	-352
1005.807	-999
1005.882	-616
1005.957	-928
1006.032	-314
1006.106	-742
1006.181	-1074
1006.256	418
1006.331	-993
1006.405	-1308
1006.480	-552
1006.554	-660
1006.629	-1308
1006.704	-1453
1006.778	-689
1006.853	-1223
1006.927	-781
1007.002	-1098
1007.076	-985
1007.150	-1646
1007.225	-1249
1007.299	-743
1007.373	-673
1007.448	-830
1007.522	140
1007.596	-523
1007.671	-1371
1007.745	-1289
1007.819	-1622
1007.893	-1279
1007.967	-825
1008.041	-1053
1008.115	-954
1008.190	-916
1008.264	-482
1008.338	-818
1008.412	-963
1008.486	-366
1008.560	-1068
1008.633	-1346
1008.707	-1050
1008.781	-396
1008.855	-1427
1008.929	-931
1009.003	-1749
1009.076	-1510
1009.150	-1123
1009.224	-1101
1009.298	-1187
1009.371	-1402
1009.445	-655
1009.519	-1693
1009.592	-1786
1009.666	-626
1009.739	-955
1009.813	-1510
1009.886	-261
1009.960	-1843
1010.033	-1167
1010.107	-353
1010.180	-696
1010.253	-870
1010.327	-1250
1010.400	-1213
1010.473	-2451
1010.547	-608
1010.620	-1321
1010.693	-986
1010.766	-2172
1010.840	-689
1010.913	-1825
1010.986	-1500
1011.059	-1246
1011.132	-1365
1011.205	-810
1011.278	-1584
1011.351	-1510
1011.424	-701
1011.497	-1953
1011.570	-1393
1011.643	-1415
1011.716	-1751
1011.789	-1497
1011.862	-1062
1011.934	-317
1012.007	-2202
1012.080	-1033
1012.153	-1625
1012.225	-298
1012.298	-1406
1012.371	-1704
1012.443	-1199
1012.516	-1717
1012.588	-293
1012.661	-895
1012.733	-1721
1012.806	-1460
1012.879	-1459
1012.951	-475
1013.023	-1766
1013.096	-1315
1013.168	-1242
1013.241	-1106
1013.313	-1049
1013.385	-2274
1013.458	-1700
1013.530	-786
1013.602	-1848
1013.674	-861
1013.746	-1957
1013.819	-2098
1013.891	-714
1013.963	-2155
1014.035	-956
1014.107	-1727
1014.179	-1110
1014.251	-1766
1014.323	-1855
1014.395	-1269
1014.467	-2003
1014.539	-1330
1014.611	-1659
1014.683	-1066
1014.754	-1458
1014.826	-1866
1014.898	-1541
1014.970	-2106
1015.042	-705
1015.113	-777
1015.185	-1803
1015.257	-1771
1015.328	-686
1015.400	-2150
1015.471	-1126
1015.543	-2520
1015.615	-1415
1015.686	-1633
1015.757	-1234
1015.829	-722
1015.901	-1901
1015.972	-1739
1016.043	-1328
1016.115	-2175
1016.186	-1539
1016.257	-2167
1016.328	-1675
1016.400	-1571
1016.471	-1480
1016.542	-2074
1016.613	-956
1016.685	-1198
1016.756	-158
1016.827	-1658
1016.898	-1492
1016.969	-727
1017.040	-2214
1017.111	-1714
1017.182	-1968
1017.253	-1739
1017.324	-1593
1017.395	-1745
1017.466	-1359
1017.537	-2125
1017.608	-781
1017.678	-1548
1017.749	-1283
1017.820	-1651
1017.891	-1505
1017.961	-2026
1018.032	-1238
1018.103	-1199
1018.173	-1604
1018.244	-2000
1018.315	-1517
1018.385	-878
1018.456	-1737
1018.526	-1761
1018.597	-1371
1018.667	-2064
1018.738	-1720
1018.808	-1801
1018.878	-1538
1018.949	-1661
1019.019	-971
1019.089	-1564
1019.160	-1541
1019.230	-1663
1019.300	-1711
1019.371	-2598
1019.441	-698
1019.511	-2127
1019.581	-1518
1019.651	-886
1019.721	-1415
1019.791	-1646
1019.861	-1817
1019.931	-1762
1020.001	-2102
1020.071	-1440
1020.141	-2188
1020.211	-1711
1020.281	-1696
1020.351	-1660
1020.421	-1507
1020.491	-1067
1020.560	-2319
1020.630	-1296
1020.700	-1231
1020.770	-2026
1020.839	-1206
1020.909	-1943
1020.979	-1866
1021.048	-1736
1021.118	-1475
1021.187	-2290
1021.257	-1455
1021.326	-1346
1021.396	-1554
1021.465	-1205
1021.535	-2343
1021.604	-2079
1021.674	-1395
1021.743	-2079
1021.812	-2223
1021.882	-1576
1021.951	-1185
1022.020	-1927
1022.089	-1698
1022.159	-1693
1022.228	-1855
1022.297	-1329
1022.366	-1237
1022.435	-1704
1022.504	-1123
1022.573	-2338
1022.642	-913
1022.711	-1438
1022.781	-1642
1022.849	-1693
1022.918	-2389
1022.987	-1974
1023.056	-1986
1023.125	-1859
1023.194	-2047
1023.263	-1266
1023.331	-1119
1023.400	-2143
1023.469	-1913
1023.538	-1378
1023.606	-1913
1023.675	-2092
1023.744	-1199
1023.812	-1297
1023.881	-1653
1023.949	-1773
1024.018	-1601
1024.086	-1457
1024.155	-2118
1024.223	-1037
1024.292	-1609
1024.360	-1372
1024.429	-874
1024.497	-1494
1024.565	-1562
1024.634	-1254
1024.702	-1530
1024.770	-1306
1024.838	-2459
1024.907	-1236
1024.975	-1496
1025.043	-1631
1025.111	-1213
1025.179	-783
1025.247	-1098
1025.315	-1264
1025.383	-1908
1025.451	-1342
1025.519	-1913
1025.587	-1480
1025.655	-1774
1025.723	-1388
1025.791	-1223
1025.859	-1256
1025.927	-840
1025.995	-1751
1026.062	-1757
1026.130	-3132
1026.198	-1023
1026.266	-2064
1026.333	-1552
1026.401	-1960
1026.469	-1323
1026.536	-1692
1026.604	-2018
1026.671	-1083
1026.739	-1820
1026.806	-1699
1026.874	-2346
1026.941	-1352
1027.009	-1624
1027.076	-2320
1027.144	-1391
1027.211	-1737
1027.278	-1978
1027.345	-2588
1027.413	-1131
1027.480	-1554
1027.547	-1110
1027.614	-1640
1027.682	-1011
1027.749	-1201
1027.816	-1823
1027.883	-1413
1027.950	-2092
1028.017	-2056
1028.084	-1015
1028.151	-1096
1028.218	-1889
1028.285	-1609
1028.352	-2118
1028.419	-1942
1028.486	-2082
1028.553	-1652
1028.619	-1164
1028.686	-1211
1028.753	-1417
1028.820	-2103
1028.886	-2067
1028.953	-1526
1029.020	-1747
1029.086	-1843
1029.153	-1398
1029.220	-2575
1029.286	-1630
1029.353	-1864
1029.419	-2062
1029.486	-1445
1029.552	-1999
1029.619	-1580
1029.685	-2236
1029.751	-2932
1029.818	-559
1029.884	-1545
1029.951	-874
1030.017	-1724
1030.083	-1795
1030.149	-1533
1030.216	-1294
1030.282	-1947
1030.348	-1205
1030.414	-1725
1030.480	-2221
1030.546	-1870
1030.612	-1505
1030.678	-1958
1030.744	-1864
1030.810	-2108
1030.876	-1512
1030.942	-2341
1031.008	-2126
1031.074	-2374
1031.140	-2522
1031.206	-1133
1031.272	-1894
1031.337	-1691
1031.403	-1295
1031.469	-2111
1031.534	-1587
1031.600	-2203
1031.666	-1685
1031.731	-2578
1031.797	-1545
1031.863	-1373
1031.928	-2153
1031.994	-1435
1032.059	-1055
1032.125	-1327
1032.190	-1469
1032.256	-2137
1032.321	-1597
1032.386	-2605
1032.452	-469
1032.517	-1996
1032.582	-2030
1032.647	-1461
1032.713	-1073
1032.778	-1431
1032.843	-1431
1032.908	-1285
1032.974	-701
1033.039	-1702
1033.104	-1735
1033.169	-1657
1033.234	-1163
1033.299	-1156
1033.364	-862
1033.429	-1714
1033.494	-1341
1033.559	-1926
1033.624	-633
1033.688	-1034
1033.753	-1917
1033.818	-836
1033.883	-595
1033.948	117
1034.013	124
1034.077	596
1034.142	2206
1034.207	2851
1034.271	6019
1034.336	8282
1034.400	5759
1034.465	2327
1034.530	259
1034.594	-820
1034.658	-1244
1034.723	-1087
1034.787	-1050
1034.852	-1611
1034.916	-778
1034.981	-2212
1035.045	-1472
1035.109	-1833
1035.173	-1238
1035.238	-1625
1035.302	-1156
1035.366	-1986
1035.430	-1903
1035.495	-2259
1035.559	-1220
1035.623	-1277
1035.687	-2136
1035.751	-1674
1035.815	-1843
1035.879	-2674
1035.943	-1662
1036.007	-1317
1036.071	-1460
1036.135	-1508
1036.198	-1723
1036.262	-1929
1036.326	-1362
1036.390	-1746
1036.454	-1876
1036.517	-933
1036.581	-1533
1036.645	-1493
1036.709	-1230
1036.772	-1452
1036.836	-1743
1036.900	-1621
1036.963	-1607
1037.026	-1902
1037.090	-1546
1037.154	-1580
1037.217	-1685
1037.280	-2152
1037.344	-1505
1037.407	-1848
1037.471	-1627
1037.534	-1954
1037.597	-1187
1037.661	-1451
1037.724	183
1037.787	-1799
1037.850	-540
1037.913	-1773
1037.977	-1228
1038.040	-1457
1038.103	-1180
1038.166	-2671
1038.229	-1999
1038.292	-2527
1038.355	-2076
1038.418	-1393
1038.481	-1448
1038.544	-2243
1038.607	-2520
1038.670	-1282
1038.732	-1344
1038.795	-1305
1038.858	-2062
1038.921	-1803
1038.984	-1002
1039.046	-1812
1039.109	-1558
1039.172	-1826
1039.234	-1186
1039.297	-1672
1039.360	-1804
1039.422	-1659
1039.485	-1982
1039.547	-2029
1039.610	-1719
1039.672	-1485
1039.734	-1156
1039.797	-2466
1039.859	-1714
1039.922	-1671
1039.984	-1292
1040.046	-2216
1040.109	-2088
1040.171	-2713
1040.233	-1151
1040.295	-2265
1040.358	-2562
1040.420	-2352
1040.482	-1178
1040.544	-1804
1040.606	-1141
1040.668	-1938
1040.730	-1609
1040.792	-1827
1040.854	-1805
1040.916	-1791
1040.978	-1513
1041.040	-1321
1041.102	-2560
1041.164	-1805
1041.225	-1926
1041.287	-1549
1041.349	-1333
1041.411	-2146
1041.472	-866
1041.534	-1821
1041.596	-2366
1041.657	-2475
1041.719	-1656
1041.781	-2147
1041.842	-1858
1041.904	-2078
1041.965	-1018
1042.027	-1800
1042.088	-2056
1042.150	-2248
1042.211	-1874
1042.272	-1704
1042.334	-1697
1042.395	-1542
1042.456	-2350
1042.518	-1752
1042.579	-1970
1042.640	-1327
1042.701	-1491
1042.763	-2530
1042.824	-1002
1042.885	-1158
1042.946	-1893
1043.007	-1593
1043.068	-1380
1043.129	-1453
1043.190	-1714
1043.251	-1622
1043.312	-1726
1043.373	-1580
1043.434	-1973
1043.495	-1638
1043.556	-1157
1043.616	-1618
1043.677	-1974
1043.738	-2030
1043.799	-1307
1043.859	-1693
1043.920	-2111
1043.981	-1327
1044.041	-1080
1044.102	-2050
1044.162	-1400
1044.223	-1897
1044.284	-2050
1044.344	-1863
1044.405	-1621
1044.465	-2174
1044.525	-2234
1044.586	-1614
1044.646	-1720
1044.707	-1726
1044.767	-1288
1044.827	-2076
1044.887	-1482
1044.948	-1057
1045.008	-1173
1045.068	-1801
1045.128	-1120
1045.188	-1671
1045.249	-886
1045.309	-2188
1045.369	-1702
1045.429	-1937
1045.489	-2068
1045.549	-1791
1045.609	-1337
1045.669	-1973
1045.729	-1859
1045.789	-1744
1045.848	-1876
1045.908	-711
1045.968	-965
1046.028	-2116
1046.088	-1191
1046.147	-1056
1046.207	-1011
1046.267	-1833
1046.326	-696
1046.386	-1041
1046.446	-648
1046.505	-686
1046.565	-522
1046.624	-896
1046.684	-426
1046.743	-591
1046.803	939
1046.862	85
1046.922	0
