'Start Wavelength	183.907
'End Wavelength	1046.922
'Gate Delay	5.000
'Gate Width (ms)	1.050
'Laser Output Level	0.000
'X Position	0.000
'Y Position	0.000
'Z Position	0.000
'Grid Point Number	1.000
'Shot Number	100.000
183.907	286.000
183.977	-24.000
184.047	227
184.116	780
184.186	92
184.256	-371
184.325	-372
184.395	-453
184.465	422
184.534	461
184.604	-274
184.674	-337
184.743	242
184.813	450
184.883	574
184.952	338
185.022	-541
185.092	380
185.161	224
185.231	-254
185.301	-492
185.370	118
185.440	323
185.509	-672
185.579	-334
185.649	114
185.718	308
185.788	562
185.857	138
185.927	163
185.996	-629
186.066	329
186.136	601
186.205	-177
186.275	339
186.344	-374
186.414	-445
186.483	-782
186.553	931
186.622	1262
186.692	1566
186.761	589
186.831	492
186.900	-48
186.970	401
187.039	380
187.109	846
187.178	81
187.248	832
187.317	280
187.387	-134
187.456	-497
187.526	369
187.595	635
187.664	750
187.734	602
187.803	-56
187.873	-67
187.942	606
188.012	237
188.081	19
188.150	157
188.220	1610
188.289	1142
188.358	22
188.428	434
188.497	132
188.567	500
188.636	254
188.705	168
188.775	-66
188.844	-154
188.913	975
188.983	-99
189.052	-691
189.121	155
189.191	-705
189.260	321
189.329	173
189.399	-329
189.468	-412
189.537	21
189.606	744
189.676	-101
189.745	-139
189.814	871
189.883	131
189.953	244
190.022	824
190.091	220
190.161	870
190.230	428
190.299	-54
190.368	78
190.437	117
190.507	-755
190.576	-123
190.645	-272
190.714	520
190.783	-766
190.853	918
190.922	298
190.991	89
191.060	458
191.129	-299
191.198	447
191.268	14
191.337	-249
191.406	104
191.475	565
191.544	583
191.613	863
191.682	210
191.752	-12
191.821	-424
191.890	-70
191.959	171
192.028	-33
192.097	419
192.166	-63
192.235	117
192.304	743
192.373	252
192.442	-24
192.511	199
192.580	466
192.650	203
192.719	-94
192.788	328
192.857	346
192.926	121
192.995	-215
193.064	890
193.133	317
193.202	31
193.271	1681
193.340	393
193.409	-554
193.478	347
193.547	-219
193.615	511
193.684	680
193.753	380
193.822	-202
193.891	-5
193.960	325
194.029	162
194.098	-36
194.167	-505
194.236	943
194.305	386
194.374	325
194.443	213
194.512	181
194.580	290
194.649	262
194.718	674
194.787	759
194.856	330
194.925	581
194.994	534
195.062	628
195.131	327
195.200	513
195.269	435
195.338	413
195.407	415
195.475	63
195.544	328
195.613	313
195.682	1458
195.751	247
195.819	702
195.888	160
195.957	530
196.026	73
196.094	765
196.163	-389
196.232	727
196.301	-471
196.369	-350
196.438	-59
196.507	393
196.576	-34
196.644	192
196.713	-51
196.782	149
196.850	560
196.919	356
196.988	346
197.056	-767
197.125	80
197.194	1119
197.262	441
197.331	581
197.400	-176
197.468	571
197.537	-127
197.606	359
197.674	-431
197.743	486
197.812	-34
197.880	1077
197.949	98
198.017	496
198.086	-540
198.155	-85
198.223	854
198.292	165
198.360	-680
198.429	-683
198.497	387
198.566	-65
198.635	744
198.703	867
198.772	494
198.840	659
198.909	221
198.977	618
199.046	568
199.114	489
199.183	-544
199.251	-287
199.320	-3
199.388	-136
199.457	-186
199.525	-158
199.594	-533
199.662	311
199.731	274
199.799	-29
199.867	583
199.936	217
200.004	526
200.073	509
200.141	749
200.210	964
200.278	711
200.346	673
200.415	436
200.483	450
200.552	789
200.620	18
200.688	-636
200.757	503
200.825	-474
200.893	-118
200.962	191
201.030	103
201.098	-707
201.167	471
201.235	-8
201.303	352
201.372	1426
201.440	823
201.508	1091
201.577	500
201.645	790
201.713	734
201.781	-42
201.850	1486
201.918	1358
201.986	143
202.055	1058
202.123	168
202.191	-198
202.259	530
202.327	18
202.396	614
202.464	482
202.532	1111
202.600	3133
202.669	2536
202.737	-189
202.805	507
202.873	121
202.941	-285
203.009	-559
203.078	678
203.146	279
203.214	391
203.282	122
203.350	950
203.418	-98
203.487	479
203.555	-274
203.623	198
203.691	-19
203.759	72
203.827	-322
203.895	314
203.963	-202
204.031	-353
204.099	235
204.168	144
204.236	-78
204.304	952
204.372	-221
204.440	-250
204.508	-258
204.576	-115
204.644	104
204.712	38
204.780	-322
204.848	1035
204.916	-137
204.984	-887
205.052	32
205.120	-112
205.188	434
205.256	-186
205.324	74
205.392	213
205.460	350
205.528	-69
205.596	81
205.664	46
205.732	649
205.799	201
205.867	577
205.935	426
206.003	886
206.071	88
206.139	-928
206.207	164
206.275	45
206.343	35
206.411	231
206.478	-211
206.546	69
206.614	47
206.682	-181
206.750	456
206.818	370
206.885	1887
206.953	-892
207.021	1287
207.089	836
207.157	-368
207.225	-466
207.292	-268
207.360	145
207.428	-163
207.496	-215
207.563	-485
207.631	-684
207.699	-644
207.767	585
207.834	487
207.902	-419
207.970	-200
208.038	284
208.105	222
208.173	-668
208.241	291
208.309	31
208.376	-216
208.444	132
208.512	-165
208.579	-969
208.647	296
208.715	723
208.782	-74
208.850	107
208.918	-459
208.985	-35
209.053	342
209.120	-529
209.188	-1357
209.256	-272
209.323	-1153
209.391	-821
209.459	613
209.526	69
209.594	-303
209.661	-300
209.729	479
209.796	75
209.864	662
209.932	-1063
209.999	1122
210.067	-251
210.134	358
210.202	-404
210.269	955
210.337	1775
210.404	210
210.472	-15
210.539	335
210.607	-362
210.674	-34
210.742	-88
210.809	-124
210.877	286
210.944	583
211.012	-744
211.079	2182
211.146	197
211.214	998
211.281	898
211.349	1978
211.416	-66
211.484	657
211.551	-1121
211.618	157
211.686	486
211.753	16
211.821	453
211.888	310
211.955	-28
212.023	-170
212.090	80
212.157	-201
212.225	-43
212.292	76
212.359	162
212.427	3443
212.494	158
212.561	-222
212.629	-402
212.696	-258
212.763	-186
212.831	291
212.898	-16
212.965	21
213.032	-301
213.100	-233
213.167	-593
213.234	685
213.301	646
213.369	2
213.436	-588
213.503	-501
213.570	664
213.638	-95
213.705	-317
213.772	-86
213.839	-93
213.906	754
213.973	-216
214.041	-600
214.108	15
214.175	276
214.242	360
214.309	-491
214.376	812
214.444	-661
214.511	30
214.578	155
214.645	374
214.712	292
214.779	-87
214.846	-195
214.913	643
214.980	509
215.048	800
215.115	1111
215.182	314
215.249	620
215.316	-354
215.383	871
215.450	94
215.517	3
215.584	155
215.651	412
215.718	-542
215.785	530
215.852	-718
215.919	-103
215.986	451
216.053	-39
216.120	-941
216.187	-282
216.254	600
216.321	297
216.388	-39
216.455	202
216.522	-751
216.589	252
216.656	-699
216.722	-424
216.789	661
216.856	-321
216.923	56
216.990	-301
217.057	270
217.124	166
217.191	-845
217.258	99
217.324	-598
217.391	655
217.458	67
217.525	483
217.592	-184
217.659	-805
217.725	701
217.792	246
217.859	681
217.926	300
217.993	-610
218.059	567
218.126	377
218.193	-263
218.260	43
218.327	134
218.393	-314
218.460	-126
218.527	-1069
218.594	142
218.660	194
218.727	761
218.794	-2
218.860	498
218.927	-536
218.994	-701
219.061	37
219.127	138
219.194	34
219.261	-30
219.327	184
219.394	319
219.461	-566
219.527	130
219.594	413
219.661	-41
219.727	-732
219.794	1009
219.860	-479
219.927	1157
219.994	1779
220.060	4160
220.127	4886
220.193	1560
220.260	-454
220.326	702
220.393	511
220.460	-41
220.526	-129
220.593	-398
220.659	1569
220.726	57
220.792	1548
220.859	835
220.925	592
220.992	484
221.058	1624
221.125	3061
221.191	1340
221.258	-36
221.324	330
221.391	-835
221.457	-346
221.524	1093
221.590	-177
221.657	1887
221.723	522
221.789	932
221.856	975
221.922	-147
221.989	209
222.055	629
222.121	-868
222.188	1128
222.254	1012
222.321	630
222.387	-1009
222.453	26
222.520	-545
222.586	-195
222.652	-6
222.719	-214
222.785	-27
222.851	589
222.918	46
222.984	-349
223.050	-426
223.116	-1673
223.183	547
223.249	-771
223.315	-990
223.382	365
223.448	-523
223.514	-56
223.580	-119
223.647	349
223.713	-475
223.779	-826
223.845	-563
223.911	-68
223.978	-989
224.044	392
224.110	-498
224.176	707
224.242	84
224.309	-621
224.375	94
224.441	-40
224.507	-285
224.573	-593
224.639	186
224.705	-1319
224.772	-641
224.838	-598
224.904	814
224.970	-128
225.036	-620
225.102	-856
225.168	539
225.234	1031
225.300	-346
225.366	-761
225.432	293
225.499	-115
225.565	-268
225.631	-620
225.697	472
225.763	-285
225.829	-797
225.895	36
225.961	-18
226.027	647
226.093	-44
226.159	836
226.225	390
226.291	704
226.357	921
226.423	1291
226.489	-236
226.554	-266
226.620	-237
226.686	53
226.752	-28
226.818	338
226.884	1782
226.950	2959
227.016	489
227.082	489
227.148	109
227.214	309
227.279	-165
227.345	-94
227.411	1021
227.477	3018
227.543	9130
227.609	9098
227.674	4231
227.740	908
227.806	283
227.872	17
227.938	388
228.003	607
228.069	-60
228.135	-21
228.201	-588
228.267	41
228.332	-319
228.398	-751
228.464	-71
228.530	-719
228.595	-570
228.661	-356
228.727	-164
228.792	647
228.858	-48
228.924	-1485
228.990	590
229.055	-1461
229.121	657
229.187	64
229.252	-953
229.318	-220
229.384	-156
229.449	-454
229.515	-1107
229.581	-359
229.646	1583
229.712	-497
229.777	380
229.843	383
229.909	588
229.974	248
230.040	231
230.105	151
230.171	-963
230.236	-337
230.302	-380
230.368	45
230.433	-361
230.499	311
230.564	772
230.630	-850
230.695	-764
230.761	877
230.826	-1726
230.892	941
230.957	-633
231.023	-861
231.088	-685
231.154	-538
231.219	263
231.284	-208
231.350	25
231.415	-1058
231.481	524
231.546	-669
231.612	-957
231.677	-582
231.742	-1355
231.808	554
231.873	-1012
231.939	-1591
232.004	481
232.069	1197
232.135	-487
232.200	-753
232.265	666
232.331	-463
232.396	-66
232.461	-895
232.527	-712
232.592	-1083
232.657	608
232.723	79
232.788	-583
232.853	193
232.918	772
232.984	-1010
233.049	-321
233.114	-686
233.179	438
233.245	1699
233.310	228
233.375	-1110
233.440	249
233.506	-223
233.571	-102
233.636	-192
233.701	-549
233.766	-398
233.832	355
233.897	-545
233.962	-1521
234.027	1187
234.092	-27
234.157	-145
234.222	-466
234.288	293
234.353	101
234.418	1063
234.483	724
234.548	102
234.613	-866
234.678	670
234.743	-754
234.808	1612
234.873	-1632
234.938	659
235.004	16
235.069	731
235.134	100
235.199	460
235.264	-543
235.329	-270
235.394	-297
235.459	858
235.524	-978
235.589	1006
235.654	261
235.719	-346
235.784	-82
235.849	-271
235.913	13
235.978	797
236.043	-155
236.108	574
236.173	-560
236.238	974
236.303	-674
236.368	-197
236.433	-20
236.498	-115
236.563	167
236.627	124
236.692	3474
236.757	3010
236.822	441
236.887	-293
236.952	308
237.017	-643
237.081	1291
237.146	-430
237.211	836
237.276	3422
237.341	7869
237.405	1895
237.470	1036
237.535	905
237.600	77
237.664	935
237.729	-710
237.794	13
237.859	-16
237.923	1091
237.988	-52
238.053	894
238.118	221
238.182	825
238.247	3193
238.312	-805
238.376	662
238.441	-1178
238.506	1004
238.570	-736
238.635	975
238.700	41
238.764	-311
238.829	761
238.893	-332
238.958	898
239.023	34
239.087	525
239.152	-181
239.216	500
239.281	225
239.346	721
239.410	247
239.475	-54
239.539	2076
239.604	177
239.668	1065
239.733	1256
239.797	6747
239.862	17477
239.926	12083
239.991	4810
240.055	1929
240.120	373
240.184	219
240.249	784
240.313	-43
240.378	689
240.442	881
240.507	1315
240.571	-287
240.635	-38
240.700	280
240.764	378
240.829	329
240.893	-739
240.957	833
241.022	518
241.086	1959
241.151	100
241.215	-1334
241.279	630
241.344	-87
241.408	-233
241.472	-792
241.537	1128
241.601	595
241.665	-723
241.730	18
241.794	1276
241.858	-317
241.922	-10
241.987	-444
242.051	-837
242.115	-1449
242.179	213
242.244	-155
242.308	673
242.372	-63
242.436	-561
242.501	858
242.565	-583
242.629	-1124
242.693	433
242.757	-495
242.822	-113
242.886	494
242.950	1721
243.014	-1072
243.078	549
243.142	-560
243.206	-215
243.271	80
243.335	-204
243.399	1250
243.463	1656
243.527	9559
243.591	2387
243.655	828
243.719	-688
243.783	1110
243.847	124
243.911	907
243.975	-540
244.040	-413
244.104	1725
244.168	-460
244.232	-583
244.296	85
244.360	1276
244.424	-771
244.488	751
244.552	-229
244.615	-1283
244.679	697
244.743	-652
244.807	-1959
244.871	404
244.935	651
244.999	-1059
245.063	-268
245.127	1219
245.191	251
245.255	-20
245.319	747
245.383	-1026
245.446	1259
245.510	-448
245.574	-376
245.638	330
245.702	-986
245.766	960
245.829	1878
245.893	-376
245.957	-385
246.021	590
246.085	-56
246.149	729
246.212	1462
246.276	2593
246.340	37
246.404	946
246.467	830
246.531	-810
246.595	1202
246.659	1904
246.722	-1638
246.786	249
246.850	395
246.913	475
246.977	-738
247.041	321
247.104	-254
247.168	566
247.232	802
247.295	4278
247.359	1933
247.423	20
247.486	-356
247.550	1280
247.614	594
247.677	831
247.741	-108
247.804	-116
247.868	1949
247.932	481
247.995	4440
248.059	480
248.122	-392
248.186	705
248.249	1011
248.313	5869
248.376	6281
248.440	3306
248.503	171
248.567	2040
248.630	-621
248.694	860
248.757	1699
248.821	7112
248.884	4134
248.948	1965
249.011	4364
249.075	7643
249.138	6598
249.202	2210
249.265	166
249.328	1589
249.392	-208
249.455	1035
249.519	511
249.582	737
249.645	537
249.709	773
249.772	336
249.835	907
249.899	962
249.962	369
250.025	-313
250.089	1795
250.152	3227
250.215	1317
250.279	-386
250.342	1022
250.405	872
250.468	211
250.532	951
250.595	2692
250.658	7649
250.721	20471
250.785	4648
250.848	3769
250.911	828
250.974	1771
251.038	960
251.101	4738
251.164	847
251.227	2318
251.290	779
251.354	2819
251.417	14122
251.480	17087
251.543	6754
251.606	28742
251.669	22139
251.732	5271
251.795	5875
251.859	6217
251.922	17251
251.985	10156
252.048	3524
252.111	2150
252.174	798
252.237	2088
252.300	7607
252.363	7273
252.426	25371
252.489	8884
252.552	3246
252.615	572
252.678	2737
252.741	6948
252.804	7394
252.867	25728
252.930	11345
252.993	4660
253.056	3214
253.119	1681
253.182	537
253.245	1890
253.308	1794
253.371	1013
253.434	617
253.497	1959
253.559	2834
253.622	1512
253.685	1461
253.748	1307
253.811	1009
253.874	1649
253.937	125
254.000	473
254.062	915
254.125	3216
254.188	2614
254.251	1729
254.314	1061
254.376	502
254.439	1102
254.502	1222
254.565	1847
254.628	4726
254.690	1243
254.753	692
254.816	271
254.878	129
254.941	2145
255.004	2939
255.067	672
255.129	109
255.192	1101
255.255	-204
255.317	824
255.380	500
255.443	276
255.505	755
255.568	429
255.631	-142
255.693	1201
255.756	92
255.819	1569
255.881	1245
255.944	1273
256.006	-78
256.069	-257
256.132	-9
256.194	1105
256.257	988
256.319	593
256.382	1252
256.444	2253
256.507	2208
256.569	698
256.632	674
256.694	325
256.757	1929
256.819	6210
256.882	1833
256.944	587
257.007	1668
257.069	448
257.132	783
257.194	1857
257.257	780
257.319	-337
257.381	-649
257.444	1848
257.506	7390
257.569	7457
257.631	2307
257.693	1842
257.756	1049
257.818	313
257.880	555
257.943	516
258.005	-71
258.067	193
258.130	121
258.192	106
258.254	-144
258.317	612
258.379	1082
258.441	1811
258.503	2186
258.566	1069
258.628	2154
258.690	378
258.753	2366
258.815	906
258.877	431
258.939	874
259.001	1113
259.064	408
259.126	192
259.188	944
259.250	1091
259.312	669
259.375	364
259.437	698
259.499	1269
259.561	233
259.623	283
259.685	-607
259.747	958
259.809	1005
259.872	2628
259.934	4781
259.996	4331
260.058	2000
260.120	-303
260.182	784
260.244	339
260.306	-300
260.368	1785
260.430	-301
260.492	1606
260.554	1425
260.616	1033
260.678	1503
260.740	3446
260.802	25
260.864	1000
260.926	-339
260.988	1629
261.050	390
261.112	61
261.174	3164
261.236	3231
261.298	793
261.359	1496
261.421	2078
261.483	310
261.545	1865
261.607	-409
261.669	1365
261.731	211
261.793	1704
261.854	306
261.916	1932
261.978	674
262.040	943
262.102	955
262.164	564
262.225	1271
262.287	1039
262.349	838
262.411	1334
262.472	1416
262.534	243
262.596	1531
262.658	2046
262.719	272
262.781	1971
262.843	157
262.904	1059
262.966	579
263.028	803
263.090	3694
263.151	9125
263.213	3583
263.275	1071
263.336	898
263.398	2209
263.459	725
263.521	690
263.583	1260
263.644	1432
263.706	1202
263.767	-139
263.829	675
263.891	1179
263.952	75
264.014	460
264.075	299
264.137	966
264.198	1137
264.260	583
264.321	608
264.383	968
264.444	1511
264.506	704
264.567	754
264.629	2305
264.690	61
264.752	702
264.813	102
264.875	812
264.936	835
264.998	475
265.059	1368
265.120	1125
265.182	879
265.243	1559
265.305	3034
265.366	1255
265.427	122
265.489	1171
265.550	1
265.611	1174
265.673	948
265.734	1039
265.795	1022
265.857	120
265.918	-36
265.979	890
266.040	3647
266.102	3796
266.163	1797
266.224	685
266.286	1327
266.347	195
266.408	1276
266.469	1486
266.530	918
266.592	873
266.653	1847
266.714	1602
266.775	1277
266.836	2183
266.898	1336
266.959	2166
267.020	1897
267.081	3134
267.142	2522
267.203	1644
267.264	1205
267.326	2724
267.387	1687
267.448	1846
267.509	3109
267.570	1336
267.631	1543
267.692	1260
267.753	1185
267.814	659
267.875	1415
267.936	1943
267.997	469
268.058	164
268.119	970
268.180	28
268.241	692
268.302	295
268.363	58
268.424	856
268.485	748
268.546	-503
268.607	381
268.668	-16
268.729	-185
268.790	-171
268.851	663
268.912	627
268.972	283
269.033	183
269.094	-181
269.155	-320
269.216	141
269.277	1090
269.338	698
269.398	945
269.459	491
269.520	437
269.581	394
269.642	425
269.702	276
269.763	668
269.824	917
269.885	1281
269.945	1049
270.006	402
270.067	236
270.128	-160
270.188	779
270.249	-278
270.310	-258
270.370	1206
270.431	456
270.492	329
270.553	92
270.613	471
270.674	978
270.734	48
270.795	829
270.856	423
270.916	-331
270.977	326
271.038	1587
271.098	740
271.159	174
271.219	-143
271.280	419
271.340	175
271.401	105
271.462	699
271.522	943
271.583	524
271.643	1138
271.704	305
271.764	590
271.825	947
271.885	5870
271.946	10397
272.006	3045
272.066	4680
272.127	9618
272.187	8985
272.248	5443
272.308	1691
272.369	4592
272.429	2477
272.489	1722
272.550	2176
272.610	2947
272.671	1125
272.731	2386
272.791	1910
272.852	2246
272.912	1871
272.972	2227
273.033	2008
273.093	1474
273.153	2107
273.214	3277
273.274	4133
273.334	5370
273.394	9170
273.455	6039
273.515	6108
273.575	7747
273.635	6717
273.696	8617
273.756	10762
273.816	8365
273.876	5812
273.936	5310
273.997	5801
274.057	3840
274.117	3123
274.177	2967
274.237	6969
274.297	7091
274.358	3296
274.418	5195
274.478	4132
274.538	2463
274.598	1307
274.658	2481
274.718	2755
274.778	1604
274.838	1118
274.898	2007
274.958	3620
275.018	6185
275.078	4413
275.138	1686
275.198	1059
275.258	1272
275.318	788
275.378	1814
275.438	821
275.498	1854
275.558	1791
275.618	4408
275.678	2865
275.738	2020
275.798	979
275.858	1209
275.918	816
275.978	1337
276.038	1506
276.098	2167
276.157	1237
276.217	3272
276.277	1538
276.337	1369
276.397	586
276.457	854
276.517	1740
276.576	1487
276.636	1382
276.696	1499
276.756	2121
276.815	2412
276.875	2215
276.935	1713
276.995	2421
277.055	2243
277.114	3313
277.174	2000
277.234	2952
277.293	2488
277.353	1327
277.413	2035
277.472	1368
277.532	2950
277.592	4337
277.651	17586
277.711	39620
277.771	14138
277.830	36353
277.890	34663
277.950	23578
278.009	69369
278.069	30816
278.128	27758
278.188	43318
278.248	18504
278.307	45405
278.367	30750
278.426	8888
278.486	5487
278.545	4117
278.605	3595
278.664	3737
278.724	3553
278.783	5152
278.843	9277
278.902	4504
278.962	4314
279.021	5246
279.081	9477
279.140	9259
279.199	6983
279.259	7912
279.318	9890
279.378	13941
279.437	20710
279.496	50327
279.556	158930
279.615	154609
279.675	54106
279.734	26936
279.793	23928
279.853	27147
279.912	15287
279.971	11620
280.031	10866
280.090	13243
280.149	19024
280.208	27445
280.268	107142
280.327	132987
280.386	40261
280.445	18649
280.505	11485
280.564	9005
280.623	7213
280.682	6666
280.742	6824
280.801	4709
280.860	3691
280.919	3653
280.978	4129
281.037	4072
281.097	3105
281.156	5309
281.215	3487
281.274	4124
281.333	5575
281.392	3888
281.451	2446
281.510	2487
281.569	2659
281.628	3089
281.688	3072
281.747	3619
281.806	2218
281.865	2526
281.924	2134
281.983	2267
282.042	1791
282.101	1636
282.160	2557
282.219	2217
282.278	2312
282.337	2485
282.396	3122
282.454	2294
282.513	2169
282.572	3527
282.631	3056
282.690	2121
282.749	1808
282.808	2824
282.867	2839
282.926	2867
282.985	2569
283.043	2718
283.102	3131
283.161	2494
283.220	3847
283.279	5761
283.338	3799
283.396	3356
283.455	3740
283.514	4508
283.573	4630
283.631	3948
283.690	4819
283.749	3288
283.808	5706
283.866	5407
283.925	4530
283.984	5408
284.043	5537
284.101	5720
284.160	6240
284.219	7783
284.277	8575
284.336	8429
284.395	10614
284.453	12359
284.512	12149
284.570	15302
284.629	16525
284.688	20835
284.746	26835
284.805	31979
284.863	39880
284.922	50792
284.981	61987
285.039	82868
285.098	118976
285.156	150696
285.215	103784
285.273	94610
285.332	148762
285.390	131806
285.449	95310
285.507	69116
285.566	51045
285.624	40033
285.683	33243
285.741	25140
285.799	21178
285.858	17722
285.916	15902
285.975	14082
286.033	11727
286.091	10080
286.150	8901
286.208	9335
286.267	7322
286.325	6302
286.383	6508
286.442	6699
286.500	5136
286.558	5198
286.616	5190
286.675	5258
286.733	4724
286.791	4220
286.850	5257
286.908	4135
286.966	4261
287.024	3125
287.083	2843
287.141	4031
287.199	3940
287.257	3436
287.315	3249
287.374	3114
287.432	3245
287.490	3170
287.548	2692
287.606	2295
287.664	2983
287.723	1635
287.781	2794
287.839	2298
287.897	2079
287.955	3306
288.013	3546
288.071	5072
288.129	16785
288.187	66939
288.245	27953
288.303	7208
288.361	4524
288.419	3190
288.477	3177
288.535	1997
288.593	2376
288.651	1992
288.709	1523
288.767	1653
288.825	1030
288.883	1762
288.941	2445
288.999	1113
289.057	1665
289.115	1425
289.173	1750
289.231	2012
289.289	186
289.346	529
289.404	1593
289.462	1437
289.520	1449
289.578	751
289.636	1159
289.694	907
289.751	1947
289.809	891
289.867	894
289.925	1237
289.983	1088
290.040	1053
290.098	916
290.156	707
290.214	912
290.271	1001
290.329	1219
290.387	1354
290.444	1351
290.502	861
290.560	991
290.617	471
290.675	699
290.733	663
290.790	872
290.848	1386
290.906	948
290.963	542
291.021	1188
291.078	1820
291.136	463
291.194	808
291.251	1569
291.309	735
291.366	1997
291.424	683
291.481	1157
291.539	2735
291.596	4564
291.654	978
291.711	1170
291.769	980
291.826	2023
291.884	1132
291.941	558
291.999	934
292.056	419
292.114	1027
292.171	1105
292.228	2012
292.286	852
292.343	1258
292.401	1109
292.458	1622
292.515	805
292.573	1290
292.630	1389
292.687	1196
292.745	794
292.802	382
292.859	2427
292.917	4351
292.974	1871
293.031	1048
293.089	1489
293.146	346
293.203	1096
293.260	551
293.318	207
293.375	2033
293.432	1499
293.489	1987
293.546	1007
293.604	1775
293.661	5245
293.718	10650
293.775	5741
293.832	4517
293.889	8111
293.947	5311
294.004	2866
294.061	1693
294.118	3299
294.175	4885
294.232	9951
294.289	6593
294.346	2538
294.403	2453
294.460	1838
294.517	1790
294.574	379
294.631	1533
294.688	1562
294.745	1740
294.802	6848
294.859	3860
294.916	1164
294.973	927
295.030	1098
295.087	960
295.144	677
295.201	1652
295.258	479
295.315	832
295.372	1960
295.429	4945
295.486	2484
295.542	1190
295.599	931
295.656	1406
295.713	1597
295.770	3104
295.827	1104
295.883	1655
295.940	1240
295.997	989
296.054	745
296.111	1830
296.167	1090
296.224	-61
296.281	212
296.338	44
296.394	1326
296.451	176
296.508	873
296.564	2639
296.621	3150
296.678	6020
296.734	9368
296.791	3072
296.848	1952
296.904	1470
296.961	1811
297.018	4163
297.074	3182
297.131	1178
297.187	1222
297.244	1291
297.301	5850
297.357	11378
297.414	4755
297.470	1572
297.527	996
297.583	670
297.640	1257
297.696	850
297.753	585
297.809	1385
297.866	750
297.922	641
297.979	557
298.035	326
298.092	1396
298.148	1772
298.204	2311
298.261	899
298.317	2314
298.374	7919
298.430	5041
298.486	2089
298.543	864
298.599	870
298.656	1220
298.712	1796
298.768	3054
298.824	2531
298.881	735
298.937	1260
298.993	1001
299.050	768
299.106	1120
299.162	260
299.218	1242
299.275	1314
299.331	1935
299.387	2787
299.443	9765
299.500	22161
299.556	17184
299.612	6598
299.668	5882
299.724	16457
299.780	23097
299.837	8261
299.893	5501
299.949	13188
300.005	22014
300.061	15559
300.117	28745
300.173	12646
300.229	5370
300.285	3269
300.341	3382
300.397	2167
300.453	2644
300.510	2548
300.566	3461
300.622	6507
300.678	25573
300.734	37328
300.790	16137
300.845	11129
300.901	14635
300.957	24989
301.013	11157
301.069	3673
301.125	2958
301.181	2461
301.237	2539
301.293	1552
301.349	2729
301.405	1940
301.461	1829
301.516	936
301.572	990
301.628	949
301.684	1367
301.740	1134
301.796	2284
301.851	1509
301.907	2569
301.963	3045
302.019	5646
302.074	18880
302.130	21445
302.186	8394
302.242	3266
302.297	1492
302.353	2205
302.409	2352
302.464	1824
302.520	1512
302.576	4252
302.631	5763
302.687	2217
302.743	883
302.798	690
302.854	116
302.910	1013
302.965	878
303.021	1425
303.076	988
303.132	1619
303.187	1099
303.243	1051
303.299	477
303.354	1120
303.410	550
303.465	1432
303.521	457
303.576	701
303.632	1354
303.687	1792
303.743	5303
303.798	5734
303.853	2061
303.909	1609
303.964	231
304.020	847
304.075	815
304.130	1274
304.186	1138
304.241	2255
304.297	1323
304.352	1179
304.358	1083
304.407	301
304.449	690
304.463	827
304.518	432
304.539	628
304.573	915
304.629	1100
304.630	1104
304.684	1351
304.720	2740
304.739	3438
304.794	7488
304.811	6313
304.850	3483
304.902	1652
304.905	1537
304.960	782
304.992	479
305.015	238
305.071	900
305.083	935
305.126	1085
305.173	872
305.181	839
305.236	824
305.264	709
305.292	547
305.347	1231
305.354	1207
305.402	1191
305.445	843
305.457	714
305.512	888
305.535	754
305.567	595
305.622	803
305.626	792
305.678	883
305.716	2882
305.733	3610
305.788	4130
305.807	3547
305.843	2786
305.897	5638
305.898	5670
305.953	6156
305.988	3669
306.008	2365
306.063	1934
306.078	1709
306.118	1109
306.168	197
306.173	116
306.228	1035
306.259	796
306.283	611
306.338	640
306.349	623
306.393	625
306.440	1113
306.448	1209
306.503	1390
306.530	1557
306.558	1727
306.613	1259
306.620	1253
306.668	1460
306.711	2416
306.723	2544
306.778	2701
306.801	2303
306.833	1764
306.888	1690
306.892	1602
306.943	880
306.982	973
306.997	1001
307.052	813
307.072	966
307.107	1263
307.162	1354
307.163	1353
307.217	1539
307.253	1434
307.272	1392
307.327	1369
307.343	1566
307.381	1843
307.434	1692
307.436	1713
307.491	2402
307.524	2853
307.546	2954
307.600	3109
307.614	2951
307.655	2123
307.704	1181
307.710	1162
307.765	1395
307.795	1743
307.819	2005
307.874	2423
307.885	2475
307.929	2679
307.975	3219
307.984	3371
308.038	4186
308.065	4530
308.093	7497
308.148	15143
308.156	17386
308.202	28708
308.246	36318
308.257	35661
308.312	16747
308.336	10529
308.366	7436
308.421	5526
308.426	5399
308.475	5167
308.517	4818
308.530	4690
308.585	4736
308.607	4793
308.639	5066
308.694	5634
308.697	5669
308.748	6400
308.787	6577
308.803	6571
308.857	6890
308.877	7128
308.912	8496
308.967	10915
308.967	10959
309.021	18050
309.058	24276
309.076	27832
309.130	40614
309.148	43834
309.185	58770
309.238	84156
309.239	84529
309.293	108299
309.328	111106
309.348	100939
309.402	61982
309.418	51448
309.457	39869
309.508	29154
309.511	29305
309.566	37123
309.598	43814
309.620	56257
309.674	94948
309.688	105256
309.729	102035
309.778	82419
309.783	80175
309.837	49548
309.868	34009
309.892	28397
309.946	19286
309.959	17703
310.001	15240
310.049	12817
310.055	12443
310.109	9588
310.139	8215
310.163	7496
310.218	6106
310.229	5858
310.272	5354
310.319	4879
310.326	4744
310.381	4202
310.409	3743
310.435	3809
310.489	4069
310.499	4109
310.543	3568
310.589	3179
310.598	3235
310.652	3410
310.679	3567
310.706	3483
310.760	3264
310.769	3226
310.814	3248
310.859	3117
310.868	3134
310.923	3428
310.948	3505
310.977	3357
311.031	2984
311.038	2955
311.085	2894
311.128	2646
311.139	2669
311.193	2844
311.218	2937
311.247	2773
311.301	2364
311.308	2324
311.356	2956
311.398	3385
311.410	3323
311.464	3086
311.488	2962
311.518	2828
311.572	2580
311.578	2540
311.626	2586
311.668	2684
311.680	2715
311.734	2749
311.758	2781
311.788	2821
311.842	2858
311.847	2858
311.896	2962
311.937	3019
311.950	2965
312.004	2724
312.027	2610
312.058	2694
312.112	2842
312.117	2849
312.165	3220
312.207	3524
312.297	2885
312.386	2261
312.476	3253
312.566	2744
312.656	3326
312.745	2772
312.835	3765
312.925	2974
313.015	3063
313.104	3496
313.194	3474
313.284	3345
313.374	3743
313.463	4154
313.553	4339
313.643	3617
313.732	4698
313.822	4388
313.912	5085
314.001	5671
314.091	5357
314.180	5330
314.270	5808
314.360	5465
314.449	4668
314.539	4543
314.628	5090
314.718	5323
314.808	4812
314.897	5986
314.987	7208
315.076	7389
315.166	6109
315.255	5612
315.345	6432
315.434	5780
315.524	5727
315.613	6436
315.703	8195
315.792	21951
315.881	68053
315.971	18831
316.060	7860
316.150	6081
316.239	5842
316.328	5182
316.418	6311
316.507	5743
316.597	7344
316.686	7113
316.775	6848
316.865	6104
316.954	5898
317.043	5213
317.133	4350
317.222	3934
317.311	3928
317.400	3295
317.490	5158
317.579	4632
317.668	6434
317.757	11540
317.847	36640
317.936	102934
318.025	27672
318.114	25976
318.203	10886
318.293	5898
318.382	9155
318.471	9309
318.560	8601
318.649	7622
318.738	5502
318.828	3926
318.917	3570
319.006	2829
319.095	3847
319.184	6158
319.273	4656
319.362	3699
319.451	3415
319.540	3484
319.629	3928
319.718	3576
319.807	3717
319.896	4584
319.985	6647
320.074	4934
320.163	3563
320.252	2946
320.341	3838
320.430	3965
320.519	4806
320.608	4805
320.697	5790
320.786	6493
320.875	8385
320.964	9035
321.053	9188
321.142	9502
321.230	10668
321.319	12080
321.408	15526
321.497	14368
321.586	11240
321.675	8673
321.764	8884
321.852	8114
321.941	8806
322.030	8723
322.119	9116
322.207	12349
322.296	14129
322.385	15560
322.474	19235
322.562	21829
322.651	15350
322.740	10409
322.829	10973
322.917	8747
323.006	7086
323.095	7207
323.183	6214
323.272	6128
323.361	6129
323.449	6556
323.538	4979
323.626	5513
323.715	5263
323.804	5068
323.892	4642
323.981	4821
324.069	4359
324.158	3631
324.246	5223
324.335	4074
324.424	4877
324.512	4400
324.601	4629
324.689	4494
324.778	4995
324.866	3773
324.954	3616
325.043	3176
325.131	3288
325.220	4300
325.308	3833
325.397	3478
325.485	4368
325.574	3048
325.662	3778
325.750	3481
325.839	4352
325.927	3478
326.015	3064
326.104	3247
326.192	3837
326.280	2905
326.369	3513
326.457	3299
326.545	3966
326.634	3197
326.722	3212
326.810	4026
326.898	4765
326.987	4669
327.075	4094
327.163	4268
327.251	4090
327.340	4632
327.428	7537
327.516	7003
327.604	5703
327.692	4537
327.781	3451
327.869	3348
327.957	3282
328.045	3387
328.133	3578
328.221	2905
328.309	3679
328.397	3192
328.485	4460
328.574	7846
328.662	11424
328.750	5594
328.838	4197
328.926	3503
329.014	3941
329.102	3409
329.190	4000
329.278	3294
329.366	4170
329.454	3165
329.542	3294
329.630	2780
329.718	3891
329.806	3431
329.893	3188
329.981	2876
330.069	3653
330.157	4299
330.245	5349
330.333	4244
330.421	3946
330.509	3033
330.597	4157
330.684	4046
330.772	3596
330.860	2833
330.948	3326
331.036	3568
331.123	3662
331.211	3841
331.299	3138
331.387	3411
331.475	4021
331.562	3832
331.650	3625
331.738	3883
331.825	3809
331.913	3219
332.001	2715
332.089	3381
332.176	3280
332.264	4495
332.352	4360
332.439	3896
332.527	3492
332.614	2908
332.702	4914
332.790	4148
332.877	5639
332.965	13700
333.052	11730
333.140	14345
333.228	35153
333.315	9819
333.403	5673
333.490	6568
333.578	15693
333.665	52524
333.753	19200
333.840	6164
333.928	6405
334.015	6928
334.103	8080
334.190	11366
334.278	14914
334.365	21430
334.452	22106
334.540	11690
334.627	11973
334.715	15166
334.802	22390
334.889	40250
334.977	56453
335.064	35416
335.151	15764
335.239	11245
335.326	9813
335.413	9195
335.501	10929
335.588	9199
335.675	10183
335.762	11911
335.850	17290
335.937	25608
336.024	44889
336.111	78537
336.199	72825
336.286	31310
336.373	16991
336.460	11024
336.547	9578
336.635	7512
336.722	6575
336.809	6613
336.896	5630
336.983	6254
337.070	7495
337.157	7748
337.245	6460
337.332	6675
337.419	5641
337.506	4774
337.593	5691
337.680	4196
337.767	5802
337.854	4315
337.941	4169
338.028	4075
338.115	3960
338.202	5329
338.289	4507
338.376	4567
338.463	4425
338.550	3977
338.637	5126
338.724	4069
338.811	5019
338.898	4029
338.984	3597
339.071	3290
339.158	4247
339.245	3852
339.332	3576
339.419	4502
339.506	4581
339.593	2369
339.679	4051
339.766	4730
339.853	3036
339.940	3455
340.027	3164
340.113	3400
340.200	3855
340.287	3221
340.374	3133
340.460	3298
340.547	2260
340.634	3396
340.720	5575
340.807	4549
340.894	3859
340.980	3459
341.067	3235
341.154	4111
341.240	4231
341.327	4525
341.414	3834
341.500	2611
341.587	4558
341.674	4141
341.760	4100
341.847	3550
341.933	3735
342.020	3332
342.106	3765
342.193	3693
342.279	3840
342.366	3875
342.452	3212
342.539	4097
342.625	4314
342.712	4963
342.798	3306
342.885	2982
342.971	2939
343.058	3166
343.144	3319
343.230	3456
343.317	3328
343.403	3406
343.490	3750
343.576	3349
343.662	3792
343.749	4464
343.835	3661
343.921	4590
344.008	14276
344.094	23730
344.180	6811
344.267	3954
344.353	5940
344.439	5437
344.525	4356
344.612	3887
344.698	3832
344.784	3232
344.870	4025
344.957	3010
345.043	4072
345.129	2649
345.215	3941
345.301	2773
345.387	3911
345.474	2799
345.560	3557
345.646	2774
345.732	3747
345.818	3372
345.904	3157
345.990	3427
346.076	3766
346.162	2930
346.249	3911
346.335	3086
346.421	3543
346.507	4865
346.593	9348
346.679	3272
346.765	4887
346.851	7916
346.937	5381
347.023	4712
347.108	4880
347.194	2979
347.280	4319
347.366	5238
347.452	16129
347.538	20879
347.624	11077
347.710	6625
347.796	4336
347.882	4026
347.967	4333
348.053	3723
348.139	2897
348.225	3106
348.311	3428
348.397	3932
348.482	4653
348.568	4407
348.654	7009
348.740	22522
348.825	20284
348.911	8519
348.997	7729
349.083	10484
349.168	4032
349.254	3920
349.340	3303
349.425	4020
349.511	4938
349.597	4070
349.682	4056
349.768	6981
349.854	5385
349.939	4623
350.025	3516
350.110	3883
350.196	3460
350.282	3465
350.367	4280
350.453	4387
350.538	3840
350.624	3367
350.709	3874
350.795	2450
350.880	2978
350.966	4058
351.051	3844
351.137	3947
351.222	4178
351.308	3728
351.393	5271
351.479	3259
351.564	3743
351.649	4247
351.735	3772
351.820	3397
351.906	4196
351.991	2862
352.076	5084
352.162	5457
352.247	4250
352.332	3781
352.418	2690
352.503	3941
352.588	7002
352.673	5340
352.759	4158
352.844	2884
352.929	3467
353.014	2809
353.100	4225
353.185	3708
353.270	3649
353.355	4621
353.441	3600
353.526	3266
353.611	4178
353.696	3102
353.781	4718
353.866	2808
353.952	4606
354.037	2581
354.122	5493
354.207	5191
354.292	4278
354.377	3461
354.462	4376
354.547	3530
354.632	4284
354.717	3790
354.802	3312
354.887	3425
354.972	4542
355.057	3823
355.142	3617
355.227	3504
355.312	3717
355.397	4035
355.482	5640
355.567	3354
355.652	4837
355.737	4554
355.822	7411
355.907	4985
355.991	5246
356.076	3113
356.161	4306
356.246	2834
356.331	4376
356.416	3816
356.501	14384
356.585	10648
356.670	4415
356.755	5871
356.840	5191
356.924	10439
357.009	24853
357.094	10926
357.179	4155
357.263	4772
357.348	5001
357.433	3943
357.517	4631
357.602	3988
357.687	3886
357.771	5002
357.856	5829
357.941	5418
358.025	10784
358.110	33388
358.195	15514
358.279	6100
358.364	5115
358.448	6556
358.533	10520
358.617	7663
358.702	7886
358.787	5492
358.871	5341
358.956	4709
359.040	5377
359.125	4593
359.209	4340
359.294	5188
359.378	7882
359.462	6463
359.547	5282
359.631	3759
359.716	3236
359.800	3852
359.885	5141
359.969	3233
360.053	4705
360.138	4038
360.222	4362
360.306	3878
360.391	4411
360.475	4186
360.559	4941
360.644	5782
360.728	5153
360.812	9769
360.896	17384
360.981	7454
361.065	4188
361.149	5285
361.233	5454
361.318	3787
361.402	4783
361.486	6161
361.570	4812
361.654	5606
361.739	6325
361.823	12581
361.907	19688
361.991	8665
362.075	7890
362.159	11213
362.243	21312
362.327	53580
362.411	84676
362.495	29851
362.580	14582
362.664	12608
362.748	14565
362.832	21551
362.916	45028
363.000	139283
363.084	200593
363.168	79775
363.252	23153
363.336	14263
363.420	11836
363.503	11035
363.587	10551
363.671	8353
363.755	8103
363.839	10146
363.923	10276
364.007	12677
364.091	16528
364.175	24236
364.258	60180
364.342	154459
364.426	284717
364.510	146224
364.594	43061
364.677	21245
364.761	22717
364.845	16118
364.929	8777
365.013	6899
365.096	7235
365.180	5304
365.264	6992
365.347	9802
365.431	6749
365.515	4697
365.598	4335
365.682	6621
365.766	4528
365.849	4774
365.933	5365
366.017	6440
366.100	5126
366.184	5017
366.267	5868
366.351	5352
366.435	5557
366.518	4668
366.602	5494
366.685	5169
366.769	5699
366.852	6130
366.936	5072
367.019	5899
367.103	4472
367.186	6447
367.270	6250
367.353	4907
367.436	7176
367.520	6030
367.603	7262
367.687	4821
367.770	5943
367.853	7078
367.937	9671
368.020	9274
368.104	5347
368.187	6008
368.270	5555
368.353	5410
368.437	4857
368.520	5474
368.603	5532
368.687	5300
368.770	8222
368.853	4192
368.936	5231
369.020	5683
369.103	5240
369.186	4591
369.269	3618
369.352	5330
369.436	5120
369.519	4701
369.602	3072
369.685	6238
369.768	4185
369.851	5219
369.934	4006
370.018	4417
370.101	3996
370.184	7291
370.267	6230
370.350	5351
370.433	7085
370.516	18289
370.599	40723
370.682	16862
370.765	9806
370.848	9329
370.931	11057
371.014	7438
371.097	5162
371.180	6818
371.263	6904
371.346	5273
371.429	7675
371.511	6182
371.594	6875
371.677	8929
371.760	10065
371.843	8976
371.926	19682
372.009	34707
372.091	21862
372.174	13731
372.257	17483
372.340	13207
372.423	12601
372.505	12479
372.588	9648
372.671	10046
372.754	11686
372.836	10834
372.919	10042
373.002	10579
373.085	8361
373.167	10177
373.250	9818
373.332	13130
373.415	22645
373.498	37494
373.580	24634
373.663	63901
373.746	59838
373.828	12286
373.911	8973
373.993	7411
374.076	8703
374.159	7663
374.241	7703
374.324	10440
374.406	11234
374.489	13317
374.571	27804
374.654	12236
374.736	9861
374.819	17935
374.901	27214
374.983	26245
375.066	11014
375.148	8399
375.231	8469
375.313	11872
375.395	8921
375.478	8320
375.560	9177
375.643	7800
375.725	12277
375.807	22017
375.890	16264
375.972	5958
376.054	7691
376.136	7051
376.219	5880
376.301	9232
376.383	15087
376.465	9188
376.548	6619
376.630	7477
376.712	13173
376.794	8018
376.877	5898
376.959	3761
377.041	5331
377.123	4964
377.205	4841
377.287	4613
377.369	5998
377.452	5059
377.534	5756
377.616	4856
377.698	5631
377.780	4397
377.862	5839
377.944	6573
378.026	4131
378.108	5323
378.190	5397
378.272	6148
378.354	5730
378.436	5088
378.518	4294
378.600	5317
378.682	5840
378.764	7418
378.846	6892
378.928	5338
379.010	5059
379.091	5810
379.173	5789
379.255	4412
379.337	5148
379.419	6456
379.501	9953
379.583	6603
379.664	4968
379.746	4710
379.828	9093
379.910	8460
379.991	8969
380.073	5095
380.155	5672
380.237	4903
380.318	5389
380.400	5515
380.482	7057
380.564	5812
380.645	6582
380.727	6714
380.809	7100
380.890	5886
380.972	5106
381.053	6885
381.135	8431
381.217	7421
381.298	10202
381.380	7133
381.461	8919
381.543	15335
381.624	16625
381.706	9816
381.787	8660
381.869	9654
381.951	14143
382.032	29950
382.113	23137
382.195	10489
382.276	13107
382.358	14303
382.439	20342
382.521	26377
382.602	37485
382.684	30788
382.765	51913
382.846	148145
382.928	318392
383.009	179857
383.090	146844
383.172	383478
383.253	445189
383.334	160745
383.416	69975
383.497	53067
383.578	62994
383.659	124233
383.741	344884
383.822	570684
383.903	309316
383.984	99256
384.066	55296
384.147	34276
384.228	25716
384.309	22014
384.390	19269
384.471	17812
384.553	16641
384.634	15396
384.715	15675
384.796	13898
384.877	14774
384.958	17660
385.039	15197
385.120	12175
385.201	11862
385.282	12236
385.363	14606
385.444	16886
385.525	18386
385.606	19470
385.687	17952
385.768	12614
385.849	11983
385.930	22098
386.011	29837
386.092	15140
386.173	12528
386.254	10458
386.335	11010
386.416	9347
386.496	10368
386.577	11205
386.658	9941
386.739	9775
386.820	10496
386.901	10391
386.981	12091
387.062	13997
387.143	14290
387.224	16836
387.304	18967
387.385	17222
387.466	13701
387.547	16828
387.627	17940
387.708	18030
387.789	21224
387.869	19549
387.950	15235
388.031	11433
388.111	10163
388.192	12257
388.273	14301
388.353	11821
388.434	8539
388.514	8853
388.595	15830
388.676	16012
388.756	10367
388.837	9793
388.917	7918
388.998	5621
389.078	8221
389.159	6938
389.239	6686
389.320	8375
389.400	5017
389.480	7709
389.561	9257
389.641	9397
389.722	7280
389.802	6529
389.883	8781
389.963	11554
390.043	8457
390.124	5482
390.204	7539
390.284	9406
390.365	7302
390.445	9415
390.525	18423
390.605	18843
390.686	7931
390.766	7462
390.846	7867
390.927	6692
391.007	6236
391.087	8304
391.167	7624
391.247	6335
391.328	7969
391.408	8844
391.488	9282
391.568	7006
391.648	8239
391.728	8980
391.808	10577
391.888	9587
391.969	11502
392.049	11185
392.129	12677
392.209	13238
392.289	18108
392.369	15507
392.449	15739
392.529	16619
392.609	19703
392.689	23133
392.769	27819
392.849	33975
392.929	42189
393.009	58063
393.089	85360
393.169	163010
393.248	383012
393.328	712665
393.408	674086
393.488	345522
393.568	146492
393.648	77278
393.728	50067
393.807	34910
393.887	28945
393.967	23638
394.047	19432
394.127	16540
394.206	16482
394.286	24143
394.366	74963
394.446	74514
394.525	20759
394.605	12102
394.685	11621
394.764	14106
394.844	23732
394.924	28261
395.003	14718
395.083	9401
395.163	9361
395.242	8486
395.322	9824
395.402	8356
395.481	11028
395.561	12018
395.640	36292
395.720	69531
395.799	32753
395.879	14325
395.958	13605
396.038	28397
396.117	98400
396.197	102072
396.276	30963
396.356	21355
396.435	27160
396.515	36483
396.594	58207
396.673	124734
396.753	347875
396.832	633073
396.912	462693
396.991	164624
397.070	70574
397.150	40063
397.229	35471
397.308	63118
397.388	105209
397.467	47725
397.546	19160
397.625	11953
397.705	13869
397.784	11768
397.863	9810
397.942	9501
398.022	9209
398.101	7843
398.180	9021
398.259	7562
398.338	7981
398.417	6640
398.497	6901
398.576	7228
398.655	5832
398.734	6577
398.813	6304
398.892	6260
398.971	9016
399.050	5154
399.129	5217
399.208	5902
399.287	6211
399.366	4090
399.445	4753
399.524	5588
399.603	3890
399.682	4986
399.761	5050
399.840	7715
399.919	6641
399.998	4791
400.077	4031
400.156	3383
400.235	6644
400.313	3783
400.392	2901
400.471	4830
400.550	6381
400.629	2728
400.708	4308
400.786	3306
400.865	3922
400.944	2708
401.023	5624
401.102	3409
401.180	4084
401.259	3641
401.338	2727
401.416	3847
401.495	2603
401.574	4099
401.652	2846
401.731	4821
401.810	2685
401.888	2948
401.967	3208
402.046	2312
402.124	3331
402.203	2186
402.281	3585
402.360	2799
402.438	3949
402.517	1985
402.596	3731
402.674	2118
402.753	3509
402.831	2757
402.910	4307
402.988	3025
403.066	7315
403.145	5949
403.223	5107
403.302	6742
403.380	7104
403.459	6388
403.537	4625
403.615	4410
403.694	3330
403.772	4491
403.850	3838
403.929	2860
404.007	3002
404.085	4654
404.164	3166
404.242	4460
404.320	5117
404.398	8839
404.477	7945
404.555	14804
404.633	13432
404.711	7498
404.789	5363
404.868	3314
404.946	2519
405.024	3719
405.102	3118
405.180	2257
405.258	2138
405.336	4198
405.415	2739
405.493	3764
405.571	3515
405.649	2510
405.727	2880
405.805	5538
405.883	5573
405.961	4358
406.039	2864
406.117	2141
406.195	3790
406.273	3341
406.351	10172
406.429	6619
406.507	2662
406.585	2260
406.663	2766
406.740	2280
406.818	2009
406.896	2502
406.974	3994
407.052	1104
407.130	5841
407.208	7096
407.285	3836
407.363	1541
407.441	2653
407.519	2317
407.596	3260
407.674	4138
407.752	11447
407.830	8964
407.907	3825
407.985	2189
408.063	3082
408.141	1745
408.218	3392
408.296	1744
408.373	2610
408.451	3930
408.529	3548
408.606	3558
408.684	4417
408.762	4327
408.839	3950
408.917	3974
408.994	5051
409.072	5104
409.149	8282
409.227	14425
409.304	20326
409.382	21783
409.459	24625
409.537	32314
409.614	27088
409.692	18774
409.769	21049
409.846	33790
409.924	39892
410.001	26084
410.079	16628
410.156	12450
410.233	8817
410.311	7088
410.388	6874
410.465	6681
410.543	5767
410.620	7713
410.697	6531
410.775	6082
410.852	6675
410.929	8020
411.006	7869
411.083	6659
411.161	5795
411.238	6020
411.315	5566
411.392	4785
411.469	5758
411.547	4020
411.624	3139
411.701	3497
411.778	3945
411.855	4298
411.932	3440
412.009	3298
412.086	3599
412.163	3212
412.240	3058
412.317	4359
412.394	3127
412.471	3369
412.548	2481
412.625	2543
412.702	3544
412.779	2314
412.856	3610
412.933	2079
413.010	3554
413.087	2412
413.164	3379
413.241	3954
413.318	2709
413.395	3625
413.471	3026
413.548	2467
413.625	3028
413.702	1193
413.779	2496
413.855	2468
413.932	2611
414.009	1502
414.086	2346
414.162	3255
414.239	3439
414.316	3374
414.393	6126
414.469	1781
414.546	2390
414.623	1913
414.699	2275
414.776	1816
414.853	1583
414.929	2886
415.006	2500
415.082	2028
415.159	2319
415.236	2610
415.312	2882
415.389	2609
415.465	1992
415.542	2604
415.618	1501
415.695	2620
415.771	1811
415.848	1568
415.924	2032
416.000	1526
416.077	3540
416.153	1124
416.230	1747
416.306	1311
416.383	2155
416.459	2778
416.535	2085
416.612	2347
416.688	3157
416.764	3425
416.841	3276
416.917	3320
416.993	2669
417.069	2228
417.146	2561
417.222	1864
417.298	2385
417.374	2240
417.451	2156
417.527	1745
417.603	1583
417.679	2055
417.755	2059
417.831	1760
417.908	2692
417.984	2263
418.060	1332
418.136	2667
418.212	2291
418.288	2118
418.364	2090
418.440	1202
418.516	2650
418.592	1741
418.668	3089
418.744	2630
418.820	2442
418.896	1929
418.972	1830
419.048	2491
419.124	3751
419.200	1218
419.276	2594
419.352	1487
419.428	2485
419.504	1827
419.579	3136
419.655	3032
419.731	3553
419.807	4405
419.883	3409
419.959	3334
420.034	4288
420.110	3945
420.186	4205
420.262	4693
420.337	4082
420.413	3992
420.489	5250
420.565	4918
420.640	5557
420.716	6055
420.792	5231
420.867	6392
420.943	5928
421.019	6540
421.094	6782
421.170	6681
421.245	7428
421.321	8903
421.397	9055
421.472	11721
421.548	14238
421.623	14731
421.699	13896
421.774	15966
421.850	17110
421.925	21215
422.001	24008
422.076	29789
422.152	37286
422.227	48350
422.302	67834
422.378	102285
422.453	164610
422.529	264821
422.604	291878
422.679	221619
422.755	273591
422.830	256507
422.905	168507
422.981	108593
423.056	76553
423.131	57347
423.207	41834
423.282	34250
423.357	28336
423.432	22818
423.508	20746
423.583	17641
423.658	15681
423.733	14801
423.808	13110
423.883	12364
423.959	14402
424.034	18647
424.109	16455
424.184	10371
424.259	9142
424.334	8261
424.409	6275
424.484	6587
424.559	6233
424.634	5760
424.709	5417
424.784	5348
424.859	5092
424.934	4291
425.009	5384
425.084	5126
425.159	4511
425.234	4149
425.309	3632
425.384	4197
425.459	3460
425.534	3983
425.609	3078
425.683	3043
425.758	3418
425.833	3015
425.908	3242
425.983	3468
426.058	5431
426.132	4051
426.207	2479
426.282	4517
426.357	2733
426.431	3009
426.506	3345
426.581	3384
426.655	2609
426.730	2360
426.805	1491
426.879	3361
426.954	2063
427.029	3004
427.103	4746
427.178	7291
427.253	5104
427.327	2143
427.402	1996
427.476	2017
427.551	2178
427.625	2238
427.700	2539
427.774	2529
427.849	3298
427.923	2310
427.998	3597
428.072	3602
428.147	8763
428.221	44657
428.296	123537
428.370	63183
428.444	10526
428.519	4186
428.593	3918
428.667	5179
428.742	4540
428.816	16904
428.890	79759
428.965	109313
429.039	26424
429.113	4843
429.188	4104
429.262	3330
429.336	3647
429.410	3341
429.485	3511
429.559	3449
429.633	4017
429.707	4550
429.781	14632
429.855	74182
429.930	95578
430.004	24490
430.078	15398
430.152	51211
430.226	168352
430.300	149195
430.374	32539
430.448	10018
430.522	6693
430.596	7289
430.670	25627
430.744	98604
430.818	95496
430.892	16424
430.966	3655
431.040	2971
431.114	2280
431.188	1968
431.262	1819
431.336	1795
431.410	2100
431.484	2619
431.557	2659
431.631	2906
431.705	7209
431.779	36311
431.853	121983
431.927	72307
432.000	10191
432.074	3336
432.148	1919
432.222	1336
432.295	1830
432.369	1153
432.443	958
432.516	2879
432.590	7056
432.664	3279
432.737	1089
432.811	715
432.885	475
432.958	1289
433.032	139
433.106	-168
433.179	723
433.253	484
433.326	-37
433.400	400
433.473	1534
433.547	470
433.620	1443
433.694	835
433.767	1291
433.841	395
433.914	1095
433.988	1352
434.061	1303
434.134	993
434.208	818
434.281	-39
434.355	877
434.428	1171
434.501	765
434.575	336
434.648	37
434.721	1105
434.795	1179
434.868	875
434.941	1420
435.014	1071
435.088	1857
435.161	4057
435.234	5894
435.307	5683
435.381	6604
435.454	9682
435.527	17525
435.600	17073
435.673	13209
435.746	9190
435.819	5745
435.892	4468
435.966	3809
436.039	2135
436.112	1607
436.185	1291
436.258	1127
436.331	386
436.404	1156
436.477	676
436.550	930
436.623	1250
436.696	1175
436.769	1353
436.842	754
436.915	1214
436.987	148
437.060	118
437.133	1195
437.206	745
437.279	994
437.352	1301
437.425	1213
437.498	367
437.570	658
437.643	554
437.716	646
437.789	364
437.861	1185
437.934	513
438.007	236
438.080	1181
438.152	331
438.225	1244
438.298	4890
438.370	11745
438.443	4583
438.516	999
438.588	774
438.661	412
438.734	744
438.806	629
438.879	1655
438.951	322
439.024	1367
439.096	-157
439.169	1032
439.241	129
439.314	298
439.386	124
439.459	1438
439.531	583
439.604	137
439.676	882
439.749	679
439.821	706
439.893	812
439.966	744
440.038	502
440.110	1033
440.183	486
440.255	939
440.327	2074
440.400	1991
440.472	5638
440.544	3310
440.617	-169
440.689	1072
440.761	1473
440.833	872
440.905	1244
440.978	106
441.050	1038
441.122	1823
441.194	148
441.266	292
441.338	813
441.411	1661
441.483	2599
441.555	1553
441.627	1007
441.699	1543
441.771	1091
441.843	1255
441.915	1602
441.987	1231
442.059	1900
442.131	2730
442.203	3489
442.275	4098
442.347	7978
442.419	20719
442.491	99369
442.563	186047
442.635	66595
442.706	12797
442.778	6027
442.850	4392
442.922	3733
442.994	3905
443.066	3924
443.137	5668
443.209	8233
443.281	11952
443.353	29811
443.425	112364
443.496	292510
443.568	283708
443.640	110746
443.711	24392
443.783	10335
443.855	6420
443.926	4923
443.998	3754
444.070	3842
444.141	3145
444.213	2457
444.285	2656
444.356	2399
444.428	1923
444.499	2981
444.571	2384
444.642	2323
444.714	2731
444.785	2863
444.857	3338
444.928	3472
445.000	4583
445.071	5845
445.143	7769
445.214	11757
445.285	20888
445.357	59442
445.428	201862
445.500	330396
445.571	261745
445.642	164893
445.714	53584
445.785	16326
445.856	7812
445.928	5623
445.999	3364
446.070	3146
446.141	2481
446.213	2451
446.284	1602
446.355	1844
446.426	1249
446.497	1254
446.569	606
446.640	1146
446.711	1233
446.782	787
446.853	793
446.924	986
446.995	105
447.066	1459
447.138	185
447.209	970
447.280	-282
447.351	170
447.422	-35
447.493	694
447.564	56
447.635	-53
447.706	254
447.777	18
447.847	-106
447.918	-366
447.989	-74
448.060	373
448.131	394
448.202	-226
448.273	355
448.344	848
448.414	789
448.485	78
448.556	148
448.627	23
448.698	989
448.768	408
448.839	-961
448.910	-310
448.981	-63
449.051	49
449.122	216
449.193	343
449.263	250
449.334	-183
449.405	-211
449.475	-249
449.546	654
449.616	954
449.687	642
449.758	443
449.828	-550
449.899	229
449.969	-537
450.040	174
450.110	330
450.181	57
450.251	-271
450.322	31
450.392	-116
450.463	640
450.533	-237
450.604	-261
450.674	522
450.744	1137
450.815	479
450.885	1022
450.955	830
451.026	488
451.096	-35
451.166	818
451.237	807
451.307	1710
451.377	1546
451.447	-366
451.518	406
451.588	113
451.658	115
451.728	175
451.799	-67
451.869	498
451.939	-841
452.009	494
452.079	-510
452.149	636
452.219	244
452.289	25
452.360	70
452.430	835
452.500	913
452.570	4312
452.640	11329
452.710	32071
452.780	29261
452.850	12392
452.920	4766
452.990	2768
453.060	1744
453.129	-112
453.199	1
453.269	1028
453.339	1134
453.409	1252
453.479	826
453.549	1596
453.619	1390
453.688	-474
453.758	394
453.828	-342
453.898	-438
453.968	-164
454.037	-180
454.087	209
454.107	360
454.168	-858
454.177	-1049
454.247	81
454.249	76
454.316	-302
454.330	-286
454.386	-269
454.411	-477
454.456	-888
454.492	-180
454.525	445
454.574	344
454.595	286
454.655	271
454.665	262
454.734	-28
454.736	-15
454.804	-6
454.817	70
454.873	327
454.898	264
454.943	193
454.979	117
455.013	-7
455.060	-130
455.082	-193
455.141	250
455.152	328
455.221	95
455.222	108
455.291	111
455.303	209
455.360	395
455.384	705
455.430	1170
455.465	1258
455.499	1304
455.546	33
455.569	-525
455.627	345
455.638	476
455.707	311
455.708	319
455.777	142
455.789	185
455.846	317
455.869	262
455.916	93
455.950	-128
455.985	-315
456.031	274
456.054	524
456.112	414
456.124	425
456.193	328
456.193	315
456.262	585
456.274	660
456.332	938
456.355	748
456.401	519
456.436	359
456.470	46
456.516	267
456.540	426
456.597	749
456.609	781
456.678	650
456.678	637
456.747	374
456.759	348
456.817	609
456.840	892
456.886	1096
456.920	863
456.955	849
457.001	1306
457.024	1423
457.082	1618
457.093	1619
457.162	2232
457.163	2239
457.232	1116
457.243	1165
457.301	1392
457.324	1415
457.370	1570
457.405	1966
457.439	2249
457.485	2006
457.508	1942
457.566	2546
457.577	2889
457.646	5567
457.647	5618
457.715	15004
457.727	17405
457.784	31693
457.808	43307
457.853	57234
457.889	64305
457.922	63208
457.969	38465
457.991	36660
458.050	48987
458.060	51093
458.129	93586
458.130	94656
458.198	92950
458.211	81774
458.267	37852
458.292	24665
458.336	15322
458.372	15130
458.405	23081
458.453	38404
458.474	49156
458.533	91483
458.543	94436
458.611	149926
458.614	150057
458.680	82846
458.694	63374
458.749	23620
458.775	15961
458.818	8768
458.855	6701
458.887	5328
458.936	4085
458.955	3897
459.016	3627
459.024	3543
459.093	3270
459.097	3219
459.162	2519
459.177	2579
459.230	2602
459.257	2578
459.299	2533
459.338	2340
459.368	2200
459.418	2040
459.437	1999
459.499	1684
459.505	1661
459.574	2234
459.579	2266
459.643	2048
459.659	1944
459.711	2172
459.740	2204
459.780	2073
459.820	2037
459.849	2041
459.900	2438
459.917	2457
459.981	2035
459.986	1994
460.054	1507
460.061	1483
460.123	1654
460.141	1715
460.191	1874
460.222	1893
460.260	1756
460.302	1565
460.328	1665
460.382	2148
460.397	2057
460.462	1536
460.465	1589
460.534	2919
460.543	3147
460.602	7426
460.623	9066
460.671	12834
460.703	16718
460.739	15889
460.783	12335
460.808	10389
460.864	3140
460.876	2555
460.944	2126
460.945	2108
461.013	1650
461.024	1540
461.081	1861
461.104	2113
461.150	2255
461.184	2436
461.218	2451
461.264	2039
461.286	2031
461.345	2511
461.355	2519
461.423	2529
461.425	2513
461.491	1762
461.505	1780
461.559	2361
461.585	2399
461.628	2276
461.665	2326
461.696	2377
461.745	2477
461.764	2389
461.825	1900
461.832	1975
461.901	2866
461.905	2916
461.969	1794
461.985	1527
462.037	2278
462.065	2804
462.105	2469
462.145	2043
462.173	2184
462.225	2238
462.241	2198
462.305	2180
462.310	2196
462.378	2532
462.385	2545
462.446	2412
462.465	2482
462.514	2585
462.545	2488
462.582	2432
462.625	2487
462.650	2457
462.705	2095
462.718	2043
462.785	2244
462.786	2238
462.854	1533
462.865	1454
462.922	2154
462.945	2319
462.990	2642
463.025	2835
463.058	2713
463.104	2900
463.126	2828
463.184	2371
463.194	2401
463.262	2337
463.264	2352
463.330	2120
463.344	1978
463.398	2311
463.424	2573
463.466	2129
463.504	1749
463.533	2238
463.583	2662
463.601	2577
463.663	2474
463.669	2439
463.737	2329
463.743	2292
463.805	2552
463.823	2669
463.873	2552
463.903	2484
463.940	2597
463.982	2529
464.008	2385
464.062	2258
464.076	2361
464.142	2866
464.144	2855
464.211	1994
464.221	1914
464.279	2023
464.301	2022
464.347	1820
464.381	1598
464.414	1824
464.461	2317
464.482	2455
464.540	2587
464.550	2527
464.617	2118
464.620	2104
464.685	2864
464.699	3001
464.753	2226
464.779	1853
464.820	2028
464.859	2211
464.888	1934
464.938	1402
464.956	1857
465.018	3563
465.023	3546
465.091	3192
465.098	3144
465.158	2878
465.177	2817
465.226	2874
465.257	2902
465.293	2956
465.336	2940
465.361	2986
465.416	3064
465.428	3025
465.495	2912
465.496	2916
465.563	2623
465.575	2611
465.631	2848
465.654	2935
465.698	3056
465.734	3056
465.765	2989
465.813	2839
465.833	2856
465.893	3084
465.900	3140
465.968	3415
465.972	3432
466.035	2664
466.052	2441
466.102	2479
466.131	2515
466.170	2337
466.210	2101
466.237	2414
466.290	3007
466.304	2954
466.369	2743
466.372	2740
466.439	2416
466.449	2364
466.506	2494
466.528	2548
466.573	2592
466.607	2627
466.641	2994
466.687	3457
466.708	3513
466.766	3661
466.775	3681
466.842	3797
466.845	3794
466.909	3004
466.925	2814
466.977	2992
467.004	3078
467.044	3158
467.083	3230
467.111	3214
467.163	3172
467.178	3179
467.242	3178
467.245	3211
467.312	3801
467.321	3875
467.379	3603
467.400	3493
467.446	3587
467.480	3647
467.559	4193
467.638	3844
467.717	3702
467.796	4550
467.875	4139
467.955	4109
468.034	6143
468.113	6463
468.192	8666
468.271	10912
468.350	16371
468.429	25679
468.508	27489
468.588	15993
468.667	9141
468.746	6754
468.825	4768
468.904	4864
468.983	4360
469.062	4133
469.141	4758
469.220	3649
469.299	4555
469.378	3971
469.456	4917
469.535	3471
469.614	3227
469.693	4013
469.772	4069
469.851	4744
469.930	4965
470.009	6345
470.088	7206
470.166	14335
470.245	28691
470.324	37538
470.403	19620
470.482	9201
470.560	7209
470.639	4699
470.718	4550
470.797	4071
470.875	4588
470.954	3601
471.033	3236
471.111	4003
471.190	3574
471.269	2966
471.347	3712
471.426	3428
471.505	3052
471.583	3151
471.662	3652
471.740	3452
471.819	3892
471.898	3178
471.976	3652
472.055	3590
472.133	3853
472.212	4438
472.290	4043
472.369	3285
472.447	4125
472.526	3222
472.604	4471
472.683	4261
472.761	4111
472.839	3519
472.918	3425
472.996	3996
473.075	5303
473.153	4688
473.231	3742
473.310	3617
473.388	4432
473.466	3290
473.545	4191
473.623	3686
473.701	4208
473.780	4552
473.858	2743
473.936	5968
474.014	3995
474.093	4228
474.171	4321
474.249	4153
474.327	3148
474.405	3560
474.484	4221
474.562	3374
474.640	3936
474.718	3861
474.796	3990
474.874	4439
474.952	3728
475.030	3842
475.108	3482
475.187	3926
475.265	3962
475.343	4224
475.421	3980
475.499	4137
475.577	3295
475.655	4592
475.733	4261
475.811	3767
475.889	2637
475.966	4488
476.044	3000
476.122	3779
476.200	3898
476.278	3326
476.356	2434
476.434	4214
476.512	3576
476.590	3877
476.667	3519
476.745	3392
476.823	3487
476.901	3532
476.979	3812
477.056	3004
477.134	3840
477.212	3177
477.290	3457
477.367	3736
477.445	4212
477.523	3734
477.601	2919
477.678	3559
477.756	3229
477.834	4706
477.911	4002
477.989	2966
478.066	3249
478.144	3110
478.222	3332
478.299	3155
478.377	3315
478.454	3540
478.532	3162
478.609	3505
478.687	4332
478.764	2839
478.842	3426
478.919	4215
478.997	3837
479.074	3248
479.152	3693
479.229	3277
479.307	3683
479.384	2701
479.461	3245
479.539	3581
479.616	3219
479.694	3019
479.771	3821
479.848	2966
479.926	2212
480.003	4832
480.080	3735
480.157	3872
480.235	3257
480.312	4012
480.389	3680
480.467	3867
480.544	4391
480.621	4929
480.698	5634
480.775	4922
480.853	4852
480.930	4058
481.007	4293
481.084	3548
481.161	4416
481.238	4330
481.315	3856
481.392	4484
481.470	5026
481.547	4267
481.624	4329
481.701	4129
481.778	5483
481.855	4684
481.932	4645
482.009	6441
482.086	6572
482.163	7496
482.240	9761
482.317	9941
482.393	7907
482.470	6803
482.547	6723
482.624	6366
482.701	5655
482.778	4784
482.855	4592
482.932	4867
483.009	5656
483.085	8492
483.162	7836
483.239	10469
483.316	9459
483.393	11159
483.469	8066
483.546	6987
483.623	5862
483.699	5182
483.776	4244
483.853	4357
483.930	4594
484.006	3983
484.083	5833
484.160	5534
484.236	5422
484.313	5701
484.389	4880
484.466	7621
484.543	9598
484.619	12896
484.696	17022
484.772	9720
484.849	7245
484.925	6301
485.002	5835
485.078	4997
485.155	4649
485.231	4096
485.308	4647
485.384	4182
485.461	4613
485.537	4467
485.614	4950
485.690	4259
485.766	4406
485.843	4006
485.919	4229
485.995	4678
486.072	4312
486.148	3753
486.224	4537
486.301	4400
486.377	4331
486.453	3892
486.530	4895
486.606	5187
486.682	4637
486.758	5104
486.835	4782
486.911	4509
486.987	6788
487.063	8195
487.139	7749
487.215	8546
487.292	11282
487.368	13280
487.444	14795
487.520	21994
487.596	33438
487.672	100574
487.748	334134
487.824	509740
487.900	158837
487.976	35812
488.052	17970
488.128	12871
488.204	8581
488.280	8316
488.356	6297
488.432	5849
488.508	7091
488.584	5256
488.660	5844
488.736	5581
488.812	4036
488.888	4356
488.964	4187
489.039	5129
489.115	6733
489.191	5926
489.267	4654
489.343	3783
489.418	4946
489.494	3856
489.570	3317
489.646	5296
489.722	4676
489.797	5012
489.873	5189
489.949	5318
490.024	4408
490.100	4878
490.176	5377
490.251	5075
490.327	4665
490.403	4684
490.478	4998
490.554	4858
490.629	4312
490.705	4415
490.781	5181
490.856	3651
490.932	4201
491.007	4636
491.083	3620
491.158	4354
491.234	4298
491.309	5094
491.385	2952
491.460	3961
491.536	4683
491.611	3774
491.686	5056
491.762	4403
491.837	4809
491.913	4871
491.988	6299
492.063	6557
492.139	5505
492.214	4581
492.289	3962
492.365	3785
492.440	3691
492.515	3459
492.590	3844
492.666	3525
492.741	3545
492.816	4619
492.891	3406
492.967	3244
493.042	4272
493.117	3647
493.192	3787
493.267	5300
493.342	8249
493.418	9878
493.493	4057
493.568	4161
493.643	4372
493.718	4006
493.793	3574
493.868	4076
493.943	4135
494.018	4724
494.093	3706
494.168	4489
494.243	3529
494.318	4144
494.393	4162
494.468	4441
494.543	3749
494.618	4557
494.693	3317
494.768	3971
494.842	4249
494.917	5042
494.992	4660
495.067	4071
495.142	4391
495.217	4386
495.292	4004
495.366	4753
495.441	3495
495.516	4670
495.591	4451
495.665	7202
495.740	11760
495.815	7372
495.890	4537
495.964	2664
496.039	6809
496.114	4970
496.188	6443
496.263	4835
496.338	4340
496.412	4432
496.487	4596
496.561	5303
496.636	4587
496.710	4130
496.785	2885
496.860	4324
496.934	3781
497.009	5310
497.083	4433
497.158	5276
497.232	5356
497.307	5213
497.381	5912
497.455	6585
497.530	5587
497.604	4830
497.679	4301
497.753	4547
497.827	4299
497.902	3662
497.976	5594
498.050	6571
498.125	11897
498.199	11429
498.273	5871
498.348	5738
498.422	5748
498.496	6893
498.570	8485
498.645	4585
498.719	2059
498.793	4433
498.867	4744
498.941	4390
499.016	6598
499.090	10367
499.164	7196
499.238	5600
499.312	5736
499.386	5818
499.460	5579
499.534	7533
499.609	10033
499.683	6582
499.757	4231
499.831	4697
499.905	7546
499.979	7633
500.053	4495
500.127	4944
500.201	3647
500.275	5089
500.349	5102
500.422	5208
500.496	6381
500.570	8647
500.644	12721
500.718	13233
500.792	5972
500.866	3558
500.940	2437
501.013	3906
501.087	4097
501.161	4473
501.235	3241
501.309	5741
501.382	6120
501.456	7880
501.530	3954
501.603	2954
501.677	3444
501.751	2148
501.825	4770
501.898	4150
501.972	4276
502.046	4133
502.119	3442
502.193	3685
502.266	3977
502.340	4246
502.413	3951
502.487	4297
502.561	3326
502.634	4978
502.708	4495
502.781	2864
502.855	4587
502.928	3258
503.002	4077
503.075	3235
503.149	3421
503.222	4014
503.295	2528
503.369	4816
503.442	3996
503.516	6618
503.589	8712
503.662	8519
503.736	9974
503.809	12203
503.882	15814
503.956	26438
504.029	61048
504.102	192640
504.175	292070
504.249	107001
504.322	32374
504.395	15882
504.468	11549
504.542	7237
504.615	5455
504.688	6900
504.761	2727
504.834	4763
504.907	4847
504.980	4503
505.053	3004
505.127	1584
505.200	4890
505.273	2681
505.346	2476
505.419	2815
505.492	3981
505.565	2526
505.638	2789
505.711	1984
505.784	1054
505.857	2021
505.930	3980
506.003	1362
506.076	3938
506.149	2137
506.221	1267
506.294	4069
506.367	1112
506.440	3488
506.513	3207
506.586	2828
506.659	1609
506.731	2525
506.804	2203
506.877	1539
506.950	2386
507.022	3341
507.095	670
507.168	2214
507.241	2656
507.313	2147
507.386	1980
507.459	3198
507.531	1770
507.604	870
507.677	2475
507.749	693
507.822	2759
507.894	1761
507.967	3373
508.040	1603
508.112	2646
508.185	2832
508.257	1581
508.330	3748
508.402	2565
508.475	1926
508.547	1823
508.620	2458
508.692	2227
508.765	3050
508.837	1731
508.909	2749
508.982	1686
509.054	3112
509.127	1637
509.199	2986
509.271	1129
509.344	1739
509.416	1711
509.488	1778
509.560	2032
509.633	3088
509.705	2005
509.777	2315
509.849	3146
509.922	1042
509.994	1971
510.066	3383
510.138	991
510.210	4347
510.283	1439
510.355	2393
510.427	2487
510.499	1940
510.571	2310
510.643	1225
510.715	3048
510.787	154
510.859	2517
510.931	2362
511.003	2507
511.076	2761
511.148	837
511.219	1943
511.291	2901
511.363	3169
511.435	1946
511.507	1565
511.579	3396
511.651	3271
511.723	1683
511.795	1344
511.867	1304
511.939	2068
512.010	1634
512.082	3225
512.154	1259
512.226	2082
512.298	2578
512.369	2518
512.441	3110
512.513	3060
512.585	897
512.656	2674
512.728	1551
512.800	2278
512.871	2382
512.943	2920
513.015	1005
513.086	3454
513.158	3115
513.230	745
513.301	2344
513.373	3230
513.444	2147
513.516	2947
513.588	2754
513.659	2979
513.731	2363
513.802	628
513.874	4103
513.945	3833
514.016	2094
514.088	3364
514.159	1981
514.231	2352
514.302	2983
514.374	3217
514.445	1022
514.516	4721
514.588	2137
514.659	2698
514.730	1701
514.802	4338
514.873	796
514.944	5149
515.016	3358
515.087	1779
515.158	2990
515.229	4032
515.301	1188
515.372	4696
515.443	2632
515.514	3496
515.585	3068
515.656	4851
515.728	4058
515.799	3262
515.870	4497
515.941	5758
516.012	4432
516.083	7614
516.154	6914
516.225	10670
516.296	13614
516.367	14127
516.438	18020
516.509	24338
516.580	43792
516.651	183423
516.722	601331
516.793	237568
516.864	37061
516.935	31754
517.006	38264
517.077	54764
517.148	148996
517.219	714921
517.289	1014750
517.360	156644
517.431	34922
517.502	19400
517.573	17530
517.643	15797
517.714	15008
517.785	17648
517.856	19752
517.926	28191
517.997	34786
518.068	42372
518.138	62119
518.209	118541
518.280	470809
518.350	1453266
518.421	581232
518.492	87923
518.562	47608
518.633	45845
518.703	59792
518.774	140301
518.845	379354
518.915	368580
518.986	98099
519.056	37036
519.127	22864
519.197	17465
519.268	13614
519.338	11502
519.408	7733
519.479	7569
519.549	4698
519.620	7494
519.690	5184
519.760	5381
519.831	4401
519.901	3729
519.971	4023
520.042	4130
520.112	2532
520.182	5623
520.253	3811
520.323	2971
520.393	2581
520.463	4698
520.534	698
520.604	6156
520.674	4226
520.744	2252
520.814	2528
520.885	3862
520.955	3724
521.025	4435
521.095	3332
521.165	4087
521.235	2483
521.305	2435
521.375	4045
521.445	4049
521.515	2902
521.585	3275
521.655	1627
521.725	3704
521.795	3311
521.865	905
521.935	4352
522.005	2555
522.075	2681
522.145	3385
522.215	2212
522.285	2934
522.355	3082
522.424	4094
522.494	2768
522.564	3991
522.634	4292
522.704	7765
522.774	3612
522.843	4319
522.913	3314
522.983	2848
523.053	1887
523.122	3934
523.192	3168
523.262	5198
523.331	4352
523.401	3824
523.471	3200
523.540	4102
523.610	1902
523.680	4435
523.749	4119
523.819	4307
523.888	3761
523.958	3352
524.027	3516
524.097	4249
524.166	3074
524.236	2757
524.305	6481
524.375	2157
524.444	2317
524.514	5582
524.583	4118
524.653	3488
524.722	5216
524.791	2781
524.861	5482
524.930	3208
524.999	3466
525.069	5680
525.138	4526
525.207	4783
525.277	6109
525.346	6261
525.415	7062
525.484	8053
525.554	8807
525.623	12726
525.692	15544
525.761	19321
525.830	25240
525.900	32865
525.969	53410
526.038	110207
526.107	241119
526.176	701569
526.245	560008
526.314	151981
526.383	333192
526.452	480698
526.522	655375
526.591	614274
526.660	95226
526.729	49595
526.797	54043
526.867	80541
526.935	256539
527.004	975044
527.073	629910
527.142	78414
527.211	27681
527.280	18516
527.349	12944
527.418	9899
527.487	8975
527.555	6727
527.624	5566
527.693	4517
527.762	7247
527.831	4618
527.899	5551
527.968	4548
528.037	3000
528.106	4320
528.174	4702
528.243	4790
528.312	4089
528.380	5215
528.449	3046
528.518	5717
528.586	3049
528.655	5223
528.723	3435
528.792	2708
528.861	3020
528.929	3076
528.998	4221
529.066	3455
529.135	3981
529.203	4326
529.272	2686
529.340	5098
529.409	5532
529.477	3043
529.545	3602
529.614	6731
529.682	2406
529.751	4652
529.819	6699
529.887	4781
529.956	3384
530.024	5584
530.092	3690
530.161	5717
530.229	5396
530.297	4555
530.365	5415
530.434	5159
530.502	4263
530.570	5663
530.638	2839
530.707	5841
530.775	6431
530.843	4483
530.911	4550
530.979	5897
531.047	5326
531.115	6263
531.183	4121
531.252	5396
531.320	4506
531.388	3715
531.456	5770
531.524	4075
531.592	6317
531.660	7309
531.728	5384
531.796	4155
531.864	5338
531.932	5387
532.000	5478
532.067	5882
532.135	5676
532.203	7098
532.271	5540
532.339	7288
532.407	8393
532.475	7702
532.542	6857
532.610	6389
532.678	5746
532.746	10402
532.814	14859
532.881	8372
532.949	7078
533.017	7057
533.084	6402
533.152	5657
533.220	6007
533.287	5930
533.355	6311
533.423	6879
533.490	6057
533.558	6614
533.625	6409
533.693	5836
533.761	6900
533.828	7320
533.896	5921
533.963	7884
534.031	8229
534.098	10356
534.166	11086
534.233	10689
534.300	12606
534.368	13426
534.435	12406
534.503	13750
534.570	15552
534.637	17647
534.705	21586
534.772	27346
534.840	62478
534.907	304016
534.974	396093
535.041	47769
535.109	17664
535.176	12731
535.243	11956
535.310	10753
535.378	9647
535.445	10706
535.512	10889
535.579	9393
535.646	9202
535.714	9996
535.781	12120
535.848	11126
535.915	11595
535.982	9898
536.049	9702
536.116	10791
536.183	9404
536.250	9212
536.317	9127
536.384	10182
536.451	10573
536.518	11021
536.585	8532
536.652	12000
536.719	11793
536.786	9831
536.853	9106
536.920	11302
536.987	11210
537.053	9678
537.120	14710
537.187	14985
537.254	11995
537.321	10854
537.388	12851
537.454	10912
537.521	11482
537.588	10636
537.654	11860
537.721	12218
537.788	12458
537.855	11148
537.921	11747
537.988	11100
538.055	12188
538.121	9477
538.188	10480
538.254	8547
538.321	9042
538.388	11369
538.454	12293
538.521	12650
538.587	12752
538.654	12941
538.720	10651
538.787	13116
538.853	12102
538.920	10533
538.986	9572
539.053	9513
539.119	10836
539.185	10640
539.252	12420
539.318	10934
539.385	14405
539.451	11722
539.517	12348
539.583	12798
539.650	12044
539.716	13715
539.782	11735
539.849	10857
539.915	11120
539.981	11030
540.047	10183
540.114	10866
540.180	12943
540.246	11872
540.312	13023
540.378	12880
540.444	13896
540.510	13479
540.576	15063
540.643	11730
540.709	10251
540.775	11908
540.841	11481
540.907	11730
540.973	11664
541.039	11393
541.105	11890
541.171	12147
541.237	12381
541.303	12411
541.369	14607
541.435	13145
541.500	12662
541.566	10356
541.632	11285
541.698	11069
541.764	12583
541.830	11549
541.896	10760
541.961	11578
542.027	10965
542.093	12194
542.159	13590
542.224	10313
542.290	13301
542.356	11751
542.421	12482
542.487	11348
542.553	10848
542.618	10663
542.684	11454
542.750	10949
542.815	12446
542.881	11560
542.947	13697
543.012	14261
543.078	11570
543.143	10551
543.209	11463
543.274	10314
543.340	11009
543.405	12777
543.471	12750
543.536	12380
543.602	12280
543.667	11166
543.732	12823
543.798	11407
543.863	12825
543.928	12835
543.994	11655
544.059	13513
544.124	13644
544.190	13215
544.255	13993
544.320	13648
544.386	11984
544.451	14407
544.516	14240
544.581	12300
544.646	14212
544.712	16650
544.777	14456
544.842	13966
544.907	12626
544.972	15085
545.037	13913
545.102	14610
545.168	15105
545.233	16037
545.298	15289
545.363	14292
545.428	16282
545.493	18168
545.558	17323
545.623	17470
545.688	16160
545.753	17806
545.818	17869
545.883	19758
545.947	19594
546.012	22022
546.077	20719
546.142	23098
546.207	23796
546.272	24840
546.337	24056
546.401	26667
546.466	26837
546.531	28206
546.596	30330
546.661	31182
546.725	35519
546.790	36201
546.855	38943
546.919	42055
546.984	48309
547.049	52300
547.113	58570
547.178	66453
547.243	74901
547.307	88468
547.372	98440
547.436	98801
547.501	103557
547.565	112878
547.630	101592
547.695	99373
547.759	98446
547.823	100235
547.888	103005
547.952	105390
548.017	107497
548.081	110031
548.146	110113
548.210	112777
548.274	123453
548.339	122234
548.403	109922
548.468	102577
548.532	101665
548.596	104072
548.660	103377
548.725	112952
548.789	124335
548.853	121334
548.917	113867
548.982	111888
549.046	100735
549.110	90814
549.174	93890
549.238	108715
549.303	121508
549.367	125442
549.431	118074
549.495	110524
549.559	110337
549.623	127276
549.687	140904
549.751	137473
549.815	165029
549.879	169014
549.943	159945
550.007	167314
550.071	166442
550.135	150131
550.199	140587
550.263	138617
550.327	129261
550.391	133051
550.455	149177
550.519	157089
550.582	168298
550.646	190116
550.710	192664
550.774	190686
550.838	195129
550.901	197780
550.965	212467
551.029	219774
551.093	238752
551.156	262974
551.220	309683
551.284	355006
551.347	267948
551.411	215257
551.475	200978
551.538	205838
551.602	193673
551.666	180101
551.729	169608
551.793	165642
551.856	163162
551.920	160296
551.983	160855
552.047	157325
552.110	159439
552.174	160662
552.237	164815
552.301	153840
552.364	144803
552.428	142037
552.491	146796
552.554	152955
552.618	149867
552.681	156032
552.745	156340
552.808	188036
552.871	219906
552.934	177390
552.998	156210
553.061	148843
553.124	142600
553.187	139899
553.251	144863
553.314	144578
553.377	145417
553.440	154337
553.503	158719
553.567	158127
553.630	154966
553.693	155191
553.756	156577
553.819	151064
553.882	146130
553.945	144716
554.008	146152
554.071	147220
554.134	149969
554.197	138801
554.260	135748
554.323	138254
554.386	140230
554.449	146915
554.512	147834
554.575	139937
554.638	139356
554.701	138114
554.764	138122
554.827	132220
554.889	127269
554.952	119148
555.015	116205
555.078	118980
555.141	121314
555.203	118066
555.266	116649
555.329	116791
555.391	111928
555.454	110892
555.517	106765
555.580	104399
555.642	99480
555.705	98475
555.768	96773
555.830	95651
555.893	88464
555.955	85987
556.018	84949
556.080	87054
556.143	89589
556.206	87578
556.268	84959
556.330	83232
556.393	81585
556.455	80843
556.518	77484
556.580	74933
556.643	71629
556.705	71297
556.767	68920
556.830	69403
556.892	67410
556.955	66445
557.017	65192
557.079	65034
557.142	62526
557.204	62997
557.266	63455
557.328	59894
557.391	55218
557.453	53752
557.515	53786
557.577	54609
557.639	55751
557.701	56405
557.764	55117
557.826	57928
557.888	60350
557.950	61934
558.012	70142
558.074	93755
558.136	213355
558.198	507330
558.260	187943
558.322	67247
558.384	66023
558.446	68718
558.508	73755
558.570	84159
558.632	97173
558.694	128334
558.756	223915
558.818	627281
558.880	1284174
558.942	549273
559.003	536341
559.065	261815
559.127	91254
559.189	84907
559.251	96651
559.312	143955
559.374	342952
559.436	978489
559.498	507309
559.559	109048
559.621	85922
559.683	101330
559.744	169123
559.806	530903
559.868	763558
559.929	172528
559.991	99543
560.052	167127
560.114	486290
560.176	315194
560.237	275230
560.299	452614
560.360	100668
560.422	36225
560.483	29797
560.545	26746
560.606	27086
560.667	24871
560.729	23357
560.790	22464
560.852	21318
560.913	20114
560.974	20463
561.036	20091
561.097	20427
561.158	19755
561.220	19970
561.281	18371
561.342	17384
561.403	17639
561.465	17434
561.526	19185
561.587	19211
561.648	16638
561.709	16738
561.771	16149
561.832	16887
561.893	15150
561.954	14825
562.015	15090
562.076	14799
562.137	15276
562.198	14481
562.259	15505
562.320	14783
562.381	14791
562.442	15253
562.503	13988
562.564	14201
562.625	14744
562.686	13593
562.747	13589
562.808	13549
562.869	12711
562.930	13700
562.991	12906
563.051	12555
563.112	13392
563.173	12581
563.234	12112
563.294	11508
563.355	11951
563.416	12571
563.477	12223
563.537	11981
563.598	11882
563.659	11669
563.720	11648
563.780	10852
563.841	11655
563.901	11470
563.962	11809
564.023	11483
564.083	11836
564.144	11281
564.204	12034
564.265	11425
564.325	11033
564.386	11846
564.446	10846
564.507	11157
564.567	9649
564.628	10770
564.688	10248
564.749	10515
564.809	10195
564.869	11192
564.930	9939
564.990	11118
565.050	10347
565.111	10214
565.171	9934
565.231	10650
565.292	11351
565.352	10268
565.412	11090
565.472	10106
565.532	9895
565.593	10087
565.653	9534
565.713	9356
565.773	10929
565.833	10918
565.893	11157
565.953	9518
566.013	9107
566.074	9262
566.134	9871
566.194	8552
566.254	10344
566.314	10117
566.374	9197
566.434	9573
566.494	9704
566.554	9269
566.614	9081
566.673	10078
566.733	11112
566.793	10159
566.853	10731
566.913	10135
566.973	10448
567.033	11207
567.092	9638
567.152	9580
567.212	11833
567.272	9783
567.331	10671
567.391	11359
567.451	11567
567.511	11055
567.570	10912
567.630	10514
567.690	10699
567.749	10015
567.809	10419
567.868	10544
567.928	10468
567.988	9936
568.047	10343
568.107	10244
568.166	10737
568.226	9731
568.285	11797
568.345	10828
568.404	10733
568.464	10108
568.523	11028
568.582	10811
568.642	10213
568.701	10322
568.761	9800
568.820	10462
568.879	11033
568.939	10799
568.998	9714
569.057	10325
569.116	10379
569.176	10497
569.235	9763
569.294	10283
569.353	9805
569.413	9500
569.472	9169
569.531	9566
569.590	9567
569.649	9503
569.708	9548
569.767	9841
569.827	9614
569.886	9664
569.945	9591
570.004	10262
570.063	9481
570.122	9783
570.181	10703
570.240	10407
570.299	10520
570.358	10698
570.417	11308
570.475	10389
570.534	11026
570.593	10134
570.652	11492
570.711	10299
570.770	10176
570.829	10583
570.887	10353
570.946	11468
571.005	11192
571.064	12256
571.122	15055
571.181	11436
571.240	10460
571.299	10420
571.357	10335
571.416	9388
571.475	9867
571.533	10290
571.592	10347
571.650	11687
571.709	11611
571.768	14773
571.826	14934
571.885	13062
571.943	11535
572.002	10507
572.060	10508
572.119	10191
572.177	10010
572.236	10020
572.294	10687
572.352	11637
572.411	11637
572.469	10196
572.528	10672
572.586	10165
572.644	9199
572.703	9368
572.761	9283
572.819	9115
572.877	9013
572.936	9402
572.994	8885
573.052	9678
573.110	9785
573.169	9505
573.227	10352
573.285	9967
573.343	10248
573.401	9112
573.459	10273
573.517	9994
573.576	10262
573.634	9869
573.692	10407
573.750	10305
573.808	9095
573.866	9508
573.924	9275
573.982	9434
574.040	9310
574.098	9880
574.155	8823
574.213	9245
574.271	9918
574.329	11313
574.387	9335
574.445	8376
574.503	9436
574.560	8062
574.618	9061
574.676	8436
574.734	8750
574.792	8470
574.849	8144
574.907	7422
574.965	7193
575.022	6309
575.080	7138
575.138	6691
575.195	6756
575.253	6249
575.311	6762
575.368	6917
575.426	5793
575.483	8491
575.541	6396
575.598	7288
575.656	7568
575.713	7130
575.771	8765
575.828	7335
575.886	7487
575.943	7728
576.001	7274
576.058	5881
576.115	5984
576.173	7236
576.230	7289
576.287	7755
576.345	7270
576.402	7178
576.459	7333
576.517	7137
576.574	6661
576.631	6245
576.688	6462
576.746	6225
576.803	6021
576.860	6211
576.917	6115
576.974	7006
577.031	6573
577.089	6957
577.146	5817
577.203	5557
577.260	6797
577.317	6124
577.374	6098
577.431	6374
577.488	5722
577.545	4911
577.602	6636
577.659	5311
577.716	5866
577.773	5141
577.830	5395
577.886	5934
577.943	5947
578.000	5364
578.057	5740
578.114	6423
578.171	6088
578.227	6095
578.284	5018
578.341	6098
578.398	6127
578.454	5370
578.511	6132
578.568	6195
578.625	5921
578.681	5671
578.738	5186
578.794	5521
578.851	6274
578.908	5917
578.964	6713
579.021	6187
579.077	5530
579.134	6120
579.190	6286
579.247	5425
579.303	5000
579.360	6836
579.416	5384
579.473	6189
579.529	6387
579.586	5918
579.642	6060
579.698	5638
579.755	6660
579.811	6188
579.867	6775
579.924	5787
579.980	5881
580.036	6294
580.093	7021
580.149	6721
580.205	6148
580.261	6703
580.317	6279
580.374	6997
580.430	7173
580.486	7765
580.542	7362
580.598	6466
580.619	6640
580.654	6944
580.692	7648
580.710	8002
580.765	6572
580.767	6526
580.823	7104
580.838	6990
580.879	6695
580.911	6910
580.935	7064
580.984	7924
580.991	8047
581.047	7680
581.057	7633
581.103	7387
581.130	6942
581.159	6454
581.203	6742
581.215	6822
581.270	5807
581.276	5840
581.326	6157
581.349	6395
581.382	6683
581.422	7298
581.438	7576
581.494	6086
581.494	6096
581.550	6724
581.567	6801
581.606	7020
581.640	7030
581.661	6970
581.713	7855
581.717	7935
581.773	7648
581.786	7679
581.829	7671
581.859	7685
581.885	7726
581.932	7462
581.940	7401
581.996	7495
582.004	7535
582.052	7742
582.077	7642
582.107	7526
582.150	8229
582.163	8424
582.219	7487
582.223	7471
582.274	7322
582.296	7493
582.330	7788
582.368	8048
582.386	8184
582.441	8037
582.441	8032
582.497	7934
582.514	7812
582.552	7801
582.587	8318
582.608	8589
582.659	8616
582.663	8612
582.719	8966
582.732	8825
582.774	8471
582.805	8494
582.830	8443
582.877	9147
582.885	9270
582.941	9100
582.950	9072
582.996	8994
583.023	9268
583.052	9668
583.095	9985
583.107	10016
583.162	9925
583.168	9976
583.218	10223
583.240	9742
583.273	8932
583.313	8880
583.328	9068
583.384	9394
583.385	9406
583.439	9120
583.458	9156
583.494	9457
583.531	9806
583.549	10016
583.603	9620
583.605	9603
583.660	10058
583.676	9985
583.715	9915
583.748	10122
583.770	10219
583.820	9934
583.825	9888
583.881	10036
583.893	10068
583.936	10641
583.965	10128
583.991	9515
584.038	10224
584.046	10358
584.101	10452
584.110	10472
584.156	10518
584.183	10630
584.211	11008
584.255	11224
584.266	11221
584.321	11391
584.328	11420
584.376	11846
584.400	12158
584.431	12408
584.472	11635
584.486	11477
584.541	13222
584.545	13209
584.596	12630
584.617	12656
584.651	13460
584.689	14446
584.706	14593
584.761	14751
584.762	14740
584.816	14815
584.834	15128
584.871	15874
584.906	15924
584.926	15981
584.978	17065
584.980	17125
585.035	18643
585.051	19036
585.090	20416
585.123	21695
585.145	22492
585.195	24638
585.200	24965
585.254	29193
585.267	30135
585.309	32828
585.340	35795
585.364	38468
585.412	44047
585.419	45072
585.473	57186
585.484	60373
585.528	78010
585.556	97595
585.583	132819
585.628	217001
585.637	245101
585.692	502615
585.700	545535
585.747	694765
585.772	581684
585.801	366045
585.845	137908
585.856	106243
585.910	54883
585.917	50325
585.965	39087
585.989	35275
586.019	32398
586.061	28998
586.074	28350
586.128	27484
586.133	27365
586.183	26145
586.205	25583
586.237	25634
586.277	25269
586.292	25149
586.346	25654
586.349	25617
586.401	25219
586.421	25107
586.455	25128
586.493	25105
586.509	25329
586.564	25442
586.565	25439
586.618	28271
586.637	28980
586.672	31475
586.709	35440
586.727	36999
586.781	40121
586.781	40165
586.835	32587
586.853	30811
586.889	28736
586.925	27060
586.944	26646
586.996	26740
586.998	26807
587.052	26634
587.068	26587
587.106	27516
587.140	28268
587.161	28269
587.212	28076
587.215	28156
587.269	28473
587.284	28612
587.323	29618
587.356	30408
587.377	30831
587.427	31436
587.431	31554
587.485	32463
587.499	32408
587.539	33600
587.571	34956
587.593	35448
587.643	36520
587.648	36752
587.702	37441
587.715	37701
587.755	37815
587.786	37025
587.810	36774
587.858	37571
587.864	37911
587.917	39210
587.930	39432
587.971	39531
588.001	39894
588.025	39782
588.073	38373
588.079	38556
588.133	40268
588.145	40456
588.187	40371
588.217	40008
588.241	40613
588.288	41968
588.295	42310
588.348	44143
588.360	44464
588.402	45025
588.431	45055
588.456	45761
588.503	47212
588.510	47783
588.564	51917
588.575	52536
588.617	55113
588.646	56894
588.671	59287
588.718	64702
588.725	66416
588.778	79552
588.789	82558
588.832	120182
588.861	148908
588.886	205773
588.932	327752
588.939	337662
588.993	401912
589.004	398982
589.047	235083
589.075	140898
589.100	112536
589.147	71525
589.154	70534
589.207	62699
589.218	61124
589.261	62211
589.290	62808
589.314	64967
589.361	69785
589.368	72168
589.421	91421
589.433	96095
589.475	156912
589.504	202995
589.528	255738
589.576	366829
589.582	356609
589.635	202889
589.647	172140
589.689	105746
589.718	65669
589.742	61960
589.790	54462
589.795	54394
589.849	52608
589.861	52046
589.902	51153
589.932	50182
589.955	49961
590.004	49315
590.009	49489
590.062	49328
590.075	49213
590.115	49752
590.146	49791
590.168	49702
590.218	49131
590.222	49363
590.275	50489
590.289	50601
590.328	52004
590.360	52702
590.381	53282
590.431	54238
590.435	54408
590.488	54298
590.503	54053
590.541	54994
590.574	55659
590.594	56486
590.645	57714
590.647	57991
590.700	60252
590.716	60809
590.753	62391
590.787	63492
590.806	64342
590.859	65809
590.859	66045
590.912	67119
590.930	67215
590.965	68030
591.001	68428
591.018	68234
591.071	66979
591.072	66740
591.124	67371
591.143	67311
591.177	67849
591.214	68105
591.230	68764
591.283	70051
591.285	69856
591.336	68096
591.356	67124
591.389	68098
591.427	68659
591.442	68867
591.495	68722
591.498	68471
591.547	69812
591.569	70177
591.600	70827
591.640	71022
591.653	71667
591.706	73241
591.711	73160
591.759	75384
591.782	76168
591.811	78103
591.853	80174
591.864	80332
591.917	79605
591.924	79231
591.969	80286
591.995	80384
592.022	80914
592.066	81168
592.075	81818
592.127	83959
592.137	84057
592.180	85793
592.208	86451
592.233	88105
592.279	90294
592.285	90907
592.338	93325
592.350	93526
592.390	94315
592.421	94324
592.443	95038
592.491	95480
592.495	95950
592.548	97592
592.562	97686
592.600	98453
592.633	98451
592.653	98968
592.704	98815
592.705	99439
592.775	102146
592.846	104228
592.916	105808
592.987	106974
593.058	108087
593.128	111067
593.199	110441
593.270	111439
593.341	116413
593.411	120738
593.482	126202
593.553	127597
593.623	127263
593.694	130325
593.764	132809
593.835	130296
593.906	130633
593.976	133316
594.047	136849
594.117	142971
594.188	144858
594.258	144695
594.329	143437
594.399	147993
594.470	153119
594.540	157218
594.611	160529
594.681	159451
594.751	157207
594.822	164312
594.892	171216
594.963	175661
595.033	180463
595.103	184900
595.174	185797
595.244	191373
595.314	196684
595.384	201479
595.455	206072
595.525	214885
595.595	222753
595.665	220888
595.736	215992
595.806	222120
595.876	223962
595.946	226121
596.016	235834
596.087	244239
596.157	241600
596.227	243768
596.297	258095
596.367	273515
596.437	288593
596.507	288398
596.577	287413
596.647	297298
596.717	312736
596.787	316812
596.857	314348
596.927	315988
596.997	316013
597.067	321571
597.137	325172
597.207	330648
597.277	329661
597.347	316661
597.417	309068
597.487	309449
597.557	317078
597.626	324589
597.696	326845
597.766	325886
597.836	303822
597.906	291397
597.975	288519
598.045	293687
598.115	304060
598.185	327969
598.254	364156
598.324	394457
598.394	399560
598.464	387838
598.533	382085
598.603	356143
598.672	341816
598.742	352709
598.812	351560
598.881	362237
598.951	360900
599.020	367684
599.090	382183
599.159	386779
599.229	371440
599.299	365598
599.368	376571
599.437	368536
599.507	340869
599.576	328875
599.646	325735
599.715	320130
599.785	319621
599.854	310453
599.924	304533
599.993	303900
600.062	312620
600.132	319929
600.201	338612
600.270	389380
600.340	414349
600.409	404819
600.478	398509
600.547	411630
600.617	367298
600.686	298415
600.755	270194
600.824	257445
600.894	250988
600.963	253458
601.032	252049
601.101	242394
601.170	232127
601.239	225795
601.308	223594
601.378	227174
601.447	227799
601.516	229805
601.585	231135
601.654	234724
601.723	236994
601.792	242004
601.861	251370
601.930	259065
601.999	261791
602.068	260851
602.137	263545
602.206	268048
602.275	272792
602.343	275063
602.412	274661
602.481	281358
602.550	284176
602.619	287890
602.688	293725
602.756	295424
602.825	297126
602.894	306811
602.963	309484
603.032	315653
603.100	315013
603.169	316015
603.238	320337
603.307	319147
603.375	322330
603.444	329391
603.513	332743
603.581	337465
603.650	344106
603.719	332769
603.787	341829
603.856	352264
603.924	360819
603.993	370840
604.061	385639
604.130	402827
604.198	409127
604.267	415162
604.335	424310
604.404	426622
604.472	434974
604.541	437095
604.609	441824
604.678	445825
604.746	445360
604.815	461118
604.883	463351
604.951	465364
605.020	471818
605.088	480891
605.156	487609
605.225	493950
605.293	491604
605.361	496508
605.429	494660
605.498	510559
605.566	518835
605.634	545482
605.702	564935
605.771	578769
605.839	577143
605.907	567655
605.975	550232
606.043	541989
606.111	544042
606.180	545223
606.248	535143
606.316	533336
606.384	534232
606.452	532122
606.520	544086
606.588	560510
606.656	563135
606.724	554230
606.792	524707
606.860	478801
606.928	438754
606.996	418713
607.064	413257
607.132	425000
607.200	448972
607.267	462194
607.335	473167
607.403	483398
607.471	465209
607.539	452418
607.607	451771
607.674	400027
607.742	396040
607.810	393752
607.878	395287
607.946	407547
608.013	424764
608.081	433254
608.149	435413
608.216	453278
608.284	462649
608.352	465914
608.419	461136
608.487	450422
608.555	441800
608.622	457678
608.690	487983
608.757	531777
608.825	538477
608.893	526330
608.960	494721
609.028	477305
609.095	477523
609.163	480116
609.230	425700
609.298	394083
609.365	416456
609.432	452299
609.500	484364
609.567	554313
609.635	623390
609.702	648466
609.769	614189
609.837	480347
609.904	419424
609.971	424323
610.039	442542
610.106	492718
610.173	685329
610.241	1117107
610.308	766757
610.375	487039
610.442	447100
610.509	433732
610.577	438729
610.644	446231
610.711	459155
610.778	471508
610.845	493754
610.912	520521
610.980	538765
611.047	535045
611.114	528063
611.181	515488
611.248	513452
611.315	542305
611.382	552302
611.449	572722
611.516	575185
611.583	572370
611.650	573038
611.717	575255
611.784	583603
611.851	596206
611.918	606969
611.984	651187
612.051	742908
612.118	1000879
612.185	1529825
612.252	1188527
612.319	745741
612.386	694346
612.452	658939
612.519	637339
612.586	625750
612.653	642711
612.719	663905
612.786	645846
612.853	603738
612.919	596232
612.986	602288
613.053	572076
613.120	538940
613.186	525822
613.253	524539
613.319	525008
613.386	531748
613.453	538102
613.519	540920
613.586	527918
613.652	538200
613.719	531817
613.785	542802
613.852	546939
613.918	541192
613.985	547568
614.051	566128
614.118	562024
614.184	542102
614.250	542212
614.317	555905
614.383	548063
614.449	559778
614.516	555514
614.582	556614
614.648	547386
614.715	545391
614.781	535530
614.847	536070
614.914	533871
614.980	521398
615.046	521874
615.112	539618
615.179	537119
615.245	544216
615.311	535853
615.377	543357
615.443	550468
615.509	555519
615.575	565076
615.642	558112
615.708	567368
615.774	587595
615.840	605753
615.906	608228
615.972	652835
616.038	777015
616.104	1119408
616.170	1638993
616.236	1433104
616.302	863480
616.368	773800
616.434	647880
616.500	618472
616.565	650669
616.631	738995
616.697	663664
616.763	664143
616.829	825508
616.895	1174084
616.961	1089610
617.026	677125
617.092	584174
617.158	568789
617.224	560149
617.289	528451
617.355	509862
617.421	507182
617.487	506806
617.552	488492
617.618	485244
617.684	488911
617.749	491126
617.815	473315
617.880	467720
617.946	466056
618.012	473033
618.077	484365
618.143	460388
618.208	465182
618.274	498731
618.339	498014
618.405	418343
618.470	420105
618.536	418006
618.601	414205
618.667	385316
618.732	369643
618.798	366195
618.863	365377
618.928	365695
618.994	368456
619.059	364846
619.124	366111
619.190	362610
619.255	362311
619.320	361981
619.386	364874
619.451	362110
619.516	350375
619.581	359052
619.647	367851
619.712	369402
619.777	353182
619.842	355937
619.907	363672
619.972	371158
620.038	368974
620.103	358133
620.168	359821
620.233	367076
620.298	368717
620.363	373338
620.428	384547
620.493	394181
620.558	396976
620.623	400464
620.688	398583
620.753	392134
620.818	401664
620.883	402899
620.948	399254
621.013	394184
621.078	386999
621.143	391763
621.207	390404
621.272	385326
621.337	376090
621.402	372676
621.467	369541
621.532	367773
621.596	370889
621.661	361018
621.726	359932
621.791	362561
621.855	358887
621.920	359888
621.985	366172
622.049	372371
622.114	371142
622.179	376816
622.243	383762
622.308	395384
622.373	406948
622.437	396650
622.502	381376
622.566	376715
622.631	377688
622.695	383383
622.760	378585
622.824	381378
622.889	381807
622.953	379965
623.018	402591
623.082	406197
623.147	402557
623.211	390806
623.276	392237
623.340	380136
623.404	372621
623.469	369806
623.533	376564
623.597	367952
623.662	365345
623.726	341830
623.790	324644
623.854	313494
623.919	321086
623.983	325887
624.047	330276
624.111	332051
624.176	337152
624.240	337632
624.304	347978
624.368	338164
624.432	339141
624.496	345782
624.560	360750
624.625	362763
624.689	361562
624.753	376715
624.817	357799
624.881	353623
624.945	321838
625.009	310637
625.073	317417
625.137	327294
625.201	339074
625.265	338659
625.329	326588
625.393	331101
625.456	335514
625.520	343739
625.584	347881
625.648	353378
625.712	362741
625.776	356814
625.839	335905
625.903	288834
625.967	273124
626.031	290748
626.095	338228
626.158	314973
626.222	253680
626.286	239393
626.349	232639
626.413	218256
626.477	214178
626.540	218796
626.604	215469
626.668	211346
626.731	210316
626.795	207865
626.858	211225
626.922	207357
626.986	204246
627.049	204518
627.113	213346
627.176	205543
627.240	199935
627.303	200723
627.366	197630
627.430	200511
627.493	197280
627.557	192655
627.620	198710
627.684	204131
627.747	204588
627.810	186190
627.874	169181
627.937	163389
628.000	170433
628.064	163884
628.127	149512
628.190	147534
628.253	142905
628.317	137503
628.380	130797
628.443	129015
628.506	129219
628.569	121917
628.632	117975
628.696	118245
628.759	115913
628.822	112606
628.885	111045
628.948	106787
629.011	106117
629.074	103227
629.137	100165
629.200	99142
629.263	97820
629.326	95045
629.389	96027
629.452	93759
629.515	93537
629.578	92023
629.641	93607
629.704	92431
629.767	91649
629.830	88062
629.892	88662
629.955	85992
630.018	88944
630.081	86976
630.144	87660
630.207	85253
630.269	88670
630.332	82062
630.395	82839
630.458	80962
630.520	78124
630.583	79483
630.646	82165
630.708	81044
630.771	82033
630.834	87317
630.896	85126
630.959	84842
631.021	81290
631.084	79568
631.146	81694
631.209	81919
631.272	80093
631.334	81255
631.397	82242
631.459	80828
631.522	83542
631.584	83031
631.646	87214
631.709	87060
631.771	87256
631.834	84694
631.896	84424
631.958	79404
632.021	80405
632.083	77144
632.145	79016
632.208	77836
632.270	78804
632.332	74929
632.395	74981
632.457	77626
632.519	74454
632.581	76259
632.643	74193
632.706	75805
632.768	74277
632.830	76401
632.892	76781
632.954	76827
633.016	79114
633.078	77040
633.141	77623
633.203	76472
633.265	76306
633.327	74502
633.389	75249
633.451	76666
633.513	76358
633.575	77643
633.637	75512
633.698	76937
633.760	80263
633.822	82496
633.884	82657
633.946	83274
634.008	84607
634.070	83377
634.132	85118
634.193	87604
634.255	94956
634.317	94838
634.379	94931
634.441	86421
634.502	82988
634.564	77588
634.626	74940
634.687	70887
634.749	70667
634.811	69440
634.873	69800
634.934	70756
634.996	72950
635.057	70583
635.119	72148
635.181	72246
635.242	72708
635.304	70623
635.365	75031
635.427	70376
635.488	71268
635.550	69941
635.611	71349
635.673	68184
635.734	74257
635.796	73333
635.857	78908
635.918	79535
635.980	86801
636.041	87879
636.102	91909
636.164	93412
636.225	91253
636.286	80195
636.348	75138
636.409	71495
636.470	71016
636.531	70264
636.593	68661
636.654	68037
636.715	65955
636.776	66112
636.838	65755
636.899	65010
636.960	64271
637.021	62816
637.082	62342
637.143	61426
637.204	60954
637.265	60382
637.326	62938
637.387	64771
637.448	62334
637.509	63069
637.570	62412
637.631	62510
637.692	59154
637.753	59336
637.814	59711
637.875	58658
637.936	60068
637.997	58839
638.058	57527
638.119	58383
638.179	60130
638.240	59759
638.301	60631
638.362	57971
638.423	56512
638.483	57023
638.544	54594
638.605	56192
638.666	56108
638.726	56631
638.787	56866
638.848	56443
638.908	56343
638.969	53570
639.030	52797
639.090	51874
639.151	53183
639.211	54902
639.272	54160
639.332	54426
639.393	55055
639.453	55493
639.514	57299
639.574	52272
639.635	49474
639.695	51151
639.756	50427
639.816	50008
639.877	49989
639.937	50006
639.997	51227
640.058	47765
640.118	50102
640.178	50225
640.239	49628
640.299	50052
640.359	50108
640.420	52601
640.480	55755
640.540	58151
640.600	59360
640.661	54175
640.721	52459
640.781	53147
640.841	48647
640.901	50957
640.961	50921
641.021	51888
641.082	52341
641.142	49520
641.202	51074
641.262	47143
641.322	49589
641.382	47766
641.442	48738
641.502	47272
641.562	49367
641.622	48464
641.682	51253
641.742	53865
641.802	51521
641.861	47315
641.921	46163
641.981	45040
642.041	43590
642.101	44043
642.161	42946
642.221	44046
642.280	45094
642.340	44705
642.400	45208
642.460	46673
642.519	47136
642.579	45830
642.639	46771
642.698	45284
642.758	49239
642.818	45477
642.877	46533
642.937	45742
642.997	46209
643.056	45806
643.116	44095
643.175	47024
643.235	47220
643.294	48289
643.354	48777
643.414	50150
643.473	54546
643.532	57816
643.592	69883
643.651	90473
643.711	132492
643.770	225131
643.830	480283
643.889	791518
643.948	271104
644.008	89068
644.067	63747
644.126	53376
644.186	49559
644.245	47221
644.304	44170
644.363	46807
644.423	42301
644.482	43475
644.541	45586
644.600	44300
644.659	52767
644.719	57766
644.778	75261
644.837	111669
644.896	205549
644.955	401761
645.014	144532
645.073	57098
645.132	49708
645.191	47390
645.250	46459
645.309	48241
645.368	51765
645.427	59568
645.486	90801
645.545	135486
645.604	54572
645.663	42718
645.722	42636
645.781	45573
645.840	48505
645.898	51259
645.957	63964
646.016	82074
646.075	126181
646.134	214754
646.192	498373
646.251	620808
646.310	152447
646.369	68683
646.427	62045
646.486	50394
646.545	45363
646.603	41929
646.662	41783
646.721	39581
646.779	38884
646.838	39151
646.896	46120
646.955	52691
647.014	74880
647.072	124613
647.131	298007
647.189	142969
647.248	43195
647.306	37257
647.365	37738
647.423	32752
647.481	35747
647.540	32141
647.598	34045
647.657	34020
647.715	33941
647.773	30899
647.832	32626
647.890	29208
647.948	30137
648.007	29590
648.065	29225
648.123	27860
648.181	29883
648.240	28119
648.298	27325
648.356	27297
648.414	28406
648.472	27055
648.531	27876
648.589	27044
648.647	26199
648.705	25757
648.763	26188
648.821	26633
648.879	26579
648.937	28183
648.995	30850
649.053	35888
649.111	44802
649.169	63559
649.227	102562
649.285	197400
649.343	478145
649.401	227489
649.459	51173
649.516	35192
649.574	30741
649.632	31374
649.690	34559
649.748	39078
649.806	51923
649.863	87866
649.921	223524
649.979	138457
650.037	33062
650.094	23564
650.152	23260
650.210	22111
650.268	23183
650.325	20615
650.383	20995
650.440	18821
650.498	20616
650.556	19958
650.613	19640
650.671	19855
650.728	20085
650.786	20251
650.843	25406
650.901	19749
650.958	18641
651.016	18281
651.073	19087
651.131	16575
651.188	17090
651.246	16812
651.303	15660
651.360	16302
651.418	16683
651.475	16975
651.532	16849
651.590	17525
651.647	15606
651.704	16538
651.762	16767
651.819	15769
651.876	15825
651.933	15203
651.990	16957
652.048	13699
652.105	15373
652.162	15372
652.219	14520
652.276	14995
652.333	15424
652.390	13338
652.448	15257
652.505	14027
652.562	15117
652.619	13444
652.676	14143
652.733	14731
652.790	14095
652.847	12504
652.904	14271
652.961	12445
653.017	12974
653.074	14195
653.131	13825
653.188	13366
653.245	14662
653.302	12780
653.359	13840
653.415	13851
653.472	13409
653.529	13392
653.586	12890
653.642	13094
653.699	14116
653.756	11803
653.813	13111
653.869	13003
653.926	12844
653.983	12726
654.039	12765
654.096	11773
654.152	13516
654.209	10922
654.266	12482
654.322	11390
654.379	12868
654.435	13134
654.492	11971
654.548	12247
654.605	12368
654.661	12367
654.717	12539
654.774	12266
654.830	12003
654.887	11795
654.943	12162
655.000	11553
655.056	11945
655.112	12355
655.168	11419
655.225	12415
655.281	13572
655.337	12375
655.394	11890
655.450	11175
655.506	11799
655.562	11372
655.618	13172
655.675	10118
655.731	12079
655.787	10589
655.843	13006
655.899	11440
655.955	12876
656.011	11498
656.067	11632
656.123	11932
656.179	11934
656.235	13170
656.291	11348
656.347	12485
656.403	11368
656.459	11882
656.515	12073
656.571	11164
656.627	11441
656.683	11379
656.739	11866
656.795	11468
656.850	11609
656.906	11337
656.962	12407
657.018	12395
657.074	14654
657.129	17793
657.185	26887
657.241	55894
657.297	29334
657.352	12496
657.408	11680
657.464	11634
657.519	11638
657.575	9585
657.630	11094
657.686	9514
657.742	10754
657.797	10114
657.853	10805
657.908	11028
657.964	10102
658.019	10225
658.075	11604
658.130	10949
658.186	9393
658.241	10052
658.297	10161
658.352	9712
658.407	10506
658.463	9332
658.518	10095
658.573	9583
658.629	9968
658.684	9202
658.739	10632
658.795	7963
658.850	10828
658.905	8964
658.960	9911
659.016	8912
659.071	10227
659.126	9416
659.181	9140
659.236	10012
659.291	10408
659.346	8977
659.401	10160
659.457	9822
659.512	9208
659.567	10285
659.622	9832
659.677	8953
659.732	8711
659.787	8945
659.842	8550
659.897	7797
659.952	8899
660.007	8941
660.061	8646
660.116	8528
660.171	9408
660.226	8876
660.281	10163
660.336	7785
660.391	9662
660.445	7649
660.500	9052
660.555	9199
660.610	8806
660.664	9100
660.719	8997
660.774	8415
660.828	9108
660.883	8189
660.938	9140
660.992	8029
661.047	8581
661.101	7564
661.156	9230
661.211	7409
661.265	8827
661.320	8031
661.374	8403
661.429	8020
661.483	8869
661.538	8019
661.592	9336
661.647	7576
661.701	8939
661.755	7011
661.810	8153
661.864	7268
661.919	8032
661.973	8343
662.027	8508
662.081	6866
662.136	7703
662.190	8285
662.244	8208
662.299	7642
662.353	8415
662.407	7782
662.461	8357
662.515	7449
662.569	8614
662.624	7699
662.678	7626
662.732	7228
662.786	7932
662.840	7545
662.894	8340
662.948	7123
663.002	8531
663.056	7971
663.110	6997
663.164	7804
663.218	7504
663.272	8628
663.326	8812
663.380	7797
663.434	7818
663.488	7475
663.542	7912
663.595	8062
663.649	8481
663.703	7402
663.757	8046
663.811	7616
663.864	7461
663.918	8144
663.972	8573
664.026	6965
664.079	7898
664.133	8465
664.187	7944
664.240	7487
664.294	8012
664.348	8085
664.401	8643
664.455	7387
664.508	7780
664.562	7585
664.615	8020
664.669	7331
664.722	8055
664.776	5680
664.829	7976
664.883	7022
664.936	7448
664.990	7305
665.043	7817
665.097	6686
665.150	9143
665.203	6406
665.257	7910
665.310	7996
665.363	7381
665.417	7915
665.470	8137
665.523	7875
665.576	8322
665.630	8159
665.683	8053
665.736	8222
665.789	7695
665.842	6833
665.895	8666
665.949	7732
666.002	8677
666.055	8135
666.108	8894
666.161	7043
666.214	8765
666.267	8170
666.320	9324
666.373	8673
666.426	8500
666.479	8275
666.532	9253
666.585	8465
666.638	9359
666.691	7896
666.744	8485
666.796	7832
666.849	9434
666.902	8960
666.955	8644
667.008	8544
667.060	9006
667.113	8089
667.166	9202
667.219	10339
667.271	10308
667.324	9208
667.377	9090
667.430	9938
667.482	9649
667.535	8742
667.587	9466
667.640	8315
667.693	9312
667.745	9037
667.798	10034
667.850	7221
667.903	8978
667.955	9227
668.008	9194
668.060	7683
668.113	8962
668.165	8618
668.218	8062
668.270	8877
668.322	8104
668.375	8581
668.427	8747
668.479	8244
668.532	9715
668.584	7740
668.636	8425
668.689	8316
668.741	8356
668.793	8336
668.845	8446
668.898	8725
668.950	9041
669.002	8293
669.054	8305
669.106	7811
669.158	8463
669.211	8193
669.263	8417
669.315	9066
669.367	8111
669.419	6889
669.471	8216
669.523	7885
669.575	8532
669.627	7262
669.679	7370
669.731	7919
669.783	9045
669.835	7417
669.886	8024
669.938	6965
669.990	9138
670.042	6851
670.094	7327
670.146	7029
670.197	8822
670.249	7524
670.301	8038
670.353	8298
670.404	8920
670.456	7415
670.508	11104
670.560	13394
670.611	19308
670.663	28352
670.715	63429
670.766	87014
670.818	23821
670.869	10145
670.921	9659
670.972	8839
671.024	8579
671.075	6764
671.127	7605
671.178	6569
671.230	9322
671.281	8741
671.333	9475
671.384	10199
671.436	12613
671.487	16708
671.538	21658
671.590	34073
671.641	54668
671.692	99474
671.744	180311
671.795	111014
671.846	38931
671.897	19966
671.949	14275
672.000	10504
672.051	9899
672.102	8358
672.153	8208
672.204	7167
672.256	8080
672.307	6964
672.358	7576
672.409	7018
672.460	7102
672.511	6201
672.562	6106
672.613	5561
672.664	6219
672.715	6486
672.766	6146
672.817	6960
672.868	5330
672.919	5056
672.970	5961
673.021	5119
673.071	5079
673.122	4951
673.173	5465
673.224	5179
673.275	5770
673.326	4048
673.376	5702
673.427	4632
673.478	5273
673.528	5252
673.579	5980
673.630	5179
673.680	6342
673.731	4911
673.782	5578
673.832	4952
673.883	5493
673.934	4643
673.984	6070
674.035	5246
674.085	6401
674.136	5073
674.186	6009
674.237	4736
674.287	4806
674.338	5302
674.388	5641
674.438	4589
674.489	6131
674.539	5950
674.589	6551
674.640	5636
674.690	6560
674.740	5206
674.791	5878
674.841	5141
674.891	5383
674.942	4346
674.992	3760
675.042	4129
675.092	4028
675.142	3789
675.193	3880
675.243	3593
675.293	4481
675.343	5165
675.393	5151
675.443	4919
675.493	5611
675.543	4939
675.593	4991
675.643	4311
675.693	5502
675.743	4589
675.793	4758
675.843	4025
675.893	5196
675.943	4203
675.993	4229
676.043	3556
676.093	4903
676.142	3864
676.192	4960
676.242	4953
676.292	4597
676.341	3895
676.391	4660
676.441	4123
676.491	4698
676.540	3256
676.590	4324
676.640	4078
676.689	4458
676.739	3368
676.789	3821
676.838	2760
676.888	4477
676.937	2985
676.987	4239
677.037	3635
677.086	3964
677.136	3522
677.185	4670
677.235	3531
677.284	4152
677.333	3250
677.383	3311
677.432	2743
677.482	3579
677.531	3698
677.580	4327
677.630	3446
677.679	3403
677.728	3398
677.778	3920
677.827	3460
677.876	4397
677.925	2932
677.975	4693
678.024	4136
678.073	5029
678.122	3758
678.171	4131
678.220	3921
678.269	4865
678.319	3959
678.368	5068
678.417	3672
678.466	4510
678.515	3517
678.564	3747
678.613	3111
678.662	3842
678.711	2689
678.760	4045
678.809	4073
678.857	4204
678.906	4075
678.955	3719
679.004	3004
679.053	3619
679.102	2213
679.151	3403
679.199	2931
679.248	4091
679.297	3212
679.346	3323
679.394	2678
679.443	2969
679.492	2921
679.540	3513
679.589	3173
679.638	3829
679.686	3579
679.735	4247
679.784	4052
679.832	5264
679.881	3101
679.929	3507
679.978	2822
680.026	4196
680.075	3956
680.123	2880
680.172	2456
680.220	3315
680.268	2376
680.317	2576
680.365	1789
680.414	2930
680.462	3509
680.510	3483
680.559	2668
680.607	3087
680.655	2428
680.703	3252
680.752	2304
680.800	3022
680.848	2089
680.896	3413
680.945	3120
680.993	2013
681.041	1988
681.089	3427
681.137	2465
681.185	2908
681.233	2092
681.258	2614
681.281	3083
681.329	1962
681.377	2855
681.380	2834
681.425	1960
681.473	3536
681.502	3643
681.521	3666
681.569	3941
681.617	3751
681.624	3782
681.665	3798
681.713	2988
681.745	3676
681.761	3960
681.809	2555
681.857	4351
681.867	4274
681.904	3892
681.952	4146
681.989	3345
682.000	3077
682.048	3841
682.096	4009
682.111	4077
682.143	4134
682.191	3311
682.233	4720
682.239	4898
682.286	3234
682.334	4119
682.354	3882
682.382	3555
682.430	4411
682.476	4238
682.477	4208
682.525	4302
682.572	4066
682.598	4518
682.620	4863
682.667	4151
682.715	4380
682.720	4445
682.763	4826
682.810	4593
682.841	4682
682.857	4677
682.905	5163
682.952	4328
682.963	4451
683.000	4795
683.047	4440
683.085	5504
683.095	5779
683.142	4713
683.190	5162
683.206	4960
683.237	4490
683.284	5443
683.328	4278
683.332	4160
683.379	5223
683.426	4945
683.449	4936
683.473	4924
683.521	5023
683.568	6209
683.571	6172
683.615	5378
683.662	5858
683.693	5341
683.709	5003
683.757	4707
683.804	4971
683.814	5129
683.851	5687
683.898	5228
683.936	5750
683.945	5859
683.992	4985
684.039	6130
684.057	5669
684.086	4814
684.133	5756
684.179	4937
684.180	4896
684.227	5373
684.274	5390
684.300	5833
684.321	6109
684.368	5336
684.415	6123
684.422	6005
684.462	5439
684.509	5819
684.543	6538
684.556	6741
684.603	6694
684.649	5988
684.665	6180
684.696	6528
684.743	5854
684.786	7456
684.790	7561
684.837	5326
684.883	6720
684.908	6371
684.930	6125
684.977	6556
685.023	6654
685.029	6625
685.070	6298
685.117	6791
685.150	7268
685.164	7423
685.210	6752
685.257	7591
685.272	7546
685.303	7411
685.350	7465
685.393	7286
685.396	7253
685.443	7291
685.490	6447
685.514	6395
685.536	6379
685.583	6958
685.629	6790
685.636	6679
685.675	6042
685.722	7078
685.757	6902
685.768	6827
685.815	7216
685.861	7676
685.878	7636
685.908	7560
685.954	6850
686.000	7754
686.000	7763
686.047	7263
686.093	8182
686.121	8111
686.139	7983
686.185	8437
686.232	7492
686.242	7610
686.278	8121
686.324	7606
686.363	7920
686.370	7964
686.416	8136
686.463	8611
686.484	8410
686.509	8070
686.555	8428
686.601	7304
686.606	7438
686.647	8807
686.693	7491
686.727	7821
686.739	7925
686.785	7531
686.831	7836
686.848	7980
686.877	8272
686.923	8272
686.969	8161
686.969	8160
687.015	8543
687.061	8961
687.090	9504
687.107	9666
687.153	8980
687.199	9620
687.211	9117
687.245	7742
687.291	8432
687.332	8329
687.336	8359
687.382	8708
687.428	8396
687.453	9019
687.474	9456
687.520	9292
687.565	9695
687.574	9585
687.611	9170
687.657	10195
687.695	9172
687.702	8961
687.748	10282
687.794	9559
687.816	9793
687.839	10090
687.885	9660
687.931	10133
687.937	10081
687.976	9724
688.022	10248
688.058	9560
688.067	9400
688.113	9680
688.158	8893
688.179	9193
688.204	9668
688.249	9852
688.295	10015
688.300	9971
688.340	9475
688.386	10171
688.421	9607
688.431	9496
688.477	9528
688.522	9739
688.542	10192
688.567	10873
688.613	10605
688.658	10884
688.663	10935
688.703	11036
688.749	10839
688.784	10364
688.794	10294
688.839	11146
688.884	11247
688.905	11074
688.930	10749
688.975	10823
689.020	10696
689.026	10635
689.065	10390
689.110	10501
689.146	10418
689.155	10417
689.201	11143
689.246	10030
689.267	10335
689.291	10715
689.336	10907
689.381	10444
689.388	10522
689.426	11171
689.471	11827
689.509	11516
689.516	11386
689.561	11010
689.606	10746
689.630	10923
689.651	11196
689.696	10277
689.741	10826
689.750	10816
689.785	11078
689.830	11294
689.871	11331
689.875	11311
689.920	11035
689.965	10960
689.992	10927
690.010	11004
690.054	10740
690.099	11209
690.112	11059
690.144	10812
690.189	11321
690.233	10963
690.233	10975
690.278	11226
690.323	11185
690.354	11610
690.367	11857
690.412	11763
690.457	11474
690.474	11500
690.501	11346
690.546	11606
690.590	11224
690.595	11166
690.635	10952
690.680	11018
690.716	10878
690.724	10919
690.769	10665
690.813	11787
690.836	11536
690.857	11559
690.902	12484
690.946	13233
690.957	13503
690.991	14303
691.035	14553
691.077	15399
691.080	15417
691.124	14366
691.168	13691
691.198	13250
691.213	13095
691.257	13044
691.301	12015
691.318	12018
691.346	12355
691.390	11526
691.434	12250
691.439	12218
691.478	11974
691.522	12286
691.559	11993
691.567	12030
691.611	12773
691.655	12599
691.680	12842
691.699	12904
691.743	12719
691.787	12844
691.800	12692
691.831	12357
691.875	12562
691.919	12228
691.921	12209
691.964	12535
692.008	12637
692.041	12693
692.052	12755
692.096	12791
692.139	13415
692.162	13159
692.183	12795
692.227	13094
692.271	12646
692.282	12572
692.315	12534
692.359	12489
692.402	12733
692.403	12757
692.447	12612
692.490	12508
692.523	12205
692.534	12136
692.578	12343
692.622	11991
692.643	12039
692.666	12217
692.709	12144
692.753	12372
692.763	12366
692.797	12550
692.840	12820
692.884	12557
692.884	12578
692.928	13052
692.971	12565
693.004	12821
693.015	12951
693.059	12481
693.102	12992
693.124	12640
693.146	12450
693.189	12841
693.233	12958
693.245	12992
693.276	13076
693.320	12867
693.363	13074
693.365	13042
693.407	13228
693.450	13780
693.485	13951
693.493	13961
693.537	14182
693.580	14032
693.605	13996
693.624	14223
693.667	14593
693.710	15339
693.725	15521
693.753	16584
693.797	18502
693.840	20121
693.845	20195
693.883	18495
693.926	16731
693.966	15678
693.970	15669
694.013	14688
694.056	14226
694.086	13450
694.099	13355
694.142	13450
694.185	13359
694.206	13395
694.229	13633
694.272	13773
694.315	14261
694.326	14185
694.358	13732
694.401	13583
694.444	13172
694.446	13142
694.487	13700
694.530	13992
694.566	14255
694.573	14310
694.616	14225
694.659	14538
694.686	14530
694.702	14522
694.745	14833
694.787	14421
694.806	14456
694.830	14585
694.873	14320
694.916	14389
694.926	14309
694.959	14585
695.002	15349
695.044	15576
695.046	15570
695.087	15894
695.130	15774
695.166	15997
695.172	16088
695.215	15977
695.258	16237
695.286	16209
695.301	16385
695.343	16979
695.386	17233
695.406	17511
695.428	18174
695.471	19300
695.514	20491
695.526	20704
695.556	21909
695.599	23933
695.641	25434
695.646	25596
695.684	24465
695.726	22703
695.766	21217
695.769	21220
695.811	20502
695.854	19900
695.886	19363
695.896	19552
695.938	20174
695.981	20502
696.005	20974
696.023	21824
696.065	23362
696.108	25027
696.125	25651
696.150	25871
696.192	26164
696.235	26299
696.245	26336
696.277	26400
696.319	26232
696.361	26170
696.365	26087
696.404	25745
696.446	25538
696.485	25229
696.488	25273
696.530	25092
696.572	24742
696.604	24564
696.614	24615
696.656	24525
696.698	24531
696.724	24313
696.740	24481
696.783	25038
696.825	25461
696.844	25666
696.867	25687
696.909	25373
696.951	25249
696.964	25145
696.992	25446
697.034	25701
697.076	25944
697.083	25960
697.118	26724
697.160	27316
697.202	28072
697.203	28024
697.244	28122
697.286	28274
697.323	28138
697.327	28206
697.369	28484
697.411	28498
697.442	28613
697.453	28685
697.494	28531
697.536	28423
697.562	28296
697.578	28485
697.620	28791
697.661	29098
697.682	29212
697.703	29722
697.744	30502
697.786	31347
697.801	31548
697.828	31430
697.869	31180
697.911	30866
697.921	30735
697.952	30365
697.994	29744
698.035	29095
698.040	28948
698.077	29505
698.118	30073
698.160	30585
698.160	30511
698.201	31690
698.243	32752
698.279	33653
698.284	33822
698.325	34575
698.367	35390
698.399	35890
698.408	35995
698.449	36115
698.491	36212
698.518	36208
698.532	36162
698.573	35709
698.614	35299
698.638	34953
698.656	35105
698.697	35289
698.738	35454
698.757	35459
698.779	35540
698.820	35492
698.862	35471
698.877	35373
698.903	35696
698.944	36075
698.985	36443
698.996	36458
699.026	36532
699.067	36507
699.116	36387
699.235	35473
699.354	34463
699.474	33429
699.593	32753
699.713	32858
699.832	33167
699.951	35607
700.070	33726
700.190	31707
700.309	30469
700.428	30219
700.547	30013
700.667	29807
700.786	30564
700.905	30065
701.024	30259
701.143	29204
701.262	30332
701.381	30596
701.500	30688
701.619	29755
701.738	30368
701.857	31003
701.976	28102
702.095	30583
702.214	30011
702.333	29870
702.452	31431
702.571	30325
702.690	29961
702.809	30489
702.928	28179
703.047	26648
703.165	28177
703.284	27955
703.403	27066
703.522	27151
703.640	25941
703.759	26167
703.878	24558
703.997	26006
704.115	26311
704.234	25526
704.353	27149
704.471	24436
704.590	24662
704.708	24220
704.827	24523
704.946	22867
705.064	23863
705.183	23409
705.301	24734
705.420	22847
705.538	21393
705.656	21944
705.775	21133
705.893	21975
706.012	22463
706.130	20891
706.249	24385
706.367	20740
706.485	20764
706.604	19912
706.722	20893
706.840	21563
706.958	21678
707.077	19614
707.195	20591
707.313	20468
707.431	18942
707.549	20038
707.668	18478
707.786	21665
707.904	18568
708.022	20703
708.140	18479
708.258	18279
708.376	19963
708.494	17075
708.612	18652
708.730	19645
708.848	18297
708.966	19162
709.084	18918
709.202	19448
709.320	17260
709.438	17766
709.556	17817
709.674	17208
709.791	17001
709.909	15919
710.027	17649
710.145	16312
710.263	16505
710.380	16802
710.498	15293
710.616	15900
710.733	14745
710.851	14890
710.969	16491
711.086	15339
711.204	15766
711.322	15053
711.439	14387
711.557	14965
711.674	14822
711.792	15270
711.909	14927
712.027	13775
712.144	14168
712.262	14981
712.379	14820
712.497	15021
712.614	14162
712.732	14552
712.849	13607
712.966	14092
713.084	14756
713.201	11836
713.318	12622
713.436	14632
713.553	12998
713.670	14339
713.787	13783
713.905	13185
714.022	14867
714.139	14048
714.256	15502
714.373	20656
714.490	36029
714.608	88988
714.725	338139
714.842	255065
714.959	29522
715.076	16386
715.193	15194
715.310	14501
715.427	11569
715.544	13471
715.661	12861
715.778	11928
715.895	12019
716.011	12155
716.128	12113
716.245	13112
716.362	12634
716.479	10834
716.596	11241
716.713	11782
716.829	11062
716.946	11398
717.063	10052
717.180	10187
717.296	10494
717.413	10927
717.530	10577
717.646	10326
717.763	10660
717.880	9970
717.996	9984
718.113	10056
718.229	10035
718.346	9998
718.462	9019
718.579	9775
718.695	9352
718.812	9368
718.928	9880
719.045	8750
719.161	9078
719.277	10631
719.394	10567
719.510	10398
719.626	10263
719.743	12564
719.859	18759
719.975	34308
720.092	130455
720.208	224171
720.324	26638
720.440	11362
720.557	10399
720.673	10301
720.789	9072
720.905	9727
721.021	9180
721.137	8209
721.253	7979
721.369	8278
721.486	8282
721.602	8593
721.718	8065
721.834	8220
721.950	8962
722.066	8505
722.181	8461
722.297	8524
722.413	7688
722.529	7924
722.645	7902
722.761	7657
722.877	7523
722.993	8536
723.108	9877
723.224	8404
723.340	7967
723.456	7633
723.571	6658
723.687	6826
723.803	7947
723.918	8457
724.034	6102
724.150	6907
724.265	8756
724.381	6901
724.497	6934
724.612	7409
724.728	6920
724.843	6813
724.959	7664
725.074	7584
725.190	6701
725.305	7686
725.421	7252
725.536	7205
725.651	8245
725.767	7164
725.882	7278
725.997	6749
726.113	7853
726.228	7260
726.343	7365
726.459	6714
726.574	7347
726.689	7001
726.804	7042
726.920	6918
727.035	7162
727.150	7336
727.265	6212
727.380	6852
727.495	6910
727.610	6923
727.725	6421
727.841	6927
727.956	7185
728.071	6697
728.186	6274
728.301	6211
728.416	6894
728.531	6681
728.645	5392
728.760	7415
728.875	6773
728.990	6248
729.105	5830
729.220	6929
729.335	6317
729.449	6342
729.564	7064
729.679	6157
729.794	7383
729.908	7083
730.023	6623
730.138	7356
730.253	7438
730.367	5516
730.482	7251
730.596	7641
730.711	8130
730.826	11199
730.940	9972
731.055	9124
731.169	9076
731.284	9096
731.398	8539
731.513	9145
731.627	10316
731.742	14287
731.856	16816
731.970	15177
732.085	16660
732.199	21571
732.313	32420
732.428	81818
732.542	231345
732.656	112404
732.771	27500
732.885	21466
732.999	22066
733.113	24044
733.227	24157
733.342	23715
733.456	23298
733.570	22625
733.684	21014
733.798	19801
733.912	21334
734.026	21604
734.140	20293
734.254	19465
734.368	20252
734.482	19822
734.596	19794
734.710	19568
734.824	19746
734.938	18989
735.052	19741
735.166	19183
735.280	19299
735.393	17402
735.507	19085
735.621	17341
735.735	17018
735.849	19542
735.962	17347
736.076	17947
736.190	16696
736.303	17720
736.417	17192
736.531	16425
736.644	16453
736.758	16978
736.872	16337
736.985	16850
737.099	15778
737.212	16335
737.326	15061
737.439	17714
737.553	14694
737.666	16248
737.780	15101
737.893	15884
738.007	14855
738.120	16245
738.233	14617
738.347	16060
738.460	14573
738.573	16098
738.687	14929
738.800	15036
738.913	16802
739.026	15026
739.140	13298
739.253	14079
739.366	14345
739.479	14166
739.592	13591
739.705	11713
739.818	15516
739.932	13015
740.045	13720
740.158	13318
740.271	13856
740.384	13671
740.497	11984
740.610	14349
740.723	12778
740.836	12928
740.949	13139
741.062	14092
741.174	12014
741.287	13352
741.400	11837
741.513	10732
741.626	13119
741.739	12270
741.851	11680
741.964	12781
742.077	11487
742.189	10279
742.302	11305
742.415	11985
742.527	11984
742.640	12659
742.753	9834
742.865	11296
742.978	11491
743.090	11358
743.203	10538
743.316	10271
743.428	9611
743.541	10317
743.653	9615
743.766	11204
743.878	10358
743.990	9273
744.103	11096
744.215	10208
744.327	9041
744.440	12041
744.552	9328
744.664	8994
744.777	10983
744.889	9861
745.001	9218
745.113	10735
745.226	9378
745.338	8469
745.450	10561
745.562	9139
745.674	8159
745.786	10805
745.898	10010
746.010	9188
746.122	9003
746.234	9710
746.347	9572
746.459	8943
746.570	6999
746.682	10533
746.794	10511
746.906	8132
747.018	8557
747.130	9070
747.242	7709
747.354	7604
747.466	9075
747.577	7553
747.689	8984
747.801	9324
747.913	7167
748.024	8176
748.136	7931
748.248	7635
748.359	8300
748.471	8996
748.583	6531
748.694	6825
748.806	8591
748.918	7719
749.029	7772
749.141	7682
749.252	7457
749.364	7552
749.475	7241
749.587	6708
749.698	6848
749.809	7462
749.921	7946
750.032	6947
750.144	6475
750.255	6154
750.366	6441
750.478	6639
750.589	7266
750.700	5131
750.811	7659
750.923	6406
751.034	6833
751.145	7714
751.256	5174
751.367	6413
751.479	7204
751.590	6188
751.701	6047
751.812	5017
751.923	6096
752.034	7164
752.145	6931
752.256	7180
752.367	6077
752.478	5450
752.589	6562
752.700	6639
752.811	5625
752.922	5425
753.032	6453
753.143	6259
753.254	5293
753.365	7179
753.476	7031
753.586	5456
753.697	5749
753.808	6875
753.919	5901
754.029	5805
754.140	5827
754.251	5912
754.361	5697
754.472	6212
754.582	5645
754.693	6079
754.804	6094
754.914	4304
755.025	3827
755.135	5909
755.246	6514
755.356	5392
755.466	5409
755.577	5929
755.687	5339
755.798	5235
755.908	5095
756.018	5462
756.129	5997
756.239	6065
756.349	5594
756.460	5741
756.570	5773
756.680	4620
756.790	5943
756.900	5628
757.011	5620
757.121	4167
757.231	5375
757.341	5086
757.451	4773
757.561	5000
757.671	4725
757.781	5176
757.891	4107
758.001	3960
758.111	5686
758.221	5941
758.331	5761
758.441	4734
758.551	4777
758.661	5341
758.771	5903
758.880	5421
758.990	5269
759.100	5055
759.210	5435
759.320	5546
759.429	5099
759.539	6403
759.649	5278
759.758	6199
759.868	6357
759.978	5832
760.087	7186
760.197	5970
760.307	6090
760.416	5312
760.526	4517
760.635	6375
760.745	6394
760.854	5183
760.964	7423
761.073	7117
761.182	6072
761.292	6151
761.401	5941
761.511	4397
761.620	4177
761.729	5630
761.839	4587
761.948	4379
762.057	3853
762.166	4869
762.276	5111
762.385	5833
762.494	4920
762.603	4890
762.712	5281
762.822	5215
762.931	5286
763.040	4028
763.149	5269
763.258	4677
763.367	5469
763.476	5062
763.585	4944
763.694	3915
763.803	4515
763.912	5558
764.021	4845
764.130	5536
764.238	5827
764.347	5215
764.456	5842
764.565	4835
764.674	5245
764.783	5297
764.891	6248
765.000	6540
765.109	5525
765.217	5494
765.326	7169
765.435	7902
765.543	9483
765.652	10298
765.761	12546
765.869	17672
765.978	25540
766.086	44031
766.195	85384
766.303	200567
766.412	371637
766.520	288354
766.629	123586
766.737	53301
766.846	30621
766.954	20927
767.062	16889
767.171	13242
767.279	10940
767.387	9810
767.496	8883
767.604	8363
767.712	7216
767.820	6334
767.928	6796
768.037	5908
768.145	6457
768.253	6440
768.361	5407
768.469	6816
768.577	4657
768.685	6432
768.793	7065
768.901	7025
769.009	8274
769.117	7473
769.225	8788
769.333	13850
769.441	19523
769.549	35232
769.657	80634
769.765	216554
769.873	301216
769.981	131688
770.088	42895
770.196	23064
770.304	16934
770.412	13529
770.519	10666
770.627	10025
770.735	8050
770.842	7778
770.950	8362
771.058	7768
771.165	9680
771.273	9693
771.380	10293
771.488	14559
771.595	16300
771.703	14051
771.810	13699
771.918	12923
772.025	16813
772.133	18062
772.240	17287
772.348	19879
772.455	18104
772.562	16553
772.670	15889
772.777	17997
772.884	16811
772.991	15222
773.099	16638
773.206	14751
773.313	15176
773.420	15823
773.528	15101
773.635	14888
773.742	16354
773.849	13864
773.956	15442
774.063	13955
774.170	14891
774.277	15390
774.384	13743
774.491	13942
774.598	13609
774.705	13587
774.812	13607
774.919	13013
775.026	13769
775.133	13092
775.239	13039
775.346	12226
775.453	13250
775.560	12237
775.667	13533
775.773	11506
775.880	13325
775.987	12075
776.093	12384
776.200	14238
776.307	10009
776.413	11126
776.520	14138
776.627	11329
776.733	10717
776.840	9464
776.946	16094
777.053	10545
777.159	11186
777.266	9705
777.372	11493
777.478	12034
777.585	10881
777.691	9824
777.798	11805
777.904	10055
778.010	9356
778.117	11295
778.223	9585
778.329	11057
778.435	8615
778.542	11266
778.648	9671
778.754	8535
778.860	10773
778.966	10241
779.072	10570
779.178	9969
779.284	8502
779.391	8517
779.497	9435
779.603	10726
779.708	8557
779.815	8885
779.920	13813
780.026	15356
780.132	9482
780.238	8817
780.344	7633
780.450	10883
780.556	7399
780.661	8436
780.767	10477
780.873	5866
780.979	7749
781.085	9797
781.190	8480
781.296	7335
781.402	9040
781.507	7495
781.613	6540
781.719	7556
781.824	7987
781.930	7891
782.035	8503
782.141	8789
782.246	5854
782.352	6778
782.457	7230
782.563	8069
782.668	7594
782.773	6222
782.879	6033
782.984	7706
783.090	7205
783.195	8068
783.300	8240
783.405	6103
783.511	5275
783.616	6847
783.721	7236
783.826	6546
783.932	5356
784.037	7183
784.142	7171
784.247	5858
784.352	7658
784.457	5757
784.562	7008
784.667	7598
784.772	5142
784.877	4112
784.982	7433
785.087	6833
785.192	5669
785.297	5549
785.402	6946
785.507	6082
785.611	6091
785.716	4899
785.821	5914
785.926	6200
786.031	6700
786.135	6288
786.240	6398
786.345	3918
786.450	5844
786.554	5197
786.659	4916
786.763	5063
786.868	6127
786.973	6511
787.077	4286
787.182	4703
787.286	5494
787.391	6304
787.495	4052
787.600	4371
787.704	4070
787.809	5436
787.913	5139
788.017	5698
788.122	7235
788.226	4514
788.330	3156
788.435	4505
788.539	5877
788.643	4999
788.747	3949
788.852	5514
788.956	5199
789.060	5754
789.164	4897
789.268	4260
789.372	5730
789.476	4577
789.580	3584
789.684	4209
789.788	5478
789.892	5116
789.996	3301
790.100	2893
790.204	4895
790.308	6481
790.412	3588
790.516	2886
790.620	3489
790.724	5831
790.828	4496
790.931	2450
791.035	4897
791.139	3852
791.242	4057
791.346	5524
791.450	4380
791.554	3926
791.657	2575
791.761	4729
791.864	5499
791.968	4754
792.072	3796
792.175	3331
792.279	3811
792.382	3786
792.486	2834
792.589	4527
792.693	5144
792.796	2916
792.899	4223
793.003	4962
793.106	2855
793.209	3514
793.313	3851
793.416	881
793.519	4650
793.623	4674
793.726	4513
793.829	2542
793.932	2710
794.035	2816
794.138	4870
794.242	5414
794.345	2912
794.448	2963
794.551	2038
794.654	6475
794.757	6698
794.860	2937
794.963	3757
795.066	2189
795.169	4455
795.272	3441
795.375	4612
795.477	2342
795.580	2832
795.683	1977
795.786	4807
795.889	1960
795.991	3695
796.094	3717
796.197	2039
796.300	5216
796.402	3025
796.505	1795
796.608	2311
796.710	3176
796.813	4259
796.915	3028
797.018	3732
797.120	3494
797.223	1821
797.326	4722
797.428	1625
797.530	2005
797.633	2014
797.735	4074
797.838	2436
797.940	4626
798.042	3202
798.145	2439
798.247	2855
798.349	511
798.452	3650
798.554	2936
798.656	1689
798.758	3331
798.860	2692
798.962	2078
799.065	2415
799.167	2116
799.269	2849
799.371	3334
799.473	3858
799.575	2669
799.677	1988
799.779	3483
799.881	903
799.983	4672
800.085	2630
800.187	2547
800.289	1233
800.390	2320
800.492	3578
800.594	2754
800.696	966
800.798	2182
800.899	2547
801.001	3104
801.103	3051
801.205	1972
801.306	3077
801.408	1227
801.509	2176
801.611	2540
801.713	2801
801.814	1483
801.916	1765
802.017	1454
802.119	1941
802.220	2803
802.322	1494
802.423	3369
802.525	1018
802.626	2373
802.727	3244
802.829	2816
802.930	-107
803.031	2945
803.133	1818
803.234	2771
803.335	1652
803.436	1732
803.538	1742
803.639	1351
803.740	3325
803.841	1162
803.942	3031
804.043	2164
804.144	1370
804.245	898
804.346	1727
804.447	1369
804.548	1843
804.649	2581
804.750	650
804.851	1040
804.952	1134
805.053	2099
805.154	1365
805.255	3044
805.355	2925
805.456	1209
805.557	1470
805.658	721
805.758	2130
805.859	1684
805.960	2526
806.061	1199
806.161	1427
806.262	1418
806.362	589
806.463	908
806.564	1914
806.664	1738
806.765	1140
806.865	1609
806.966	920
807.066	1028
807.166	2138
807.267	2400
807.367	886
807.468	1629
807.568	-35
807.668	1545
807.769	2665
807.869	895
807.969	1918
808.069	1207
808.170	1616
808.270	1288
808.370	1716
808.470	1699
808.570	687
808.670	1274
808.770	1353
808.870	-180
808.970	2527
809.070	578
809.170	1231
809.271	2377
809.370	1034
809.470	2143
809.570	633
809.670	854
809.770	846
809.870	2046
809.970	1653
810.070	1743
810.169	1714
810.269	-165
810.369	2368
810.469	587
810.568	1872
810.668	1180
810.768	1568
810.867	1903
810.967	1305
811.066	800
811.166	834
811.265	2370
811.365	720
811.464	1389
811.564	1667
811.663	1487
811.763	303
811.862	2223
811.962	1498
812.061	820
812.160	1278
812.260	1810
812.359	821
812.458	799
812.557	1576
812.657	1218
812.756	1218
812.855	939
812.954	1128
813.053	1870
813.153	1704
813.252	801
813.351	1464
813.450	1852
813.549	637
813.648	2198
813.747	1528
813.846	2038
813.945	1741
814.044	1961
814.143	1810
814.242	1790
814.341	620
814.439	2999
814.538	2362
814.637	2838
814.736	2095
814.835	4272
814.933	2304
815.032	3398
815.131	5803
815.229	10343
815.328	15332
815.427	10002
815.525	9223
815.624	8925
815.722	8827
815.821	10141
815.919	10087
816.018	8966
816.116	9380
816.215	9364
816.313	9825
816.412	12282
816.510	12300
816.609	13198
816.707	13971
816.805	12593
816.904	10543
817.002	11933
817.100	12163
817.198	12818
817.296	10302
817.395	11948
817.493	11495
817.591	10566
817.689	11571
817.787	11142
817.885	10970
817.983	10403
818.081	11355
818.179	11696
818.277	16146
818.375	13174
818.473	10806
818.571	9109
818.669	10699
818.767	11300
818.865	9028
818.963	8248
819.061	9864
819.158	10103
819.256	12881
819.354	12018
819.452	18426
819.549	11230
819.647	11660
819.745	7693
819.842	8556
819.940	9394
820.038	8749
820.135	7505
820.233	10722
820.330	9313
820.428	7648
820.525	10402
820.623	8307
820.720	7440
820.818	8196
820.915	9067
821.012	8092
821.110	7188
821.207	9525
821.304	7678
821.402	8500
821.499	9303
821.596	7096
821.693	7912
821.791	8251
821.888	7472
821.985	8879
822.082	6169
822.179	8811
822.276	8516
822.373	6957
822.470	6749
822.567	8216
822.664	6825
822.761	7393
822.858	7913
822.955	6645
823.052	6551
823.149	7301
823.246	8497
823.343	6241
823.440	6181
823.536	7329
823.633	7777
823.730	6475
823.827	6917
823.923	7181
824.020	6449
824.117	7972
824.213	7325
824.310	6234
824.407	4836
824.503	6915
824.600	6047
824.696	6015
824.793	7617
824.889	7277
824.986	6542
825.082	4209
825.179	5189
825.275	7473
825.371	7623
825.468	5025
825.564	2545
825.660	7339
825.757	9095
825.853	6339
825.949	4887
826.045	4607
826.142	5735
826.238	7222
826.334	6627
826.430	6046
826.526	3413
826.622	3189
826.718	6416
826.814	8090
826.910	5479
827.006	3163
827.102	4124
827.198	5895
827.294	6327
827.390	6570
827.486	4835
827.582	2333
827.678	4035
827.774	6859
827.869	3455
827.965	3611
828.061	3367
828.157	6155
828.252	6521
828.348	4304
828.444	4361
828.539	3306
828.635	5230
828.731	4389
828.826	3793
828.922	4658
829.017	6035
829.113	5474
829.208	3245
829.304	3567
829.399	6997
829.495	4397
829.590	4053
829.685	4037
829.781	5536
829.876	5569
829.971	2561
830.066	1933
830.162	2961
830.257	7235
830.352	3713
830.447	4146
830.543	3489
830.638	3888
830.733	5211
830.828	3379
830.923	4456
831.018	3839
831.113	5085
831.208	2758
831.303	1882
831.398	2391
831.493	3164
831.588	6495
831.683	3447
831.778	2123
831.873	2668
831.967	4413
832.062	3807
832.157	1950
832.252	3101
832.346	2209
832.441	4633
832.536	3508
832.631	4129
832.725	2438
832.820	3432
832.914	2993
833.009	2731
833.104	1759
833.198	1847
833.293	2825
833.387	4564
833.482	3239
833.576	2471
833.670	2246
833.765	2179
833.859	3578
833.954	3516
834.048	3427
834.142	2559
834.237	1087
834.331	3181
834.425	2999
834.519	1692
834.613	2458
834.708	1701
834.802	2098
834.896	2921
834.990	3161
835.084	2026
835.178	2250
835.272	2463
835.366	4919
835.460	4112
835.554	2655
835.648	937
835.742	1337
835.836	1609
835.930	2546
836.024	3213
836.117	3873
836.211	1556
836.305	1754
836.399	1901
836.493	1681
836.586	3260
836.680	2558
836.774	2409
836.867	2233
836.961	858
837.055	1575
837.148	1473
837.242	1938
837.335	2441
837.429	1396
837.522	1813
837.616	649
837.709	1689
837.803	1390
837.896	3519
837.989	2224
838.083	939
838.176	781
838.269	441
838.363	2456
838.456	1241
838.549	2678
838.642	1473
838.735	2208
838.829	2715
838.922	1768
839.015	1739
839.108	1609
839.201	2321
839.294	2371
839.387	1521
839.480	704
839.573	1024
839.666	515
839.759	1416
839.852	1138
839.945	2633
840.038	2142
840.131	444
840.223	781
840.316	1422
840.409	2524
840.502	2693
840.594	3206
840.687	296
840.780	1314
840.873	288
840.965	456
841.058	1708
841.150	2821
841.243	684
841.336	2203
841.428	1461
841.521	1246
841.613	1158
841.706	1193
841.798	1313
841.890	2109
841.983	923
842.075	1799
842.167	365
842.260	2025
842.352	2539
842.444	1951
842.537	695
842.629	1437
842.721	639
842.813	1574
842.905	503
842.997	1553
843.090	1551
843.182	880
843.274	279
843.366	1158
843.458	1853
843.550	2543
843.642	1378
843.734	1847
843.826	706
843.918	942
844.009	1225
844.101	1113
844.193	1135
844.285	2109
844.377	1743
844.469	983
844.560	-409
844.652	889
844.744	1569
844.835	1022
844.927	1499
845.019	1705
845.110	394
845.202	2162
845.293	817
845.385	1344
845.476	1710
845.568	1653
845.659	1287
845.751	1037
845.842	224
845.934	421
846.025	1155
846.116	2090
846.208	1412
846.299	487
846.390	1141
846.482	721
846.573	1921
846.664	1895
846.755	871
846.846	1286
846.937	-95
847.029	199
847.120	1615
847.211	1052
847.302	1965
847.393	435
847.484	1031
847.575	189
847.666	-298
847.757	-4
847.847	1012
847.938	2285
848.029	1201
848.120	761
848.211	1028
848.302	313
848.392	450
848.483	1124
848.574	865
848.664	1119
848.755	879
848.846	908
848.936	125
849.027	849
849.118	718
849.208	-288
849.299	1659
849.389	2745
849.480	5040
849.570	10927
849.661	20840
849.751	29642
849.841	8564
849.932	1696
850.022	1126
850.112	1664
850.203	1520
850.293	-61
850.383	-40
850.474	-147
850.564	433
850.654	256
850.744	-216
850.834	-452
850.924	527
851.014	1675
851.104	1125
851.194	-254
851.284	273
851.374	-44
851.464	-87
851.554	757
851.644	-94
851.734	1509
851.824	502
851.914	185
852.004	945
852.094	97
852.183	269
852.273	612
852.363	727
852.452	694
852.542	423
852.632	511
852.721	-868
852.811	-162
852.901	1322
852.990	1168
853.080	1278
853.169	-166
853.259	1117
853.348	-32
853.438	1128
853.527	2463
853.617	2765
853.706	5695
853.795	11686
853.885	24316
853.974	43685
854.063	81806
854.152	96655
854.242	31082
854.331	7123
854.420	4040
854.509	3254
854.598	1853
854.687	2273
854.777	1536
854.866	740
854.955	2033
855.044	361
855.133	1403
855.222	366
855.311	607
855.400	39
855.488	649
855.577	46
855.666	206
855.755	1200
855.844	240
855.933	-53
856.021	563
856.110	340
856.199	382
856.288	-376
856.376	-448
856.465	-219
856.554	1161
856.642	506
856.731	1205
856.819	1204
856.908	903
856.996	-10
857.085	-184
857.173	318
857.262	-259
857.350	-505
857.438	356
857.527	396
857.615	12
857.703	348
857.792	307
857.880	-318
857.968	-34
858.056	-521
858.145	384
858.233	-108
858.321	55
858.409	42
858.497	100
858.585	-601
858.673	427
858.761	-640
858.849	-134
858.937	-652
859.025	361
859.113	696
859.201	-90
859.289	1616
859.377	707
859.465	560
859.552	48
859.640	-29
859.728	452
859.816	-465
859.903	261
859.991	-433
860.079	1163
860.166	631
860.254	-105
860.342	771
860.429	597
860.517	131
860.604	478
860.692	-323
860.779	646
860.867	-508
860.954	428
861.042	1723
861.129	1273
861.216	992
861.304	950
861.391	45
861.478	691
861.565	113
861.653	687
861.740	-348
861.827	593
861.914	608
862.001	293
862.089	283
862.176	819
862.263	-733
862.350	473
862.437	291
862.524	-164
862.611	755
862.698	572
862.785	777
862.871	1598
862.958	1004
863.045	362
863.132	1501
863.219	-638
863.306	-379
863.392	1292
863.479	890
863.566	837
863.652	688
863.739	1229
863.826	662
863.912	1170
863.999	983
864.086	1016
864.172	1479
864.259	1165
864.345	1817
864.432	1468
864.518	1307
864.604	868
864.691	918
864.777	2152
864.863	4179
864.950	5886
865.036	7248
865.122	13431
865.209	14000
865.295	11564
865.381	11215
865.467	10525
865.553	11147
865.639	11194
865.726	15098
865.812	22737
865.898	32107
865.984	43789
866.070	76036
866.156	64299
866.242	21652
866.328	12650
866.414	9947
866.499	10320
866.585	9327
866.671	8326
866.757	9032
866.843	8899
866.928	9751
867.014	9223
867.100	9621
867.186	8003
867.271	8333
867.357	8482
867.442	8574
867.528	7904
867.614	8786
867.699	8895
867.785	8404
867.870	8134
867.956	7514
868.041	8631
868.127	8158
868.212	7605
868.297	7465
868.383	8463
868.468	7844
868.553	8802
868.639	7895
868.724	7483
868.809	7568
868.894	7036
868.979	6771
869.065	7335
869.150	6167
869.235	7348
869.320	7774
869.405	5996
869.490	8985
869.575	7036
869.660	6607
869.745	8391
869.830	7898
869.915	6442
870.000	5957
870.085	6150
870.169	8755
870.254	8712
870.339	5276
870.424	5982
870.509	6197
870.593	7920
870.678	7343
870.763	6346
870.847	4769
870.932	6488
871.016	6880
871.101	4384
871.186	6738
871.270	8100
871.355	5370
871.439	6177
871.523	7928
871.608	5213
871.692	5153
871.777	8288
871.861	6295
871.945	5877
872.030	7052
872.114	5152
872.198	5145
872.282	4664
872.367	4218
872.451	5171
872.535	6308
872.619	6008
872.703	5174
872.787	5764
872.871	5771
872.955	4800
873.039	3817
873.123	5531
873.207	6257
873.291	3106
873.375	5237
873.459	6984
873.543	5851
873.627	3919
873.711	4055
873.794	6171
873.878	4641
873.962	3204
874.045	3789
874.129	4309
874.137	4306
874.213	4276
874.245	4398
874.296	4602
874.352	4423
874.380	4337
874.460	4637
874.464	4651
874.547	3266
874.568	3593
874.631	4549
874.676	4800
874.714	5007
874.784	5543
874.798	5656
874.881	4280
874.892	4186
874.965	3550
874.999	3967
875.048	4541
875.107	4667
875.131	4705
875.215	3083
875.215	3082
875.298	2207
875.323	2923
875.381	4581
875.430	5442
875.465	6025
875.538	4578
875.548	4387
875.631	2570
875.646	2614
875.714	2853
875.753	3047
875.798	3285
875.861	4084
875.881	4306
875.964	3744
875.968	3711
876.047	3229
876.076	3522
876.130	4089
876.183	3907
876.213	3765
876.291	4262
876.296	4294
876.379	3549
876.398	3332
876.462	2695
876.506	2635
876.545	2555
876.613	2649
876.628	2680
876.711	3399
876.721	3539
876.794	4590
876.828	4250
876.877	3665
876.935	3118
876.960	2975
877.043	2537
877.043	2543
877.125	3762
877.150	3891
877.208	4154
877.258	3567
877.291	3199
877.365	2598
877.374	2533
877.456	1906
877.472	1880
877.539	1843
877.579	2982
877.622	4080
877.687	3861
877.704	3813
877.787	2920
877.794	2915
877.869	2754
877.901	2853
877.952	2948
878.008	2199
878.034	1866
878.115	2019
878.117	2029
878.199	2130
878.222	2362
878.282	2879
878.329	3683
878.364	4127
878.437	2942
878.447	2786
878.529	1576
878.544	1599
878.611	1565
878.651	1819
878.694	2415
878.758	2903
878.776	2907
878.858	2536
878.865	2510
878.941	2503
878.972	2148
879.023	1369
879.078	1795
879.105	2176
879.185	3432
879.187	3448
879.269	2870
879.292	2853
879.351	2776
879.399	2195
879.433	1823
879.506	2277
879.516	2379
879.598	2627
879.613	2668
879.680	2183
879.720	2352
879.762	2928
879.827	2654
879.844	2410
879.926	1797
879.933	1822
880.007	2823
880.040	2434
880.089	1673
880.147	2632
880.171	3103
880.253	4758
880.254	4759
880.335	4922
880.360	5582
880.417	8649
880.467	11718
880.499	13540
880.574	15457
880.580	15004
880.662	7264
880.680	5588
880.744	2732
880.787	2138
880.825	2200
880.893	1932
880.907	1941
880.989	2047
881.000	2177
881.070	2913
881.106	2733
881.152	2371
881.213	1674
881.233	1429
881.315	1698
881.319	1699
881.396	2078
881.426	2002
881.478	1886
881.532	2668
881.559	2895
881.639	1707
881.641	1683
881.722	1514
881.745	1447
881.803	1527
881.852	1871
881.885	1955
881.958	1703
881.966	1664
882.047	1799
882.064	1641
882.129	1240
882.171	1469
882.210	1473
882.277	1288
882.291	1464
882.372	2458
882.383	2653
882.454	2815
882.489	2401
882.535	2160
882.596	2458
882.616	2472
882.697	1638
882.702	1617
882.778	1238
882.808	1145
882.859	1268
882.914	1308
882.940	1308
883.020	1486
883.021	1490
883.102	2090
883.127	2300
883.183	2698
883.233	2574
883.264	2120
883.339	911
883.345	881
883.426	1142
883.445	1152
883.507	1141
883.551	1228
883.587	1486
883.657	2285
883.668	2359
883.749	2239
883.763	2203
883.830	1535
883.869	1075
883.910	873
883.975	1174
883.991	1213
884.072	1347
884.081	1311
884.152	1538
884.187	1885
884.233	2343
884.292	2233
884.314	1849
884.394	461
884.398	408
884.475	322
884.504	435
884.555	768
884.610	1046
884.636	1118
884.716	1366
884.716	1368
884.797	2037
884.821	2113
884.877	2075
884.927	1886
884.958	1495
885.033	1084
885.038	1093
885.118	707
885.139	783
885.199	1037
885.244	1123
885.279	1155
885.350	1440
885.359	1578
885.439	2585
885.456	2679
885.520	1786
885.561	1315
885.600	942
885.667	703
885.680	894
885.760	1480
885.773	1639
885.840	1056
885.878	660
885.920	859
885.984	1348
886.000	1361
886.080	1155
886.089	1149
886.160	1554
886.195	1591
886.240	1229
886.300	957
886.320	1171
886.400	2118
886.406	2160
886.480	1145
886.511	911
886.560	1163
886.616	1021
886.640	992
886.720	1285
886.722	1289
886.800	1424
886.827	1462
886.879	1274
886.932	1084
886.959	1425
887.038	2526
887.039	2522
887.119	1768
887.143	1598
887.198	1820
887.248	1976
887.278	1689
887.354	811
887.358	832
887.437	1442
887.459	1610
887.517	1712
887.564	1709
887.596	1449
887.669	859
887.676	842
887.755	714
887.774	694
887.835	584
887.880	515
887.914	760
887.985	1217
887.994	1293
888.073	2003
888.090	2125
888.153	1926
888.195	1734
888.232	1579
888.300	1539
888.311	1494
888.391	1027
888.405	938
888.470	1045
888.510	1132
888.549	1155
888.615	1217
888.628	1325
888.708	1938
888.720	2030
888.787	1517
888.825	1206
888.866	1006
888.930	734
888.945	781
889.024	1061
889.035	1090
889.103	1408
889.140	1590
889.182	1386
889.245	1108
889.261	1216
889.340	1717
889.349	1775
889.419	1166
889.454	861
889.498	824
889.559	783
889.577	928
889.656	1584
889.664	1654
889.735	1462
889.768	1370
889.814	1354
889.873	1337
889.978	1697
890.083	814
890.187	977
890.292	1871
890.397	903
890.501	919
890.606	1181
890.710	516
890.815	2009
890.919	1577
891.024	1524
891.128	1083
891.233	788
891.337	2183
891.442	1599
891.546	1454
891.650	1237
891.755	849
891.859	2799
891.963	1690
892.068	606
892.172	240
892.276	648
892.380	1134
892.484	1315
892.589	1513
892.693	1464
892.797	339
892.901	1299
893.005	1058
893.109	1961
893.213	1625
893.317	821
893.421	847
893.525	394
893.629	712
893.733	2703
893.837	593
893.941	775
894.045	999
894.148	1066
894.252	1510
894.356	1434
894.460	2092
894.564	803
894.667	563
894.771	38
894.875	400
894.978	965
895.082	1153
895.186	1713
895.289	1627
895.393	971
895.496	2331
895.600	1182
895.703	355
895.807	1082
895.910	520
896.014	1387
896.117	1212
896.221	1238
896.324	1755
896.427	862
896.531	628
896.634	622
896.737	1643
896.840	1144
896.944	1502
897.047	1235
897.150	1812
897.253	-93
897.356	442
897.460	446
897.563	133
897.666	1025
897.769	709
897.872	980
897.975	269
898.078	594
898.181	463
898.284	969
898.387	1645
898.490	1307
898.593	1139
898.695	-155
898.798	1245
898.901	422
899.004	1394
899.107	241
899.209	1311
899.312	1837
899.415	1017
899.518	402
899.620	864
899.723	711
899.826	1053
899.928	1384
900.031	1012
900.133	1124
900.236	655
900.338	700
900.441	1398
900.543	797
900.646	1110
900.748	379
900.851	1587
900.953	1179
901.055	615
901.158	714
901.260	112
901.362	779
901.465	576
901.567	854
901.669	1425
901.771	822
901.873	766
901.976	867
902.078	528
902.180	1113
902.282	322
902.384	1062
902.486	1168
902.588	1523
902.690	503
902.792	671
902.894	557
902.996	1304
903.098	1313
903.200	154
903.302	237
903.404	-146
903.505	422
903.607	931
903.709	1733
903.811	609
903.913	-159
904.014	911
904.116	-197
904.218	825
904.319	983
904.421	2254
904.523	956
904.624	911
904.726	444
904.827	514
904.929	-476
905.030	1302
905.132	2029
905.233	1376
905.335	521
905.436	1080
905.537	306
905.639	544
905.740	1411
905.841	865
905.943	554
906.044	720
906.145	401
906.247	549
906.348	1703
906.449	1703
906.550	315
906.651	1374
906.752	524
906.854	1345
906.955	847
907.056	453
907.157	742
907.258	1015
907.359	748
907.460	137
907.561	786
907.662	364
907.762	321
907.863	860
907.964	370
908.065	580
908.166	183
908.267	448
908.367	-129
908.468	-154
908.569	1092
908.670	571
908.770	391
908.871	1366
908.971	422
909.072	-241
909.173	698
909.273	786
909.374	452
909.474	1139
909.575	1236
909.675	582
909.776	428
909.876	421
909.977	1237
910.077	757
910.177	1449
910.278	306
910.378	232
910.478	811
910.579	1480
910.679	708
910.779	1315
910.879	937
910.980	1166
911.080	781
911.180	990
911.280	107
911.380	221
911.480	215
911.580	-34
911.680	622
911.780	277
911.880	1365
911.980	152
912.080	230
912.180	856
912.280	350
912.380	873
912.480	344
912.580	530
912.679	625
912.779	1189
912.879	111
912.979	553
913.078	474
913.178	911
913.278	1081
913.377	874
913.477	198
913.577	-71
913.676	974
913.776	928
913.875	1008
913.975	417
914.074	658
914.174	1237
914.273	560
914.373	842
914.472	633
914.572	-190
914.671	597
914.770	-109
914.870	-55
914.969	254
915.068	-134
915.167	259
915.267	-110
915.366	711
915.465	887
915.564	599
915.663	890
915.763	905
915.862	967
915.961	947
916.060	-574
916.159	-212
916.258	1267
916.357	946
916.456	640
916.555	617
916.654	29
916.752	893
916.851	830
916.950	425
917.049	416
917.148	20
917.247	952
917.345	-115
917.444	631
917.543	38
917.642	595
917.740	1008
917.839	1154
917.937	1075
918.036	263
918.135	988
918.233	810
918.332	442
918.430	455
918.529	375
918.627	867
918.726	1093
918.824	1382
918.923	822
919.021	452
919.119	435
919.218	-318
919.316	545
919.414	1582
919.512	858
919.611	952
919.709	1099
919.807	1439
919.905	1390
920.003	1575
920.102	615
920.200	1536
920.298	1115
920.396	1712
920.494	1354
920.592	396
920.690	1188
920.788	850
920.886	1509
920.984	2186
921.082	1622
921.180	2210
921.277	1920
921.375	1505
921.473	3154
921.571	2400
921.669	2379
921.766	1732
921.864	1898
921.962	2346
922.060	1685
922.157	2933
922.255	2861
922.352	2349
922.450	2683
922.548	2316
922.645	3795
922.743	4274
922.840	7191
922.938	7679
923.035	6162
923.133	6185
923.230	7771
923.327	8418
923.425	8217
923.522	7976
923.619	7005
923.717	6621
923.814	6989
923.911	6787
924.008	6735
924.106	5842
924.203	7250
924.300	6430
924.397	5650
924.494	6361
924.591	5939
924.688	5762
924.786	6187
924.883	6348
924.979	6498
925.077	6295
925.173	5971
925.270	5493
925.367	5859
925.464	6785
925.561	7907
925.658	7658
925.755	6582
925.852	7371
925.948	5348
926.045	5773
926.142	6389
926.239	7698
926.335	5254
926.432	6016
926.529	6613
926.625	7188
926.722	4774
926.818	5479
926.915	7061
927.011	5140
927.108	5191
927.204	5349
927.301	4946
927.397	5974
927.494	6417
927.590	4159
927.687	4903
927.783	6376
927.879	6070
927.976	4687
928.072	4127
928.168	5770
928.264	5171
928.361	5039
928.457	5480
928.553	5122
928.649	5476
928.745	5283
928.841	4635
928.937	5047
929.033	5718
929.129	5507
929.225	5905
929.321	4431
929.417	5627
929.513	4552
929.609	3985
929.705	5502
929.801	5196
929.897	4726
929.993	4246
930.089	4861
930.184	4548
930.280	5399
930.376	5617
930.471	3871
930.567	3365
930.663	3820
930.758	3942
930.854	3578
930.950	4648
931.045	4234
931.141	4546
931.236	5881
931.332	4119
931.427	3628
931.523	5783
931.618	4856
931.714	2215
931.809	3452
931.905	4997
932.000	2350
932.095	3231
932.191	5492
932.286	5063
932.381	2990
932.476	2731
932.572	3876
932.667	3481
932.762	3776
932.857	4168
932.952	4958
933.047	4611
933.142	3341
933.237	4297
933.332	4474
933.427	4406
933.522	3257
933.617	2387
933.712	3406
933.807	4870
933.902	4490
933.997	4136
934.092	3300
934.187	3864
934.282	3300
934.376	3650
934.471	3134
934.566	2904
934.661	3626
934.755	3958
934.850	3840
934.945	3215
935.039	2502
935.134	1978
935.228	3896
935.323	5006
935.417	2720
935.512	2638
935.606	2217
935.701	3982
935.795	3793
935.890	3444
935.984	3162
936.079	1799
936.173	2927
936.267	2683
936.362	2551
936.456	4029
936.550	4919
936.644	3345
936.738	2693
936.833	2393
936.927	1703
937.021	2264
937.115	3517
937.209	2929
937.303	4246
937.397	1373
937.491	3255
937.585	3773
937.679	3002
937.773	2963
937.867	1846
937.961	2016
938.055	4021
938.149	3121
938.243	1840
938.337	1284
938.430	2521
938.524	4097
938.618	2323
938.712	1843
938.805	2897
938.899	3407
938.993	4277
939.086	2720
939.180	1647
939.274	2391
939.367	2865
939.461	3321
939.554	1815
939.648	1278
939.741	1964
939.835	2793
939.928	4180
940.022	3509
940.115	1847
940.208	2980
940.302	4107
940.395	3864
940.488	2145
940.582	2496
940.675	1710
940.768	2595
940.861	3371
940.954	3625
941.048	1357
941.141	1718
941.234	1745
941.327	2047
941.420	3432
941.513	3071
941.606	2487
941.699	3128
941.792	3386
941.885	2801
941.978	3441
942.071	1750
942.164	1155
942.257	2485
942.349	1243
942.442	1950
942.535	1174
942.628	1816
942.721	2809
942.813	1883
942.906	2588
942.999	1980
943.091	2339
943.184	2116
943.277	2239
943.369	1249
943.462	585
943.554	2061
943.647	697
943.739	3411
943.832	2656
943.924	1253
944.017	1220
944.109	1059
944.201	2149
944.294	2471
944.386	2154
944.478	1660
944.571	1816
944.663	2300
944.755	1700
944.847	3066
944.940	1785
945.032	870
945.124	1513
945.216	2889
945.308	2206
945.400	1479
945.492	2286
945.584	3149
945.676	2799
945.768	1705
945.860	2850
945.952	2365
946.044	1566
946.136	944
946.228	2569
946.320	1522
946.412	2322
946.503	2542
946.595	3206
946.687	739
946.779	1119
946.870	1351
946.962	934
947.054	2101
947.145	1992
947.237	807
947.329	1565
947.420	649
947.512	1732
947.603	722
947.695	1699
947.786	626
947.878	1056
947.969	2161
948.061	2432
948.152	1053
948.243	1173
948.335	1259
948.426	129
948.517	1924
948.609	1915
948.700	1810
948.791	1226
948.882	1124
948.973	546
949.065	1239
949.156	1370
949.247	634
949.338	1147
949.429	436
949.520	1066
949.611	868
949.702	2311
949.793	1635
949.884	1793
949.975	1277
950.066	775
950.157	642
950.247	1099
950.338	914
950.429	995
950.520	1558
950.611	193
950.701	714
950.792	1889
950.883	1620
950.973	1339
951.064	1332
951.155	1901
951.245	1909
951.336	1561
951.427	781
951.517	2227
951.608	1558
951.698	1232
951.788	984
951.879	828
951.969	211
952.060	1603
952.150	868
952.240	2237
952.331	280
952.421	2092
952.511	-184
952.602	776
952.692	442
952.782	736
952.872	998
952.962	730
953.052	1814
953.143	228
953.233	913
953.323	596
953.413	1299
953.503	1635
953.593	1478
953.683	1490
953.773	-114
953.863	767
953.953	1060
954.042	1448
954.132	1183
954.222	2259
954.312	1112
954.402	767
954.492	964
954.581	1413
954.671	185
954.761	-37
954.850	1837
954.940	-357
955.030	563
955.119	913
955.209	710
955.298	985
955.388	1264
955.477	1871
955.567	555
955.656	598
955.746	1130
955.835	506
955.925	341
956.014	951
956.103	1307
956.193	1518
956.282	989
956.371	759
956.461	928
956.550	678
956.639	323
956.728	744
956.817	1505
956.906	807
956.995	985
957.085	567
957.174	846
957.263	1025
957.352	890
957.441	1392
957.530	51
957.619	503
957.708	824
957.796	330
957.885	80
957.974	586
958.063	822
958.152	-982
958.241	985
958.329	195
958.418	-241
958.507	852
958.596	879
958.684	23
958.773	794
958.861	731
958.950	512
959.039	523
959.127	190
959.216	1337
959.304	598
959.393	1357
959.481	959
959.570	1460
959.658	-47
959.746	556
959.835	56
959.923	-531
960.011	559
960.100	509
960.188	844
960.276	490
960.365	128
960.453	290
960.541	-221
960.629	721
960.717	857
960.805	-103
960.893	744
960.981	560
961.069	2036
961.158	740
961.245	1838
961.333	1504
961.421	-211
961.509	729
961.597	799
961.685	436
961.773	-149
961.861	1325
961.949	1476
962.036	242
962.124	782
962.212	248
962.299	274
962.387	-681
962.475	804
962.562	-440
962.650	1680
962.738	495
962.825	38
962.913	586
963.000	864
963.088	295
963.175	727
963.263	-73
963.350	-214
963.438	-430
963.525	-546
963.612	722
963.700	-529
963.787	1129
963.874	-849
963.962	586
964.049	892
964.136	-27
964.223	71
964.310	422
964.398	191
964.485	-23
964.572	1014
964.659	-178
964.746	-465
964.833	749
964.920	-54
965.007	394
965.094	556
965.181	788
965.268	656
965.355	80
965.441	614
965.528	-403
965.615	964
965.702	430
965.789	4
965.875	-14
965.962	184
966.049	275
966.136	1750
966.222	759
966.309	1129
966.395	823
966.482	545
966.569	78
966.655	717
966.742	608
966.828	489
966.915	-226
967.001	314
967.087	-1113
967.174	-339
967.260	1075
967.347	1165
967.433	-78
967.519	583
967.605	447
967.692	998
967.778	75
967.864	909
967.950	490
968.036	233
968.123	456
968.209	-53
968.295	-458
968.381	1131
968.467	278
968.553	-1369
968.639	850
968.725	132
968.811	1082
968.897	731
968.983	-121
969.069	-156
969.154	758
969.240	1169
969.326	-1032
969.412	-485
969.497	9
969.583	-999
969.669	1283
969.755	697
969.840	-157
969.926	1045
970.012	2282
970.097	3124
970.183	974
970.268	432
970.354	390
970.439	-1636
970.525	706
970.610	-809
970.696	242
970.781	198
970.866	-614
970.952	1837
971.037	-780
971.122	-83
971.208	549
971.293	304
971.378	-821
971.463	-464
971.549	341
971.634	-65
971.719	395
971.804	-261
971.889	20
971.974	-766
972.059	672
972.144	563
972.229	-355
972.314	-835
972.399	93
972.484	-126
972.569	301
972.654	-679
972.739	774
972.824	-138
972.908	-431
972.993	-242
973.078	289
973.163	159
973.247	49
973.332	-2374
973.417	302
973.501	-517
973.586	326
973.671	-1037
973.755	420
973.840	370
973.924	710
974.009	422
974.093	580
974.178	1730
974.262	505
974.346	172
974.431	-433
974.515	-31
974.600	875
974.684	-318
974.768	-571
974.852	1199
974.937	-1286
975.021	243
975.105	-510
975.189	168
975.273	596
975.358	-261
975.442	-89
975.526	-48
975.610	268
975.694	-453
975.778	1086
975.862	359
975.946	-935
976.030	1037
976.114	-450
976.198	-13
976.281	-28
976.365	17
976.449	282
976.533	-42
976.617	-985
976.700	-127
976.784	863
976.868	-103
976.951	-164
977.035	-363
977.119	508
977.202	272
977.286	780
977.369	783
977.453	2244
977.536	671
977.620	161
977.703	-134
977.787	-711
977.870	1024
977.953	1594
978.037	-469
978.120	350
978.203	216
978.287	352
978.370	11
978.453	-1367
978.536	-110
978.620	316
978.703	635
978.786	-94
978.869	-627
978.952	-1024
979.035	1811
979.118	896
979.201	-394
979.284	921
979.367	-144
979.450	165
979.533	341
979.616	27
979.699	-12
979.782	481
979.865	323
979.948	-699
980.030	-321
980.113	446
980.196	-786
980.279	450
980.361	23
980.444	500
980.526	659
980.609	673
980.692	1212
980.774	1366
980.857	-562
980.939	592
981.022	317
981.104	405
981.187	467
981.269	-262
981.352	239
981.434	-544
981.516	26
981.599	1025
981.681	-171
981.763	-56
981.846	869
981.928	268
982.010	254
982.092	-152
982.174	1052
982.256	-139
982.339	288
982.421	113
982.503	-559
982.585	-674
982.667	-16
982.749	243
982.831	-176
982.913	106
982.995	912
983.077	-420
983.158	319
983.240	-508
983.322	793
983.404	1825
983.486	934
983.568	425
983.649	483
983.731	606
983.813	129
983.894	946
983.976	561
984.058	152
984.139	289
984.221	-528
984.302	1661
984.384	973
984.465	-390
984.547	1107
984.628	-277
984.710	1049
984.791	388
984.872	-285
984.954	-342
985.035	1021
985.116	118
985.198	-13
985.279	1663
985.360	-847
985.441	327
985.522	199
985.604	287
985.685	-1714
985.766	782
985.847	1730
985.928	772
986.009	2
986.090	-98
986.171	761
986.252	-697
986.333	-37
986.414	439
986.495	1438
986.576	-404
986.656	663
986.737	1400
986.818	916
986.899	666
986.980	528
987.060	1475
987.141	764
987.222	1385
987.302	1353
987.383	1871
987.464	326
987.544	1710
987.625	776
987.705	1839
987.786	1157
987.866	1229
987.947	436
988.027	1304
988.108	704
988.188	1769
988.268	992
988.349	1700
988.429	433
988.509	507
988.589	377
988.670	-1062
988.750	1675
988.830	182
988.910	823
988.990	1340
989.070	765
989.151	724
989.231	456
989.311	766
989.391	468
989.471	664
989.551	194
989.631	-320
989.711	1014
989.791	-298
989.870	402
989.950	1342
990.030	1127
990.110	433
990.190	31
990.269	198
990.349	-164
990.429	350
990.509	247
990.588	130
990.668	590
990.747	250
990.827	-128
990.907	466
990.986	135
991.066	158
991.145	113
991.225	537
991.304	1085
991.383	695
991.463	517
991.542	181
991.622	-351
991.701	-47
991.780	-84
991.859	-454
991.939	636
992.018	96
992.097	362
992.176	886
992.256	24
992.335	-347
992.414	1507
992.493	-280
992.572	-591
992.651	1213
992.730	352
992.809	249
992.888	-128
992.967	-309
993.046	370
993.125	-1003
993.203	-269
993.282	-319
993.361	-183
993.440	645
993.519	-262
993.597	270
993.676	234
993.755	153
993.834	267
993.912	-413
993.991	619
994.069	-724
994.148	254
994.226	-229
994.305	185
994.384	21
994.462	1517
994.540	-345
994.619	-680
994.697	-68
994.776	-1322
994.854	-110
994.932	-629
995.011	-722
995.089	-755
995.167	-93
995.245	102
995.324	-600
995.402	250
995.480	-576
995.558	-386
995.636	-856
995.714	-469
995.792	522
995.870	132
995.948	-811
996.026	492
996.104	-1268
996.182	311
996.260	-1101
996.338	-184
996.416	-694
996.494	-1256
996.572	435
996.649	-730
996.727	-819
996.805	200
996.883	-649
996.960	-299
997.038	234
997.116	-464
997.193	-1291
997.271	-469
997.348	-1043
997.426	-510
997.504	-787
997.581	87
997.658	-367
997.736	-1741
997.813	-1227
997.891	897
997.968	-776
998.046	-503
998.123	-1236
998.200	-276
998.277	-1450
998.355	-183
998.432	-1122
998.509	-436
998.586	310
998.663	-917
998.741	-555
998.818	-868
998.895	-1339
998.972	-362
999.049	-572
999.126	-920
999.203	-451
999.280	-637
999.357	-1292
999.434	-1181
999.511	-309
999.587	-357
999.664	-1416
999.741	-655
999.818	-516
999.895	-419
999.971	-1102
1000.048	-1578
1000.125	-521
1000.202	-1635
1000.278	-1116
1000.355	-804
1000.431	-1074
1000.508	-925
1000.584	-623
1000.661	-1296
1000.738	-1257
1000.814	-450
1000.890	-404
1000.967	-866
1001.043	-697
1001.120	-1529
1001.196	-1183
1001.272	-1434
1001.349	-776
1001.425	-647
1001.501	-848
1001.577	-1182
1001.654	-1006
1001.730	-973
1001.806	-575
1001.882	-1580
1001.958	-637
1002.034	-356
1002.110	-1076
1002.186	-1944
1002.262	-1572
1002.338	-1517
1002.414	-285
1002.490	-462
1002.566	-1163
1002.642	-1368
1002.718	-1070
1002.794	-1000
1002.870	-476
1002.945	-916
1003.021	-1148
1003.097	-903
1003.173	-1709
1003.248	-1171
1003.324	-1460
1003.400	-1358
1003.475	-1112
1003.551	-289
1003.626	-1375
1003.702	-1618
1003.777	-1625
1003.853	-1852
1003.928	-1679
1004.004	-1176
1004.079	-1122
1004.155	-947
1004.230	-1797
1004.305	-370
1004.381	-1265
1004.456	-378
1004.531	-1151
1004.607	-1059
1004.682	-1293
1004.757	-1060
1004.832	-1982
1004.907	-1468
1004.982	-340
1005.057	-1602
1005.133	-2530
1005.208	-2274
1005.283	-1408
1005.358	-1391
1005.433	-1139
1005.508	-764
1005.583	-1462
1005.657	-1570
1005.732	-787
1005.807	-2225
1005.882	-1592
1005.957	-1075
1006.032	-1743
1006.106	-1284
1006.181	-1724
1006.256	-1057
1006.331	-1154
1006.405	-1502
1006.480	-434
1006.554	-1590
1006.629	-1453
1006.704	-1455
1006.778	-1673
1006.853	-829
1006.927	-1159
1007.002	-1886
1007.076	-898
1007.150	-2267
1007.225	-1092
1007.299	-546
1007.373	-2114
1007.448	-1282
1007.522	-387
1007.596	-1365
1007.671	-1623
1007.745	-1113
1007.819	-1714
1007.893	-2017
1007.967	-595
1008.041	-2201
1008.115	-620
1008.190	-1741
1008.264	-866
1008.338	-2898
1008.412	-1278
1008.486	-1573
1008.560	-1211
1008.633	-1782
1008.707	-1014
1008.781	-1303
1008.855	-2141
1008.929	-1747
1009.003	-1708
1009.076	-2363
1009.150	-1692
1009.224	-1508
1009.298	-866
1009.371	-1805
1009.445	-1820
1009.519	-1929
1009.592	-2365
1009.666	-1004
1009.739	-1428
1009.813	-2065
1009.886	-1428
1009.960	-1879
1010.033	-904
1010.107	-1032
1010.180	-2152
1010.253	-1217
1010.327	-1818
1010.400	-1469
1010.473	-1916
1010.547	-322
1010.620	-1902
1010.693	-1473
1010.766	-1542
1010.840	-965
1010.913	-1704
1010.986	-1514
1011.059	-1341
1011.132	-2130
1011.205	-979
1011.278	-881
1011.351	-2734
1011.424	-1119
1011.497	-2321
1011.570	-838
1011.643	-982
1011.716	-1677
1011.789	-2260
1011.862	-1898
1011.934	-975
1012.007	-2872
1012.080	-1336
1012.153	-685
1012.225	-1296
1012.298	-1822
1012.371	-1859
1012.443	-612
1012.516	-1768
1012.588	-1015
1012.661	-1621
1012.733	-2321
1012.806	-1024
1012.879	-2227
1012.951	-2015
1013.023	-1491
1013.096	-1127
1013.168	-1913
1013.241	-656
1013.313	-1319
1013.385	-1347
1013.458	-1457
1013.530	-1253
1013.602	-1599
1013.674	-861
1013.746	-2359
1013.819	-1695
1013.891	-1399
1013.963	-1869
1014.035	-1489
1014.107	-1913
1014.179	-1391
1014.251	-1580
1014.323	-1136
1014.395	-2160
1014.467	-1665
1014.539	-1281
1014.611	-2056
1014.683	-1745
1014.754	-2167
1014.826	-2472
1014.898	-1369
1014.970	-2649
1015.042	-514
1015.113	-1547
1015.185	-1719
1015.257	-2415
1015.328	-1341
1015.400	-2401
1015.471	-1007
1015.543	-2427
1015.615	-1091
1015.686	-2159
1015.757	-2011
1015.829	-1326
1015.901	-1160
1015.972	-1518
1016.043	-2016
1016.115	-1806
1016.186	-1519
1016.257	-2463
1016.328	-51
1016.400	-783
1016.471	-2069
1016.542	-1569
1016.613	-1173
1016.685	-1105
1016.756	-1753
1016.827	-1584
1016.898	-1963
1016.969	-1405
1017.040	-1563
1017.111	-1565
1017.182	-1803
1017.253	-1027
1017.324	-1277
1017.395	-1914
1017.466	-1326
1017.537	-1014
1017.608	-1825
1017.678	-2113
1017.749	-1080
1017.820	-1570
1017.891	-1636
1017.961	-1785
1018.032	-1803
1018.103	-1233
1018.173	-1567
1018.244	-1907
1018.315	-2351
1018.385	-1390
1018.456	-1775
1018.526	-2299
1018.597	-2008
1018.667	-1751
1018.738	-2143
1018.808	-2187
1018.878	-1701
1018.949	-1336
1019.019	-1530
1019.089	-2156
1019.160	-972
1019.230	-1852
1019.300	-1469
1019.371	-1864
1019.441	-1300
1019.511	-1670
1019.581	-1950
1019.651	-1224
1019.721	-1439
1019.791	-2141
1019.861	-1681
1019.931	-1822
1020.001	-1299
1020.071	-2121
1020.141	-1365
1020.211	-2683
1020.281	-1223
1020.351	-1994
1020.421	-1389
1020.491	-1246
1020.560	-3050
1020.630	-1708
1020.700	-2099
1020.770	-1739
1020.839	-1272
1020.909	-1629
1020.979	-1437
1021.048	-2288
1021.118	-2069
1021.187	-2143
1021.257	-1762
1021.326	-1306
1021.396	-2098
1021.465	-1776
1021.535	-1305
1021.604	-2395
1021.674	-2434
1021.743	-1821
1021.812	-2273
1021.882	-1576
1021.951	-1899
1022.020	-1568
1022.089	-1215
1022.159	-2064
1022.228	-1362
1022.297	-1942
1022.366	-1275
1022.435	-1509
1022.504	-2055
1022.573	-1949
1022.642	-1473
1022.711	-2367
1022.781	-1191
1022.849	-1916
1022.918	-1764
1022.987	-1401
1023.056	-2482
1023.125	-1266
1023.194	-1803
1023.263	-1943
1023.331	-1083
1023.400	-2147
1023.469	-1979
1023.538	-1966
1023.606	-2280
1023.675	-2224
1023.744	-2529
1023.812	-2050
1023.881	-1654
1023.949	-1888
1024.018	-1008
1024.086	-2313
1024.155	-2239
1024.223	-1483
1024.292	-1733
1024.360	-1100
1024.429	-1842
1024.497	-2961
1024.565	-1843
1024.634	-1539
1024.702	-1881
1024.770	-1868
1024.838	-1794
1024.907	-1929
1024.975	-1579
1025.043	-2244
1025.111	-2160
1025.179	-1422
1025.247	-2032
1025.315	-1887
1025.383	-1509
1025.451	-1726
1025.519	-1973
1025.587	-1940
1025.655	-1744
1025.723	-1116
1025.791	-1987
1025.859	-2378
1025.927	-1516
1025.995	-1857
1026.062	-1736
1026.130	-2550
1026.198	-1347
1026.266	-2666
1026.333	-1222
1026.401	-1219
1026.469	-1424
1026.536	-1527
1026.604	-1718
1026.671	-1400
1026.739	-1665
1026.806	-2164
1026.874	-1638
1026.941	-2117
1027.009	-1837
1027.076	-2276
1027.144	-1211
1027.211	-2104
1027.278	-1876
1027.345	-1473
1027.413	-1413
1027.480	-2041
1027.547	-1869
1027.614	-2027
1027.682	-1535
1027.749	-1585
1027.816	-1669
1027.883	-1467
1027.950	-1489
1028.017	-2222
1028.084	-1452
1028.151	-2763
1028.218	-2301
1028.285	-2113
1028.352	-1407
1028.419	-1945
1028.486	-2266
1028.553	-1413
1028.619	-1913
1028.686	-2242
1028.753	-1283
1028.820	-1283
1028.886	-1992
1028.953	-1954
1029.020	-1477
1029.086	-1797
1029.153	-1961
1029.220	-2711
1029.286	-1511
1029.353	-2373
1029.419	-1579
1029.486	-1960
1029.552	-2460
1029.619	-1773
1029.685	-2208
1029.751	-1700
1029.818	-1643
1029.884	-1537
1029.951	-1234
1030.017	-1933
1030.083	-2333
1030.149	-1887
1030.216	-1433
1030.282	-1243
1030.348	-1905
1030.414	-2280
1030.480	-1251
1030.546	-1716
1030.612	-2728
1030.678	-1933
1030.744	-2243
1030.810	-1617
1030.876	-1385
1030.942	-1496
1031.008	-1442
1031.074	-2099
1031.140	-1413
1031.206	-715
1031.272	-2333
1031.337	-1952
1031.403	-1351
1031.469	-1447
1031.534	-1483
1031.600	-1112
1031.666	-2405
1031.731	-2151
1031.797	-1607
1031.863	-1944
1031.928	-1885
1031.994	-2148
1032.059	-1735
1032.125	-1609
1032.190	-1148
1032.256	-1932
1032.321	-2315
1032.386	-2144
1032.452	-2770
1032.517	-2067
1032.582	-1338
1032.647	-1770
1032.713	-2047
1032.778	-2330
1032.843	-2139
1032.908	-1177
1032.974	-1380
1033.039	-1742
1033.104	-1043
1033.169	-2067
1033.234	-1698
1033.299	-1356
1033.364	-1061
1033.429	-2142
1033.494	-930
1033.559	-2161
1033.624	-1281
1033.688	-1338
1033.753	-2133
1033.818	-1755
1033.883	-1357
1033.948	-1131
1034.013	-1675
1034.077	577
1034.142	125
1034.207	849
1034.271	2148
1034.336	2637
1034.400	1077
1034.465	-194
1034.530	-1451
1034.594	-1556
1034.658	-1895
1034.723	-2308
1034.787	-1523
1034.852	-2243
1034.916	-2469
1034.981	-2701
1035.045	-1828
1035.109	-2013
1035.173	-1723
1035.238	-2011
1035.302	-1392
1035.366	-2667
1035.430	-1875
1035.495	-1873
1035.559	-1709
1035.623	-2065
1035.687	-2284
1035.751	-1625
1035.815	-2261
1035.879	-1871
1035.943	-2111
1036.007	-1580
1036.071	-2422
1036.135	-1700
1036.198	-2134
1036.262	-1817
1036.326	-1770
1036.390	-2149
1036.454	-1674
1036.517	-1783
1036.581	-1559
1036.645	-604
1036.709	-614
1036.772	-1857
1036.836	-1765
1036.900	-2448
1036.963	-1617
1037.026	-1731
1037.090	-2004
1037.154	-1127
1037.217	-2155
1037.280	-1602
1037.344	-1991
1037.407	-1904
1037.471	-1874
1037.534	-2248
1037.597	-2039
1037.661	-1290
1037.724	-2141
1037.787	-1604
1037.850	-2612
1037.913	-2188
1037.977	-2071
1038.040	-2117
1038.103	-1652
1038.166	-2051
1038.229	-1898
1038.292	-2079
1038.355	-2987
1038.418	-1657
1038.481	-1541
1038.544	-1973
1038.607	-2017
1038.670	-2383
1038.732	-2123
1038.795	-1646
1038.858	-2661
1038.921	-1530
1038.984	-1794
1039.046	-3133
1039.109	-2116
1039.172	-2076
1039.234	-2141
1039.297	-2502
1039.360	-2072
1039.422	-2570
1039.485	-3129
1039.547	-2495
1039.610	-2308
1039.672	-2284
1039.734	-2177
1039.797	-2308
1039.859	-1509
1039.922	-1561
1039.984	-1723
1040.046	-2413
1040.109	-2373
1040.171	-2132
1040.233	-1199
1040.295	-2096
1040.358	-3013
1040.420	-1841
1040.482	-1605
1040.544	-2167
1040.606	-1905
1040.668	-2543
1040.730	-1695
1040.792	-2064
1040.854	-1568
1040.916	-2334
1040.978	-2441
1041.040	-506
1041.102	-2523
1041.164	-2563
1041.225	-2456
1041.287	-2307
1041.349	-2194
1041.411	-2339
1041.472	-1739
1041.534	-2570
1041.596	-2563
1041.657	-1580
1041.719	-2418
1041.781	-2235
1041.842	-2484
1041.904	-2113
1041.965	-2351
1042.027	-2417
1042.088	-2135
1042.150	-2488
1042.211	-1700
1042.272	-1488
1042.334	-2388
1042.395	-2627
1042.456	-1790
1042.518	-1717
1042.579	-2255
1042.640	-2027
1042.701	-1574
1042.763	-1970
1042.824	-2293
1042.885	-2887
1042.946	-2265
1043.007	-1746
1043.068	-2293
1043.129	-1819
1043.190	-3211
1043.251	-2130
1043.312	-2827
1043.373	-2362
1043.434	-1937
1043.495	-2404
1043.556	-1992
1043.616	-2292
1043.677	-2451
1043.738	-2016
1043.799	-2455
1043.859	-2046
1043.920	-2421
1043.981	-1386
1044.041	-1724
1044.102	-2396
1044.162	-2383
1044.223	-2258
1044.284	-1658
1044.344	-2090
1044.405	-2783
1044.465	-2393
1044.525	-2314
1044.586	-2154
1044.646	-1679
1044.707	-2550
1044.767	-2158
1044.827	-2266
1044.887	-1815
1044.948	-1848
1045.008	-1436
1045.068	-2049
1045.128	-1910
1045.188	-2150
1045.249	-1592
1045.309	-2672
1045.369	-2113
1045.429	-1944
1045.489	-1942
1045.549	-1497
1045.609	-2031
1045.669	-2220
1045.729	-2046
1045.789	-1456
1045.848	-1769
1045.908	-2288
1045.968	-1967
1046.028	-1153
1046.088	-1483
1046.147	-858
1046.207	-2188
1046.267	-1705
1046.326	-741
1046.386	-2407
1046.446	-903
1046.505	-941
1046.565	-1606
1046.624	-1265
1046.684	-1244
1046.743	-963
1046.803	-363
1046.862	407
1046.922	0
