'Start Wavelength	183.907
'End Wavelength	1046.922
'Gate Delay	5.000
'Gate Width (ms)	1.050
'Laser Output Level	0.000
'X Position	0.000
'Y Position	0.000
'Z Position	0.000
'Grid Point Number	1.000
'Shot Number	100.000
183.907	505.000
183.977	-420.000
184.047	321
184.116	-300
184.186	157
184.256	281
184.325	485
184.395	-12
184.465	808
184.534	986
184.604	-452
184.674	1308
184.743	-86
184.813	395
184.883	9
184.952	765
185.022	154
185.092	-75
185.161	591
185.231	-450
185.301	-475
185.370	178
185.440	105
185.509	-228
185.579	-752
185.649	210
185.718	-45
185.788	741
185.857	-953
185.927	-314
185.996	-67
186.066	482
186.136	-402
186.205	281
186.275	152
186.344	124
186.414	135
186.483	-438
186.553	659
186.622	1131
186.692	350
186.761	397
186.831	102
186.900	28
186.970	241
187.039	478
187.109	244
187.178	-78
187.248	-9
187.317	-130
187.387	-109
187.456	-18
187.526	326
187.595	-100
187.664	-146
187.734	167
187.803	-328
187.873	513
187.942	-368
188.012	265
188.081	259
188.150	601
188.220	-112
188.289	117
188.358	-197
188.428	767
188.497	214
188.567	1155
188.636	198
188.705	-112
188.775	217
188.844	-1115
188.913	179
188.983	310
189.052	-738
189.121	184
189.191	-258
189.260	104
189.329	130
189.399	-88
189.468	727
189.537	130
189.606	138
189.676	72
189.745	831
189.814	591
189.883	148
189.953	-10
190.022	323
190.091	-65
190.161	-99
190.230	165
190.299	-454
190.368	-4
190.437	-121
190.507	304
190.576	-785
190.645	444
190.714	-52
190.783	-1101
190.853	-322
190.922	93
190.991	-135
191.060	41
191.129	-494
191.198	464
191.268	-579
191.337	-54
191.406	774
191.475	644
191.544	-880
191.613	66
191.682	-45
191.752	119
191.821	-369
191.890	-684
191.959	-366
192.028	589
192.097	287
192.166	-48
192.235	-616
192.304	159
192.373	-656
192.442	-140
192.511	-298
192.580	-730
192.650	-49
192.719	-576
192.788	-204
192.857	63
192.926	-768
192.995	-390
193.064	116
193.133	-37
193.202	-375
193.271	-96
193.340	469
193.409	-354
193.478	-279
193.547	17
193.615	-83
193.684	-215
193.753	-543
193.822	91
193.891	-178
193.960	-437
194.029	-807
194.098	23
194.167	107
194.236	811
194.305	378
194.374	575
194.443	-124
194.512	-167
194.580	-647
194.649	-218
194.718	-315
194.787	405
194.856	-364
194.925	132
194.994	-939
195.062	-65
195.131	21
195.200	19
195.269	-322
195.338	-321
195.407	135
195.475	-643
195.544	78
195.613	-372
195.682	502
195.751	-245
195.819	-515
195.888	65
195.957	525
196.026	-422
196.094	256
196.163	-47
196.232	16
196.301	-493
196.369	-30
196.438	556
196.507	-358
196.576	-478
196.644	-7
196.713	-143
196.782	-79
196.850	623
196.919	-306
196.988	-10
197.056	-143
197.125	-124
197.194	-729
197.262	538
197.331	-53
197.400	232
197.468	-196
197.537	-154
197.606	131
197.674	7
197.743	148
197.812	-494
197.880	441
197.949	-97
198.017	21
198.086	-829
198.155	139
198.223	-106
198.292	39
198.360	-301
198.429	-195
198.497	-164
198.566	-714
198.635	-323
198.703	-615
198.772	248
198.840	-447
198.909	-710
198.977	-1074
199.046	-546
199.114	251
199.183	166
199.251	-1022
199.320	-150
199.388	190
199.457	-442
199.525	-697
199.594	25
199.662	-370
199.731	-158
199.799	-542
199.867	311
199.936	-71
200.004	542
200.073	729
200.141	255
200.210	-93
200.278	85
200.346	-944
200.415	-224
200.483	-910
200.552	284
200.620	229
200.688	-67
200.757	-60
200.825	-26
200.893	-54
200.962	323
201.030	67
201.098	-322
201.167	262
201.235	-458
201.303	-331
201.372	-30
201.440	-97
201.508	-473
201.577	212
201.645	-141
201.713	-639
201.781	-631
201.850	331
201.918	-670
201.986	-797
202.055	47
202.123	-359
202.191	154
202.259	154
202.327	-728
202.396	-51
202.464	60
202.532	-955
202.600	-91
202.669	-517
202.737	-206
202.805	-173
202.873	-159
202.941	-509
203.009	659
203.078	-178
203.146	131
203.214	-520
203.282	-302
203.350	-122
203.418	280
203.487	-268
203.555	-197
203.623	-335
203.691	244
203.759	-691
203.827	-256
203.895	391
203.963	-797
204.031	83
204.099	107
204.168	-923
204.236	1084
204.304	116
204.372	277
204.440	-425
204.508	-271
204.576	-579
204.644	-259
204.712	-675
204.780	-809
204.848	373
204.916	-413
204.984	-176
205.052	-198
205.120	407
205.188	-53
205.256	-612
205.324	-2
205.392	-3
205.460	27
205.528	-823
205.596	-907
205.664	-478
205.732	-128
205.799	-703
205.867	495
205.935	-927
206.003	302
206.071	-8
206.139	-871
206.207	-380
206.275	-351
206.343	-158
206.411	-155
206.478	177
206.546	-502
206.614	-236
206.682	324
206.750	-576
206.818	474
206.885	76
206.953	-1284
207.021	87
207.089	17
207.157	-1019
207.225	-194
207.292	-970
207.360	208
207.428	-749
207.496	-496
207.563	-35
207.631	245
207.699	-718
207.767	-384
207.834	-487
207.902	-420
207.970	-208
208.038	-469
208.105	-103
208.173	-1144
208.241	-428
208.309	-383
208.376	-370
208.444	-777
208.512	-433
208.579	-754
208.647	9
208.715	418
208.782	-505
208.850	372
208.918	-785
208.985	-817
209.053	-361
209.120	-445
209.188	-426
209.256	-284
209.323	-1342
209.391	-655
209.459	788
209.526	-401
209.594	-313
209.661	-863
209.729	101
209.796	-203
209.864	-688
209.932	-700
209.999	872
210.067	-361
210.134	-312
210.202	-668
210.269	-131
210.337	456
210.404	-343
210.472	-581
210.539	-69
210.607	-1003
210.674	-661
210.742	-12
210.809	287
210.877	378
210.944	-414
211.012	-1088
211.079	620
211.146	-452
211.214	-656
211.281	-789
211.349	-633
211.416	-288
211.484	-373
211.551	-720
211.618	-230
211.686	-705
211.753	-264
211.821	-63
211.888	309
211.955	-761
212.023	15
212.090	-441
212.157	-684
212.225	-474
212.292	-476
212.359	-792
212.427	272
212.494	-238
212.561	228
212.629	127
212.696	-460
212.763	-252
212.831	-977
212.898	331
212.965	-374
213.032	-256
213.100	-338
213.167	-1277
213.234	-412
213.301	60
213.369	-860
213.436	-544
213.503	-678
213.570	-157
213.638	137
213.705	-460
213.772	-811
213.839	-913
213.906	-152
213.973	-611
214.041	-816
214.108	-290
214.175	-60
214.242	-361
214.309	-418
214.376	-882
214.444	-486
214.511	-340
214.578	-123
214.645	126
214.712	46
214.779	-883
214.846	-1131
214.913	-235
214.980	230
215.048	-124
215.115	857
215.182	281
215.249	-338
215.316	25
215.383	-46
215.450	-15
215.517	-613
215.584	-79
215.651	-773
215.718	-642
215.785	264
215.852	-801
215.919	-15
215.986	-297
216.053	-1109
216.120	-889
216.187	408
216.254	-833
216.321	-407
216.388	-390
216.455	-225
216.522	-534
216.589	-868
216.656	-544
216.722	-438
216.789	-637
216.856	-1279
216.923	-552
216.990	252
217.057	-1200
217.124	-100
217.191	-756
217.258	-477
217.324	-621
217.391	-299
217.458	-390
217.525	-1246
217.592	-623
217.659	-1521
217.725	603
217.792	-540
217.859	101
217.926	-840
217.993	-600
218.059	-130
218.126	-30
218.193	-322
218.260	-468
218.327	-475
218.393	-1393
218.460	-93
218.527	-868
218.594	28
218.660	-873
218.727	29
218.794	-894
218.860	-21
218.927	-120
218.994	-407
219.061	-687
219.127	-1247
219.194	-140
219.261	-751
219.327	-565
219.394	-131
219.461	-617
219.527	-477
219.594	-435
219.661	-602
219.727	-1283
219.794	481
219.860	-1502
219.927	-439
219.994	482
220.060	1255
220.127	1805
220.193	493
220.260	89
220.326	266
220.393	0
220.460	-557
220.526	-1393
220.593	-955
220.659	868
220.726	-768
220.792	-385
220.859	-1105
220.925	-295
220.992	-856
221.058	-469
221.125	-937
221.191	-463
221.258	-400
221.324	27
221.391	-484
221.457	-674
221.524	-197
221.590	-781
221.657	-121
221.723	-861
221.789	-867
221.856	-246
221.922	-1560
221.989	234
222.055	371
222.121	-1074
222.188	663
222.254	-1077
222.321	435
222.387	-330
222.453	-465
222.520	-131
222.586	-1622
222.652	110
222.719	-765
222.785	-231
222.851	-507
222.918	-51
222.984	-784
223.050	-372
223.116	-1109
223.183	-333
223.249	-894
223.315	-1138
223.382	-719
223.448	154
223.514	-675
223.580	-805
223.647	-983
223.713	-1081
223.779	-599
223.845	0
223.911	-152
223.978	-913
224.044	-790
224.110	-680
224.176	140
224.242	-710
224.309	-1187
224.375	-407
224.441	-451
224.507	198
224.573	-1160
224.639	-912
224.705	-504
224.772	126
224.838	-1258
224.904	439
224.970	-933
225.036	-1081
225.102	-825
225.168	-477
225.234	-40
225.300	-718
225.366	-623
225.432	-137
225.499	-130
225.565	-1023
225.631	-893
225.697	-177
225.763	-629
225.829	-340
225.895	-777
225.961	-554
226.027	-1051
226.093	-814
226.159	358
226.225	83
226.291	-1016
226.357	-854
226.423	-597
226.489	-256
226.554	-612
226.620	-11
226.686	-243
226.752	-258
226.818	-792
226.884	-302
226.950	-368
227.016	-1199
227.082	-340
227.148	30
227.214	-338
227.279	-602
227.345	18
227.411	-18
227.477	857
227.543	3330
227.609	3118
227.674	1521
227.740	164
227.806	431
227.872	-538
227.938	-469
228.003	-376
228.069	-393
228.135	-1223
228.201	-917
228.267	-227
228.332	-292
228.398	-2046
228.464	-12
228.530	-1254
228.595	-607
228.661	-1375
228.727	-779
228.792	980
228.858	-1061
228.924	-1705
228.990	141
229.055	-1280
229.121	-357
229.187	70
229.252	-822
229.318	-507
229.384	-598
229.449	-729
229.515	-2068
229.581	-1606
229.646	1208
229.712	-822
229.777	-318
229.843	-1101
229.909	-1176
229.974	248
230.040	-690
230.105	-1055
230.171	-1674
230.236	-675
230.302	-675
230.368	-684
230.433	-1872
230.499	-351
230.564	-665
230.630	-905
230.695	-991
230.761	240
230.826	-1045
230.892	653
230.957	-2106
231.023	-650
231.088	-888
231.154	-220
231.219	-21
231.284	-1159
231.350	-567
231.415	-946
231.481	214
231.546	-839
231.612	-451
231.677	-1291
231.742	-1873
231.808	736
231.873	-1090
231.939	-2372
232.004	536
232.069	-15
232.135	-615
232.200	-939
232.265	-1075
232.331	-1230
232.396	-1147
232.461	-1367
232.527	-136
232.592	-1904
232.657	-228
232.723	-567
232.788	-480
232.853	405
232.918	-486
232.984	-1014
233.049	-242
233.114	-1251
233.179	159
233.245	-361
233.310	-198
233.375	-1575
233.440	-239
233.506	-1619
233.571	-622
233.636	-267
233.701	-705
233.766	-1371
233.832	-449
233.897	-910
233.962	-1457
234.027	559
234.092	-54
234.157	-715
234.222	-725
234.288	-335
234.353	-314
234.418	78
234.483	228
234.548	-1053
234.613	-752
234.678	-653
234.743	-1134
234.808	-348
234.873	-1901
234.938	-303
235.004	-1008
235.069	-692
235.134	-1289
235.199	-95
235.264	-811
235.329	-2071
235.394	-347
235.459	-888
235.524	-933
235.589	-872
235.654	-1033
235.719	-1573
235.784	-670
235.849	-555
235.913	-862
235.978	-781
236.043	-363
236.108	-1269
236.173	-908
236.238	-92
236.303	-1055
236.368	-947
236.433	-259
236.498	-1667
236.563	-1313
236.627	-1191
236.692	-504
236.757	-1310
236.822	-195
236.887	-1209
236.952	-655
237.017	-1589
237.081	-60
237.146	-1564
237.211	-137
237.276	-1244
237.341	-364
237.405	-815
237.470	-879
237.535	-991
237.600	-78
237.664	873
237.729	-1583
237.794	-1565
237.859	-328
237.923	-500
237.988	-1143
238.053	-530
238.118	-680
238.182	-339
238.247	533
238.312	-2143
238.376	-764
238.441	-1854
238.506	96
238.570	-1571
238.635	363
238.700	-306
238.764	-413
238.829	-428
238.893	-1270
238.958	-673
239.023	-870
239.087	-840
239.152	-257
239.216	-1353
239.281	-542
239.346	-445
239.410	-517
239.475	-1144
239.539	3
239.604	-1816
239.668	-116
239.733	79
239.797	2184
239.862	6259
239.926	4378
239.991	1617
240.055	916
240.120	-486
240.184	-469
240.249	-731
240.313	-141
240.378	-1014
240.442	-1145
240.507	-1104
240.571	-593
240.635	-1295
240.700	-731
240.764	-842
240.829	-393
240.893	-1640
240.957	-253
241.022	-203
241.086	229
241.151	-1456
241.215	-1325
241.279	281
241.344	-970
241.408	-75
241.472	-796
241.537	-244
241.601	-15
241.665	-1547
241.730	-928
241.794	97
241.858	-1815
241.922	-861
241.987	-616
242.051	-1852
242.115	-1506
242.179	-35
242.244	-417
242.308	59
242.372	-826
242.436	-1076
242.501	-1064
242.565	-1943
242.629	-1385
242.693	52
242.757	-1351
242.822	-1528
242.886	26
242.950	-588
243.014	-1359
243.078	-755
243.142	-793
243.206	-52
243.271	-681
243.335	-1005
243.399	86
243.463	-807
243.527	-572
243.591	-1665
243.655	-670
243.719	-1603
243.783	-24
243.847	-459
243.911	190
243.975	-1103
244.040	-1564
244.104	576
244.168	-335
244.232	-761
244.296	-783
244.360	-775
244.424	-494
244.488	-367
244.552	-308
244.615	-1299
244.679	147
244.743	-1076
244.807	-1199
244.871	-148
244.935	-520
244.999	-977
245.063	-780
245.127	-707
245.191	-676
245.255	-827
245.319	-302
245.383	-1665
245.446	572
245.510	-1216
245.574	-521
245.638	121
245.702	-2236
245.766	-874
245.829	-358
245.893	-1114
245.957	-928
246.021	157
246.085	-805
246.149	-876
246.212	-269
246.276	-1213
246.340	-987
246.404	-948
246.467	255
246.531	-2523
246.595	380
246.659	-199
246.722	-1420
246.786	-909
246.850	-460
246.913	-766
246.977	-1825
247.041	-817
247.104	-1031
247.168	-297
247.232	-408
247.295	-1290
247.359	91
247.423	-89
247.486	-516
247.550	264
247.614	-819
247.677	-748
247.741	-372
247.804	-731
247.868	67
247.932	-826
247.995	155
248.059	-1168
248.122	-1478
248.186	-229
248.249	-520
248.313	542
248.376	1225
248.440	-873
248.503	-1488
248.567	304
248.630	-1164
248.694	-487
248.757	-277
248.821	1069
248.884	595
248.948	-885
249.011	129
249.075	360
249.138	1097
249.202	-522
249.265	-1036
249.328	-118
249.392	-1093
249.455	155
249.519	-1621
249.582	-350
249.645	-109
249.709	-592
249.772	-1197
249.835	-777
249.899	-1333
249.962	235
250.025	-1430
250.089	-747
250.152	316
250.215	-141
250.279	-1407
250.342	-398
250.405	-557
250.468	-1269
250.532	-1305
250.595	41
250.658	-951
250.721	-335
250.785	-1030
250.848	-79
250.911	-808
250.974	-165
251.038	-1241
251.101	187
251.164	-1082
251.227	-906
251.290	-734
251.354	-708
251.417	-736
251.480	-1298
251.543	-186
251.606	-821
251.669	-67
251.732	-160
251.795	-1093
251.859	-160
251.922	-1140
251.985	-160
252.048	-391
252.111	-1404
252.174	-1376
252.237	176
252.300	882
252.363	-757
252.426	543
252.489	-1173
252.552	-520
252.615	-1209
252.678	-140
252.741	-168
252.804	-323
252.867	-302
252.930	523
252.993	-265
253.056	-450
253.119	-1162
253.182	-1633
253.245	-1063
253.308	-367
253.371	-1139
253.434	-748
253.497	104
253.559	343
253.622	-1219
253.685	-489
253.748	-175
253.811	-966
253.874	-933
253.937	-1720
254.000	-622
254.062	-878
254.125	-948
254.188	-45
254.251	-364
254.314	-1062
254.376	-678
254.439	-709
254.502	-827
254.565	-219
254.628	345
254.690	-1242
254.753	-1652
254.816	-836
254.878	-433
254.941	119
255.004	-397
255.067	-372
255.129	-1486
255.192	-184
255.255	-1796
255.317	-960
255.380	-8
255.443	-1242
255.505	-760
255.568	-1430
255.631	-666
255.693	-641
255.756	-1519
255.819	1138
255.881	-1557
255.944	-492
256.006	-1166
256.069	-824
256.132	-313
256.194	-170
256.257	-1321
256.319	-382
256.382	-673
256.444	732
256.507	-309
256.569	-1110
256.632	-820
256.694	-1757
256.757	220
256.819	791
256.882	-1376
256.944	-1253
257.007	-84
257.069	-690
257.132	-903
257.194	261
257.257	-834
257.319	-1678
257.381	-1410
257.444	528
257.506	-739
257.569	-1431
257.631	-849
257.693	-714
257.756	-83
257.818	-1462
257.880	-611
257.943	-56
258.005	-1546
258.067	-1295
258.130	-416
258.192	-994
258.254	-1739
258.317	-528
258.379	-315
258.441	-1745
258.503	-384
258.566	-640
258.628	-356
258.690	-1292
258.753	-429
258.815	-783
258.877	-1139
258.939	-54
259.001	-505
259.064	-840
259.126	-1394
259.188	-1550
259.250	-443
259.312	-1182
259.375	-810
259.437	-407
259.499	-1194
259.561	-845
259.623	-522
259.685	-1297
259.747	-825
259.809	-251
259.872	-1232
259.934	-462
259.996	-1221
260.058	-741
260.120	-795
260.182	-412
260.244	-53
260.306	-1206
260.368	-292
260.430	-1598
260.492	-954
260.554	-426
260.616	-1337
260.678	-883
260.740	20
260.802	-1457
260.864	196
260.926	-718
260.988	107
261.050	-1308
261.112	-1240
261.174	-96
261.236	-613
261.298	-330
261.359	140
261.421	620
261.483	-1479
261.545	496
261.607	-1656
261.669	-586
261.731	-182
261.793	-308
261.854	-2240
261.916	-77
261.978	-1627
262.040	-710
262.102	76
262.164	-1451
262.225	-753
262.287	-587
262.349	-1260
262.411	-491
262.472	246
262.534	-1002
262.596	-1263
262.658	-491
262.719	-1362
262.781	40
262.843	-1557
262.904	-829
262.966	-500
263.028	-1046
263.090	376
263.151	-765
263.213	60
263.275	-1024
263.336	-1289
263.398	245
263.459	-653
263.521	-405
263.583	-469
263.644	-524
263.706	-1291
263.767	-1013
263.829	-83
263.891	-697
263.952	-1048
264.014	-880
264.075	-1288
264.137	-226
264.198	-106
264.260	-1282
264.321	-646
264.383	-782
264.444	-651
264.506	-1118
264.567	-514
264.629	-363
264.690	-2288
264.752	-824
264.813	-1079
264.875	-971
264.936	-116
264.998	-812
265.059	-680
265.120	361
265.182	-1043
265.243	-1147
265.305	-371
265.366	-298
265.427	-1011
265.489	-133
265.550	-1928
265.611	-957
265.673	-828
265.734	-173
265.795	55
265.857	-983
265.918	-1100
265.979	255
266.040	-1078
266.102	-1287
266.163	-22
266.224	-598
266.286	-590
266.347	-978
266.408	-1099
266.469	-1030
266.530	-885
266.592	-356
266.653	-850
266.714	-426
266.775	-356
266.836	-1029
266.898	-1624
266.959	-1633
267.020	-1065
267.081	-202
267.142	-622
267.203	-824
267.264	-1431
267.326	223
267.387	-719
267.448	-1206
267.509	-855
267.570	-463
267.631	-943
267.692	-1331
267.753	141
267.814	-1279
267.875	-809
267.936	-888
267.997	-724
268.058	-1238
268.119	-958
268.180	-1026
268.241	-1646
268.302	-410
268.363	-764
268.424	-779
268.485	-605
268.546	-1286
268.607	-459
268.668	-546
268.729	-1139
268.790	-836
268.851	-286
268.912	-1481
268.972	-1207
269.033	-1617
269.094	-626
269.155	-741
269.216	-636
269.277	-1050
269.338	-961
269.398	-524
269.459	-1574
269.520	-703
269.581	-1372
269.642	-1135
269.702	-1060
269.763	-592
269.824	-267
269.885	-351
269.945	146
270.006	-716
270.067	-987
270.128	-1198
270.188	-1384
270.249	-1383
270.310	-1035
270.370	-1210
270.431	-847
270.492	-413
270.553	-523
270.613	-1013
270.674	-344
270.734	-1135
270.795	-552
270.856	-1555
270.916	-540
270.977	-824
271.038	-445
271.098	-563
271.159	-966
271.219	-1254
271.280	-336
271.340	-460
271.401	-1160
271.462	-907
271.522	-868
271.583	-353
271.643	-223
271.704	-25
271.764	-1148
271.825	-1369
271.885	653
271.946	807
272.006	345
272.066	-269
272.127	981
272.187	2872
272.248	689
272.308	-835
272.369	632
272.429	-974
272.489	-1044
272.550	-740
272.610	-425
272.671	-615
272.731	-258
272.791	-1120
272.852	-1588
272.912	-1210
272.972	-526
273.033	20
273.093	-1249
273.153	-723
273.214	-1296
273.274	-1120
273.334	-1004
273.394	-631
273.455	-336
273.515	-976
273.575	-844
273.635	-295
273.696	-84
273.756	-850
273.816	-225
273.876	-377
273.936	-1123
273.997	-468
274.057	-946
274.117	-1026
274.177	35
274.237	-259
274.297	-264
274.358	-321
274.418	-215
274.478	48
274.538	-234
274.598	-1842
274.658	-393
274.718	-684
274.778	-262
274.838	-177
274.898	-541
274.958	-302
275.018	218
275.078	-277
275.138	-1372
275.198	-912
275.258	-421
275.318	-678
275.378	-369
275.438	-166
275.498	-695
275.558	-448
275.618	-60
275.678	-105
275.738	-790
275.798	-367
275.858	-1303
275.918	-358
275.978	-671
276.038	-331
276.098	-498
276.157	-1495
276.217	-389
276.277	-779
276.337	-773
276.397	-503
276.457	-428
276.517	-739
276.576	-1030
276.636	-947
276.696	-979
276.756	-788
276.815	-1113
276.875	-802
276.935	-838
276.995	-485
277.055	-508
277.114	-276
277.174	36
277.234	-43
277.293	-1048
277.353	-567
277.413	-172
277.472	-953
277.532	-944
277.592	-404
277.651	-686
277.711	687
277.771	-399
277.830	641
277.890	1113
277.950	182
278.009	3742
278.069	1261
278.128	696
278.188	998
278.248	-606
278.307	657
278.367	764
278.426	-399
278.486	-1051
278.545	-12
278.605	-378
278.664	-322
278.724	-1047
278.783	-116
278.843	175
278.902	-581
278.962	-649
279.021	-412
279.081	21
279.140	114
279.199	-658
279.259	-498
279.318	-261
279.378	151
279.437	544
279.496	5009
279.556	12927
279.615	11514
279.675	1962
279.734	542
279.793	754
279.853	4545
279.912	963
279.971	192
280.031	-305
280.090	1145
280.149	3301
280.208	1215
280.268	6357
280.327	8888
280.386	1360
280.445	466
280.505	-386
280.564	196
280.623	-915
280.682	-316
280.742	-626
280.801	5
280.860	-606
280.919	-1539
280.978	-225
281.037	-892
281.097	-1116
281.156	54
281.215	-471
281.274	-763
281.333	-60
281.392	-541
281.451	-127
281.510	-273
281.569	-298
281.628	-458
281.688	-727
281.747	30
281.806	-1162
281.865	-255
281.924	-1173
281.983	-1063
282.042	-726
282.101	-521
282.160	-272
282.219	-1098
282.278	-206
282.337	-873
282.396	-347
282.454	-450
282.513	-755
282.572	-646
282.631	-384
282.690	-115
282.749	-1222
282.808	-964
282.867	-469
282.926	-956
282.985	-822
283.043	-957
283.102	-584
283.161	-73
283.220	-365
283.279	-1024
283.338	-431
283.396	-367
283.455	-435
283.514	-257
283.573	-217
283.631	-560
283.690	-375
283.749	-797
283.808	-1224
283.866	346
283.925	-1034
283.984	-281
284.043	-872
284.101	381
284.160	-240
284.219	-275
284.277	78
284.336	-443
284.395	250
284.453	302
284.512	-314
284.570	-201
284.629	-832
284.688	455
284.746	-573
284.805	-155
284.863	-298
284.922	-42
284.981	588
285.039	1163
285.098	1996
285.156	6722
285.215	27665
285.273	29864
285.332	10192
285.390	4488
285.449	2135
285.507	860
285.566	61
285.624	642
285.683	-405
285.741	61
285.799	-305
285.858	-82
285.916	-716
285.975	-504
286.033	-392
286.091	28
286.150	-467
286.208	-150
286.267	-1165
286.325	-504
286.383	-1050
286.442	-907
286.500	-1330
286.558	-359
286.616	-98
286.675	-86
286.733	-449
286.791	-279
286.850	-623
286.908	-692
286.966	93
287.024	-839
287.083	-37
287.141	-482
287.199	395
287.257	-262
287.315	-438
287.374	-637
287.432	51
287.490	-3
287.548	-459
287.606	-470
287.664	-684
287.723	-169
287.781	-376
287.839	-820
287.897	-525
287.955	107
288.013	-1256
288.071	-376
288.129	107
288.187	1032
288.245	-82
288.303	-463
288.361	-219
288.419	-344
288.477	-738
288.535	200
288.593	-514
288.651	-209
288.709	-1105
288.767	-924
288.825	-54
288.883	-688
288.941	9
288.999	-995
289.057	-762
289.115	-563
289.173	-768
289.231	-376
289.289	-1028
289.346	170
289.404	-252
289.462	-557
289.520	-646
289.578	-697
289.636	-271
289.694	-597
289.751	-393
289.809	-348
289.867	-908
289.925	52
289.983	-555
290.040	-249
290.098	-1021
290.156	-1364
290.214	-445
290.271	-396
290.329	298
290.387	59
290.444	-835
290.502	-375
290.560	53
290.617	-81
290.675	-832
290.733	-402
290.790	218
290.848	-364
290.906	-742
290.963	-280
291.021	-58
291.078	-888
291.136	-875
291.194	44
291.251	-257
291.309	-300
291.366	-503
291.424	80
291.481	-314
291.539	-778
291.596	-722
291.654	-785
291.711	5
291.769	-64
291.826	376
291.884	-33
291.941	-195
291.999	-592
292.056	11
292.114	199
292.171	-534
292.228	-1
292.286	342
292.343	-295
292.401	-821
292.458	-85
292.515	-275
292.573	880
292.630	-745
292.687	-440
292.745	-724
292.802	-6
292.859	-100
292.917	-804
292.974	-641
293.031	-161
293.089	-1121
293.146	-817
293.203	-43
293.260	-9
293.318	-756
293.375	-149
293.432	-634
293.489	135
293.546	-325
293.604	-542
293.661	-42
293.718	810
293.775	690
293.832	314
293.889	-428
293.947	370
294.004	22
294.061	-876
294.118	-420
294.175	-509
294.232	321
294.289	-240
294.346	-831
294.403	-445
294.460	-280
294.517	-1105
294.574	-225
294.631	177
294.688	-47
294.745	-434
294.802	278
294.859	279
294.916	-9
294.973	-42
295.030	-1248
295.087	431
295.144	-684
295.201	-527
295.258	-1066
295.315	-15
295.372	-454
295.429	508
295.486	631
295.542	-1127
295.599	-764
295.656	-201
295.713	-944
295.770	-497
295.827	-380
295.883	-226
295.940	-58
295.997	24
296.054	-897
296.111	-721
296.167	71
296.224	-475
296.281	-387
296.338	-139
296.394	-1002
296.451	-926
296.508	-727
296.564	-838
296.621	455
296.678	1045
296.734	1130
296.791	188
296.848	-614
296.904	-1493
296.961	-83
297.018	188
297.074	-325
297.131	-367
297.187	885
297.244	-887
297.301	45
297.357	1722
297.414	-169
297.470	-189
297.527	-486
297.583	-595
297.640	-727
297.696	-642
297.753	-520
297.809	-571
297.866	-487
297.922	-195
297.979	-792
298.035	-572
298.092	-571
298.148	-68
298.204	303
298.261	-113
298.317	210
298.374	1487
298.430	1207
298.486	-129
298.543	-466
298.599	268
298.656	-398
298.712	-319
298.768	-750
298.824	-627
298.881	-714
298.937	-525
298.993	-439
299.050	-659
299.106	629
299.162	-652
299.218	-213
299.275	254
299.331	-170
299.387	111
299.443	2785
299.500	7671
299.556	7534
299.612	2913
299.668	1984
299.724	5950
299.780	10829
299.837	3682
299.893	2167
299.949	4882
300.005	9196
300.061	6690
300.117	11623
300.173	5836
300.229	1280
300.285	302
300.341	408
300.397	1234
300.453	816
300.510	320
300.566	952
300.622	2277
300.678	11591
300.734	17656
300.790	7907
300.845	3281
300.901	6327
300.957	11095
301.013	4758
301.069	2047
301.125	1303
301.181	1204
301.237	640
301.293	192
301.349	65
301.405	-691
301.461	-310
301.516	-194
301.572	-696
301.628	95
301.684	-324
301.740	-367
301.796	-184
301.851	696
301.907	381
301.963	-327
302.019	326
302.074	4657
302.130	4929
302.186	2093
302.242	27
302.297	-431
302.353	54
302.409	127
302.464	-519
302.520	8
302.576	-455
302.631	988
302.687	28
302.743	-520
302.798	-141
302.854	-696
302.910	208
302.965	-264
303.021	383
303.076	597
303.132	-20
303.187	-314
303.243	160
303.299	-447
303.354	-398
303.410	-960
303.465	-604
303.521	-625
303.576	-207
303.632	461
303.687	446
303.743	147
303.798	914
303.853	48
303.909	-434
303.964	-748
304.020	-347
304.075	-257
304.130	-1196
304.186	-70
304.241	23
304.297	-866
304.352	-434
304.358	-410
304.407	-218
304.449	-147
304.463	-121
304.518	-175
304.539	-130
304.573	-75
304.629	-306
304.630	-313
304.684	-630
304.720	-451
304.739	-355
304.794	1160
304.811	883
304.850	213
304.902	-824
304.905	-892
304.960	-327
304.992	-310
305.015	-308
305.071	-331
305.083	-295
305.126	-198
305.173	-629
305.181	-689
305.236	-553
305.264	-356
305.292	-210
305.347	-1094
305.354	-1047
305.402	-653
305.445	-346
305.457	-277
305.512	-203
305.535	-255
305.567	-264
305.622	-413
305.626	-391
305.678	-105
305.716	190
305.733	326
305.788	352
305.807	369
305.843	384
305.897	178
305.898	175
305.953	818
305.988	724
306.008	679
306.063	89
306.078	20
306.118	-159
306.168	-652
306.173	-692
306.228	-132
306.259	-268
306.283	-391
306.338	-418
306.349	-419
306.393	-458
306.440	-386
306.448	-363
306.503	179
306.530	-200
306.558	-528
306.613	-493
306.620	-473
306.668	-485
306.711	-310
306.723	-272
306.778	-377
306.801	-278
306.833	-36
306.888	-167
306.892	-147
306.943	43
306.982	-196
306.997	-286
307.052	-377
307.072	-412
307.107	-473
307.162	-511
307.163	-518
307.217	-843
307.253	-449
307.272	-281
307.327	-258
307.343	-124
307.381	116
307.434	-397
307.436	-417
307.491	-508
307.524	-405
307.546	-312
307.600	-458
307.614	-314
307.655	86
307.704	-224
307.710	-240
307.765	-705
307.795	-316
307.819	-127
307.874	97
307.885	-16
307.929	-210
307.975	57
307.984	72
308.038	69
308.065	-8
308.093	-123
308.148	-186
308.156	-274
308.202	-672
308.246	-505
308.257	-425
308.312	-192
308.336	-73
308.366	102
308.421	-79
308.426	-75
308.475	-77
308.517	-131
308.530	-190
308.585	-239
308.607	-192
308.639	-111
308.694	-491
308.697	-488
308.748	-13
308.787	191
308.803	116
308.857	-164
308.877	-246
308.912	-179
308.967	-142
308.967	-143
309.021	132
309.058	338
309.076	380
309.130	388
309.148	295
309.185	364
309.238	1272
309.239	1280
309.293	862
309.328	633
309.348	529
309.402	154
309.418	27
309.457	117
309.508	93
309.511	89
309.566	517
309.598	564
309.620	607
309.674	794
309.688	930
309.729	1172
309.778	854
309.783	836
309.837	564
309.868	652
309.892	712
309.946	565
309.959	613
310.001	648
310.049	330
310.055	310
310.109	286
310.139	161
310.163	46
310.218	122
310.229	121
310.272	336
310.319	344
310.326	351
310.381	626
310.409	734
310.435	656
310.489	447
310.499	397
310.543	450
310.589	593
310.598	604
310.652	492
310.679	536
310.706	677
310.760	774
310.769	797
310.814	777
310.859	717
310.868	758
310.923	1021
310.948	1129
310.977	974
311.031	433
311.038	390
311.085	397
311.128	371
311.139	367
311.193	309
311.218	273
311.247	463
311.301	757
311.308	791
311.356	582
311.398	478
311.410	469
311.464	217
311.488	165
311.518	283
311.572	520
311.578	538
311.626	274
311.668	34
311.680	149
311.734	649
311.758	901
311.788	660
311.842	147
311.847	97
311.896	812
311.937	1441
311.950	1296
312.004	637
312.027	349
312.058	697
312.112	1323
312.117	1382
312.165	929
312.207	540
312.297	738
312.386	424
312.476	9
312.566	1032
312.656	245
312.745	378
312.835	115
312.925	714
313.015	775
313.104	620
313.194	1108
313.284	991
313.374	1081
313.463	1154
313.553	1532
313.643	380
313.732	920
313.822	698
313.912	1906
314.001	2155
314.091	1523
314.180	1320
314.270	1364
314.360	1384
314.449	1111
314.539	1065
314.628	1571
314.718	1886
314.808	965
314.897	1614
314.987	1899
315.076	1978
315.166	2162
315.255	2191
315.345	1845
315.434	1765
315.524	1571
315.613	1748
315.703	2222
315.792	6347
315.881	22466
315.971	7132
316.060	2305
316.150	1951
316.239	1745
316.328	696
316.418	1485
316.507	1458
316.597	2127
316.686	2026
316.775	1434
316.865	1832
316.954	1063
317.043	1172
317.133	854
317.222	1269
317.311	1059
317.400	-138
317.490	2162
317.579	1556
317.668	1235
317.757	2975
317.847	10824
317.936	35387
318.025	10210
318.114	7968
318.203	3861
318.293	1808
318.382	2808
318.471	3370
318.560	2559
318.649	1896
318.738	1398
318.828	1506
318.917	803
319.006	369
319.095	696
319.184	1243
319.273	1037
319.362	675
319.451	1207
319.540	1108
319.629	199
319.718	1634
319.807	804
319.896	723
319.985	1269
320.074	439
320.163	404
320.252	907
320.341	1526
320.430	1332
320.519	1221
320.608	1321
320.697	1938
320.786	1064
320.875	2439
320.964	3034
321.053	2202
321.142	2497
321.230	3168
321.319	3276
321.408	4424
321.497	4708
321.586	3980
321.675	3694
321.764	2482
321.852	2937
321.941	2715
322.030	2916
322.119	2787
322.207	4153
322.296	3925
322.385	5313
322.474	6932
322.562	6716
322.651	4746
322.740	3554
322.829	2688
322.917	2273
323.006	1732
323.095	1905
323.183	1578
323.272	1461
323.361	1657
323.449	2585
323.538	1122
323.626	1463
323.715	948
323.804	278
323.892	627
323.981	1243
324.069	1748
324.158	1539
324.246	813
324.335	1035
324.424	1983
324.512	1118
324.601	683
324.689	487
324.778	1080
324.866	1644
324.954	764
325.043	376
325.131	-77
325.220	1454
325.308	1816
325.397	714
325.485	447
325.574	375
325.662	1163
325.750	-79
325.839	928
325.927	1096
326.015	470
326.104	715
326.192	1602
326.280	842
326.369	396
326.457	486
326.545	1314
326.634	691
326.722	758
326.810	988
326.898	1717
326.987	947
327.075	315
327.163	1049
327.251	1080
327.340	774
327.428	1763
327.516	2440
327.604	1781
327.692	189
327.781	841
327.869	208
327.957	1221
328.045	308
328.133	822
328.221	247
328.309	629
328.397	1825
328.485	1826
328.574	2206
328.662	2550
328.750	1359
328.838	844
328.926	642
329.014	659
329.102	683
329.190	619
329.278	362
329.366	836
329.454	411
329.542	967
329.630	863
329.718	741
329.806	426
329.893	496
329.981	232
330.069	718
330.157	903
330.245	755
330.333	1450
330.421	531
330.509	576
330.597	741
330.684	1232
330.772	612
330.860	525
330.948	836
331.036	134
331.123	593
331.211	650
331.299	207
331.387	-113
331.475	589
331.562	766
331.650	194
331.738	494
331.825	751
331.913	888
332.001	970
332.089	200
332.176	775
332.264	1673
332.352	406
332.439	730
332.527	351
332.614	6
332.702	1208
332.790	1799
332.877	786
332.965	717
333.052	1770
333.140	341
333.228	933
333.315	1403
333.403	775
333.490	1516
333.578	897
333.665	2622
333.753	1859
333.840	1581
333.928	1594
334.015	2340
334.103	2783
334.190	2788
334.278	4904
334.365	7184
334.452	7252
334.540	4695
334.627	4520
334.715	5081
334.802	7540
334.889	12698
334.977	19341
335.064	12832
335.151	5386
335.239	4606
335.326	2724
335.413	2774
335.501	2848
335.588	3926
335.675	3943
335.762	4759
335.850	6184
335.937	9848
336.024	15346
336.111	25305
336.199	25504
336.286	11324
336.373	5564
336.460	3654
336.547	3454
336.635	2268
336.722	2117
336.809	1493
336.896	956
336.983	1541
337.070	1806
337.157	1568
337.245	1966
337.332	2207
337.419	1818
337.506	1947
337.593	1705
337.680	1052
337.767	1372
337.854	712
337.941	861
338.028	684
338.115	1038
338.202	1745
338.289	225
338.376	1053
338.463	1296
338.550	621
338.637	1047
338.724	1728
338.811	1550
338.898	1487
338.984	1131
339.071	569
339.158	677
339.245	812
339.332	854
339.419	1306
339.506	856
339.593	205
339.679	1455
339.766	934
339.853	2055
339.940	809
340.027	1000
340.113	943
340.200	1093
340.287	1584
340.374	299
340.460	1345
340.547	-506
340.634	1333
340.720	1227
340.807	583
340.894	1493
340.980	1048
341.067	608
341.154	1672
341.240	457
341.327	1316
341.414	958
341.500	610
341.587	1775
341.674	697
341.760	1606
341.847	921
341.933	1544
342.020	203
342.106	1248
342.193	499
342.279	730
342.366	291
342.452	730
342.539	11
342.625	804
342.712	1658
342.798	1106
342.885	410
342.971	533
343.058	1100
343.144	907
343.230	1993
343.317	900
343.403	360
343.490	817
343.576	786
343.662	1114
343.749	555
343.835	1569
343.921	1280
344.008	2675
344.094	4736
344.180	1749
344.267	514
344.353	1107
344.439	1248
344.525	377
344.612	343
344.698	811
344.784	303
344.870	1973
344.957	467
345.043	2131
345.129	559
345.215	962
345.301	580
345.387	404
345.474	443
345.560	50
345.646	-451
345.732	1771
345.818	709
345.904	982
345.990	1024
346.076	765
346.162	108
346.249	1859
346.335	684
346.421	1551
346.507	1133
346.593	1479
346.679	-501
346.765	1428
346.851	2481
346.937	810
347.023	1719
347.108	1127
347.194	962
347.280	1655
347.366	1790
347.452	4910
347.538	5586
347.624	3852
347.710	1566
347.796	1275
347.882	1388
347.967	1044
348.053	655
348.139	1257
348.225	612
348.311	511
348.397	1163
348.482	1037
348.568	1311
348.654	2183
348.740	7235
348.825	6751
348.911	3008
348.997	1320
349.083	2061
349.168	816
349.254	692
349.340	1258
349.425	1088
349.511	984
349.597	1067
349.682	-35
349.768	1959
349.854	1514
349.939	1807
350.025	1255
350.110	899
350.196	650
350.282	-261
350.367	1649
350.453	1599
350.538	1092
350.624	-271
350.709	992
350.795	660
350.880	121
350.966	1803
351.051	1400
351.137	631
351.222	1249
351.308	565
351.393	1232
351.479	810
351.564	403
351.649	416
351.735	977
351.820	633
351.906	878
351.991	-320
352.076	589
352.162	831
352.247	876
352.332	752
352.418	-153
352.503	673
352.588	1351
352.673	-11
352.759	1288
352.844	258
352.929	890
353.014	431
353.100	1124
353.185	1226
353.270	447
353.355	1150
353.441	608
353.526	349
353.611	723
353.696	493
353.781	1158
353.866	454
353.952	1000
354.037	-788
354.122	792
354.207	1032
354.292	530
354.377	-106
354.462	851
354.547	273
354.632	1467
354.717	1344
354.802	441
354.887	398
354.972	688
355.057	1013
355.142	306
355.227	843
355.312	676
355.397	565
355.482	835
355.567	104
355.652	1577
355.737	1174
355.822	1141
355.907	229
355.991	1574
356.076	-545
356.161	1172
356.246	757
356.331	1099
356.416	-478
356.501	1743
356.585	1356
356.670	-138
356.755	2048
356.840	1470
356.924	2565
357.009	4018
357.094	2026
357.179	1027
357.263	1202
357.348	556
357.433	1075
357.517	548
357.602	1156
357.687	919
357.771	1129
357.856	1402
357.941	723
358.025	1157
358.110	6430
358.195	2892
358.279	549
358.364	1114
358.448	1132
358.533	1912
358.617	1530
358.702	718
358.787	940
358.871	1288
358.956	999
359.040	536
359.125	527
359.209	532
359.294	847
359.378	2172
359.462	1177
359.547	1124
359.631	654
359.716	-18
359.800	421
359.885	1436
359.969	795
360.053	1411
360.138	1007
360.222	1218
360.306	593
360.391	643
360.475	1505
360.559	762
360.644	1075
360.728	-6
360.812	2790
360.896	2836
360.981	1496
361.065	113
361.149	1796
361.233	1009
361.318	234
361.402	425
361.486	1449
361.570	765
361.654	1488
361.739	982
361.823	1742
361.907	4144
361.991	1930
362.075	2383
362.159	2923
362.243	8552
362.327	17428
362.411	30817
362.495	10627
362.580	5645
362.664	3437
362.748	5039
362.832	7803
362.916	17079
363.000	48499
363.084	72669
363.168	26982
363.252	8307
363.336	4643
363.420	3751
363.503	2710
363.587	2257
363.671	2350
363.755	2086
363.839	3877
363.923	3105
364.007	4668
364.091	5500
364.175	7842
364.258	22114
364.342	52750
364.426	107395
364.510	56241
364.594	16650
364.677	7039
364.761	4530
364.845	3973
364.929	2000
365.013	1888
365.096	2326
365.180	941
365.264	1405
365.347	1836
365.431	708
365.515	48
365.598	152
365.682	1683
365.766	123
365.849	1079
365.933	733
366.017	2460
366.100	558
366.184	149
366.267	1801
366.351	1454
366.435	740
366.518	423
366.602	879
366.685	1200
366.769	1127
366.852	1407
366.936	1187
367.019	-240
367.103	197
367.186	1395
367.270	887
367.353	-26
367.436	2298
367.520	730
367.603	1471
367.687	500
367.770	1020
367.853	1130
367.937	2537
368.020	1199
368.104	13
368.187	1371
368.270	979
368.353	481
368.437	95
368.520	1005
368.603	1162
368.687	299
368.770	1227
368.853	58
368.936	818
369.020	787
369.103	-327
369.186	78
369.269	265
369.352	840
369.436	-561
369.519	719
369.602	-524
369.685	2668
369.768	-883
369.851	894
369.934	425
370.018	243
370.101	-622
370.184	2337
370.267	852
370.350	591
370.433	635
370.516	3163
370.599	10380
370.682	3413
370.765	2313
370.848	1267
370.931	1
371.014	1509
371.097	-1110
371.180	968
371.263	1077
371.346	-967
371.429	896
371.511	-162
371.594	320
371.677	545
371.760	1709
371.843	437
371.926	3036
372.009	5131
372.091	3703
372.174	652
372.257	1298
372.340	-18
372.423	213
372.505	1269
372.588	-384
372.671	940
372.754	-216
372.836	719
372.919	945
373.002	798
373.085	-96
373.167	978
373.250	-672
373.332	962
373.415	3305
373.498	5132
373.580	5047
373.663	16284
373.746	16055
373.828	1925
373.911	2510
373.993	1095
374.076	1503
374.159	612
374.241	771
374.324	1126
374.406	1768
374.489	1406
374.571	4463
374.654	2030
374.736	1675
374.819	2207
374.901	4889
374.983	4710
375.066	2402
375.148	1821
375.231	2145
375.313	1313
375.395	1221
375.478	1314
375.560	2495
375.643	2161
375.725	1352
375.807	2105
375.890	3906
375.972	-225
376.054	1414
376.136	796
376.219	882
376.301	1872
376.383	1351
376.465	1519
376.548	857
376.630	1071
376.712	1187
376.794	1156
376.877	1195
376.959	-17
377.041	995
377.123	58
377.205	440
377.287	416
377.369	1142
377.452	473
377.534	360
377.616	1023
377.698	837
377.780	-104
377.862	597
377.944	1109
378.026	-401
378.108	477
378.190	319
378.272	2086
378.354	275
378.436	773
378.518	540
378.600	88
378.682	1064
378.764	255
378.846	1155
378.928	-4
379.010	233
379.091	856
379.173	1088
379.255	-638
379.337	156
379.419	256
379.501	2430
379.583	1257
379.664	204
379.746	-423
379.828	2155
379.910	89
379.991	918
380.073	-182
380.155	596
380.237	259
380.318	268
380.400	656
380.482	199
380.564	832
380.645	83
380.727	757
380.809	1232
380.890	922
380.972	-168
381.053	-152
381.135	800
381.217	187
381.298	1824
381.380	494
381.461	580
381.543	884
381.624	1876
381.706	-100
381.787	593
381.869	1386
381.951	1143
382.032	2436
382.113	5058
382.195	-215
382.276	2678
382.358	593
382.439	721
382.521	2823
382.602	3014
382.684	1412
382.765	2419
382.846	1767
382.928	5962
383.009	3208
383.090	2594
383.172	7583
383.253	13179
383.334	4767
383.416	2426
383.497	1677
383.578	1419
383.659	2305
383.741	7079
383.822	20520
383.903	8794
383.984	1915
384.066	4674
384.147	2194
384.228	2206
384.309	1564
384.390	2225
384.471	2002
384.553	1626
384.634	1186
384.715	1548
384.796	570
384.877	965
384.958	2056
385.039	441
385.120	556
385.201	1547
385.282	1531
385.363	1818
385.444	1462
385.525	1746
385.606	2260
385.687	2699
385.768	2357
385.849	1358
385.930	4289
386.011	5967
386.092	1883
386.173	1937
386.254	1447
386.335	2958
386.416	1000
386.496	2292
386.577	2529
386.658	1957
386.739	2095
386.820	2595
386.901	870
386.981	3305
387.062	2345
387.143	2588
387.224	4150
387.304	5879
387.385	5081
387.466	3097
387.547	5388
387.627	4864
387.708	4443
387.789	5676
387.869	3532
387.950	3938
388.031	3199
388.111	1185
388.192	2992
388.273	3759
388.353	2418
388.434	2019
388.514	2036
388.595	2470
388.676	2964
388.756	2506
388.837	2973
388.917	1786
388.998	-498
389.078	1644
389.159	1898
389.239	327
389.320	3574
389.400	-513
389.480	2325
389.561	1350
389.641	2827
389.722	1613
389.802	464
389.883	2125
389.963	2823
390.043	2296
390.124	260
390.204	2341
390.284	1426
390.365	1198
390.445	1644
390.525	1146
390.605	1776
390.686	1110
390.766	2543
390.846	2943
390.927	1053
391.007	1297
391.087	2181
391.167	1761
391.247	813
391.328	2876
391.408	1741
391.488	2430
391.568	863
391.648	2100
391.728	2595
391.808	3076
391.888	2124
391.969	3288
392.049	1945
392.129	3884
392.209	3586
392.289	5512
392.369	4485
392.449	5100
392.529	4708
392.609	6937
392.689	7130
392.769	8182
392.849	11147
392.929	14554
393.009	17931
393.089	26961
393.169	51843
393.248	123821
393.328	289360
393.408	298031
393.488	130848
393.568	50545
393.648	26195
393.728	15999
393.807	11200
393.887	9788
393.967	7875
394.047	6517
394.127	5128
394.206	4982
394.286	3687
394.366	4444
394.446	3317
394.525	2884
394.605	3545
394.685	3224
394.764	4420
394.844	7260
394.924	9170
395.003	4028
395.083	2780
395.163	3022
395.242	2546
395.322	3159
395.402	1049
395.481	3667
395.561	3062
395.640	12009
395.720	24289
395.799	11553
395.879	4373
395.958	2765
396.038	3919
396.117	3808
396.197	4626
396.276	6971
396.356	5304
396.435	7933
396.515	11513
396.594	18877
396.673	40109
396.753	113926
396.832	261677
396.912	194234
396.991	59145
397.070	25081
397.150	12374
397.229	12709
397.308	20944
397.388	38962
397.467	18585
397.546	7009
397.625	2581
397.705	5174
397.784	3119
397.863	2979
397.942	2840
398.022	2734
398.101	1375
398.180	2599
398.259	1729
398.338	2061
398.417	1877
398.497	1059
398.576	2913
398.655	-211
398.734	1900
398.813	1348
398.892	965
398.971	1476
399.050	842
399.129	-298
399.208	1141
399.287	2305
399.366	944
399.445	1071
399.524	1131
399.603	-332
399.682	421
399.761	217
399.840	1007
399.919	1157
399.998	668
400.077	-454
400.156	-21
400.235	2814
400.313	305
400.392	234
400.471	1238
400.550	1359
400.629	149
400.708	1208
400.786	457
400.865	73
400.944	-918
401.023	2711
401.102	557
401.180	1042
401.259	937
401.338	950
401.416	721
401.495	-846
401.574	688
401.652	-166
401.731	590
401.810	-765
401.888	-521
401.967	-34
402.046	-210
402.124	1173
402.203	-547
402.281	802
402.360	146
402.438	234
402.517	-1371
402.596	354
402.674	-305
402.753	264
402.831	1203
402.910	792
402.988	495
403.066	3635
403.145	3488
403.223	2469
403.302	2637
403.380	2527
403.459	2727
403.537	1051
403.615	320
403.694	-204
403.772	1056
403.850	492
403.929	730
404.007	14
404.085	1392
404.164	813
404.242	-244
404.320	1480
404.398	380
404.477	-553
404.555	2482
404.633	1849
404.711	110
404.789	610
404.868	353
404.946	160
405.024	129
405.102	469
405.180	-565
405.258	-976
405.336	310
405.415	-347
405.493	518
405.571	500
405.649	-611
405.727	-476
405.805	1227
405.883	795
405.961	749
406.039	12
406.117	-1050
406.195	327
406.273	-957
406.351	1335
406.429	1398
406.507	-88
406.585	-337
406.663	1584
406.740	80
406.818	-772
406.896	-810
406.974	1255
407.052	-974
407.130	1296
407.208	1741
407.285	1254
407.363	-517
407.441	-48
407.519	-396
407.596	880
407.674	6102
407.752	32823
407.830	24984
407.907	2854
407.985	-692
408.063	451
408.141	386
408.218	985
408.296	-1649
408.373	6
408.451	571
408.529	655
408.606	-167
408.684	695
408.762	593
408.839	582
408.917	273
408.994	992
409.072	194
409.149	1445
409.227	4603
409.304	6123
409.382	6227
409.459	8077
409.537	10631
409.614	9482
409.692	6052
409.769	5827
409.846	10323
409.924	13841
410.001	7049
410.079	5174
410.156	4459
410.233	2900
410.311	1696
410.388	1064
410.465	1353
410.543	1173
410.620	1901
410.697	1325
410.775	2193
410.852	402
410.929	1822
411.006	2013
411.083	1617
411.161	942
411.238	2017
411.315	817
411.392	184
411.469	1470
411.547	706
411.624	-487
411.701	-121
411.778	1019
411.855	297
411.932	-487
412.009	519
412.086	487
412.163	320
412.240	-945
412.317	684
412.394	570
412.471	237
412.548	245
412.625	-94
412.702	486
412.779	510
412.856	202
412.933	-935
413.010	602
413.087	423
413.164	-935
413.241	-118
413.318	-577
413.395	144
413.471	-29
413.548	463
413.625	720
413.702	-1457
413.779	692
413.855	176
413.932	-420
414.009	-1466
414.086	216
414.162	329
414.239	-197
414.316	-31
414.393	885
414.469	-1112
414.546	-358
414.623	-318
414.699	-8
414.776	-798
414.853	-866
414.929	393
415.006	-566
415.082	-404
415.159	533
415.236	289
415.312	822
415.389	-971
415.465	-503
415.542	131
415.618	-1931
415.695	93
415.771	-1230
415.848	-876
415.924	-319
416.000	-346
416.077	490
416.153	-666
416.230	-801
416.306	-638
416.383	-320
416.459	-67
416.535	-188
416.612	-848
416.688	-732
416.764	-719
416.841	-484
416.917	-820
416.993	-18
417.069	-3
417.146	-678
417.222	-926
417.298	-332
417.374	-149
417.451	15
417.527	-772
417.603	-1104
417.679	-691
417.755	-608
417.831	-992
417.908	-217
417.984	-1267
418.060	-1308
418.136	3
418.212	-296
418.288	49
418.364	37
418.440	-1598
418.516	100
418.592	-349
418.668	555
418.744	-970
418.820	-400
418.896	-461
418.972	-317
419.048	-120
419.124	1541
419.200	-569
419.276	59
419.352	-489
419.428	1148
419.504	-201
419.579	-106
419.655	-248
419.731	-86
419.807	19
419.883	-207
419.959	390
420.034	588
420.110	485
420.186	-331
420.262	1201
420.337	365
420.413	585
420.489	1501
420.565	2107
420.640	767
420.716	1419
420.792	676
420.867	2253
420.943	1389
421.019	1817
421.094	883
421.170	2897
421.245	2689
421.321	3807
421.397	4549
421.472	10930
421.548	26175
421.623	17179
421.699	7383
421.774	7753
421.850	7651
421.925	10904
422.001	11864
422.076	14745
422.152	17918
422.227	23591
422.302	33088
422.378	46187
422.453	70785
422.529	113785
422.604	162108
422.679	158114
422.755	165216
422.830	120767
422.905	74232
422.981	48639
423.056	35764
423.131	26092
423.207	20438
423.282	17003
423.357	13985
423.432	11013
423.508	9462
423.583	7452
423.658	7259
423.733	5783
423.808	5928
423.883	4874
423.959	5271
424.034	7044
424.109	6156
424.184	3848
424.259	3283
424.334	3178
424.409	2041
424.484	2178
424.559	2446
424.634	1178
424.709	2255
424.784	1243
424.859	1569
424.934	1506
425.009	865
425.084	1210
425.159	63
425.234	998
425.309	414
425.384	602
425.459	-462
425.534	688
425.609	362
425.683	611
425.758	1168
425.833	598
425.908	343
425.983	-391
426.058	1003
426.132	450
426.207	-338
426.282	2234
426.357	-787
426.431	244
426.506	91
426.581	74
426.655	54
426.730	228
426.805	-787
426.879	194
426.954	258
427.029	-724
427.103	768
427.178	979
427.253	612
427.327	442
427.402	20
427.476	-125
427.551	-156
427.625	-214
427.700	367
427.774	-576
427.849	701
427.923	-148
427.998	561
428.072	425
428.147	3487
428.221	17324
428.296	60254
428.370	33724
428.444	4633
428.519	1039
428.593	684
428.667	912
428.742	1964
428.816	5586
428.890	33568
428.965	55751
429.039	14037
429.113	2392
429.188	898
429.262	-71
429.336	486
429.410	1293
429.485	573
429.559	580
429.633	933
429.707	1645
429.781	5259
429.855	32004
429.930	48963
430.004	12834
430.078	6367
430.152	20054
430.226	77938
430.300	79392
430.374	17181
430.448	4853
430.522	2470
430.596	1876
430.670	9937
430.744	43841
430.818	49339
430.892	9201
430.966	1368
431.040	1444
431.114	-208
431.188	-591
431.262	-44
431.336	-209
431.410	765
431.484	-352
431.557	184
431.631	732
431.705	2599
431.779	13508
431.853	58040
431.927	39780
432.000	6357
432.074	1498
432.148	120
432.222	-416
432.295	-474
432.369	-420
432.443	-589
432.516	-221
432.590	1179
432.664	-232
432.737	-129
432.811	-1212
432.885	-618
432.958	178
433.032	-642
433.106	-1493
433.179	-521
433.253	-108
433.326	-315
433.400	-161
433.473	-866
433.547	-482
433.620	-545
433.694	-1147
433.767	260
433.841	-652
433.914	-346
433.988	-143
434.061	-65
434.134	108
434.208	-445
434.281	-632
434.355	-724
434.428	150
434.501	-1198
434.575	-1026
434.648	-534
434.721	-910
434.795	-205
434.868	-803
434.941	-738
435.014	-359
435.088	116
435.161	464
435.234	288
435.307	602
435.381	1128
435.454	2934
435.527	6033
435.600	6930
435.673	5445
435.746	3461
435.819	1920
435.892	1716
435.966	1630
436.039	1124
436.112	838
436.185	435
436.258	86
436.331	77
436.404	653
436.477	42
436.550	-182
436.623	-381
436.696	-163
436.769	-159
436.842	-761
436.915	-695
436.987	-240
437.060	-341
437.133	-783
437.206	-387
437.279	67
437.352	-579
437.425	-572
437.498	-404
437.570	-633
437.643	-241
437.716	-530
437.789	-962
437.861	-34
437.934	-966
438.007	-440
438.080	-1107
438.152	-363
438.225	-613
438.298	-619
438.370	1430
438.443	838
438.516	-455
438.588	221
438.661	-479
438.734	-196
438.806	-822
438.879	342
438.951	-859
439.024	-809
439.096	-328
439.169	-522
439.241	156
439.314	-614
439.386	-444
439.459	-259
439.531	-317
439.604	6
439.676	-184
439.749	-15
439.821	10
439.893	430
439.966	288
440.038	-913
440.110	-213
440.183	407
440.255	-942
440.327	117
440.400	-30
440.472	507
440.544	160
440.617	223
440.689	353
440.761	209
440.833	-748
440.905	-54
440.978	-179
441.050	253
441.122	1030
441.194	190
441.266	418
441.338	-738
441.411	-443
441.483	286
441.555	294
441.627	-89
441.699	634
441.771	487
441.843	-410
441.915	890
441.987	1004
442.059	571
442.131	1734
442.203	1895
442.275	2401
442.347	5053
442.419	11476
442.491	46869
442.563	101433
442.635	47469
442.706	11707
442.778	4703
442.850	3400
442.922	2476
442.994	2644
443.066	2172
443.137	3199
443.209	5442
443.281	9079
443.353	18115
443.425	54356
443.496	146850
443.568	155124
443.640	73037
443.711	21275
443.783	9029
443.855	5583
443.926	3463
443.998	2370
444.070	2410
444.141	1909
444.213	1895
444.285	1979
444.356	1996
444.428	1352
444.499	1407
444.571	1546
444.642	1178
444.714	1070
444.785	2280
444.857	1788
444.928	2698
445.000	2983
445.071	4297
445.143	5714
445.214	9115
445.285	15598
445.357	35901
445.428	102493
445.500	183538
445.571	146130
445.642	105021
445.714	41951
445.785	15657
445.856	7234
445.928	4379
445.999	3418
446.070	2472
446.141	1211
446.213	2208
446.284	1280
446.355	656
446.426	703
446.497	1012
446.569	296
446.640	-117
446.711	519
446.782	992
446.853	-148
446.924	707
446.995	-365
447.066	210
447.138	426
447.209	62
447.280	-640
447.351	-505
447.422	-944
447.493	-502
447.564	-438
447.635	332
447.706	-323
447.777	-216
447.847	593
447.918	-1025
447.989	-964
448.060	-52
448.131	-1111
448.202	-824
448.273	350
448.344	840
448.414	-410
448.485	-670
448.556	-508
448.627	-192
448.698	680
448.768	-751
448.839	-439
448.910	-663
448.981	-293
449.051	-624
449.122	360
449.193	-40
449.263	-12
449.334	-150
449.405	-574
449.475	-66
449.546	-37
449.616	-15
449.687	-165
449.758	52
449.828	-623
449.899	-1013
449.969	-489
450.040	-484
450.110	259
450.181	-224
450.251	-157
450.322	73
450.392	-356
450.463	-255
450.533	-401
450.604	-347
450.674	-522
450.744	447
450.815	293
450.885	942
450.955	1223
451.026	666
451.096	102
451.166	217
451.237	758
451.307	1013
451.377	593
451.447	338
451.518	384
451.588	215
451.658	343
451.728	139
451.799	-44
451.869	256
451.939	-501
452.009	-334
452.079	519
452.149	-349
452.219	350
452.289	-56
452.360	-171
452.430	794
452.500	1185
452.570	2373
452.640	7477
452.710	18932
452.780	23313
452.850	14315
452.920	6697
452.990	3236
453.060	2364
453.129	1284
453.199	572
453.269	345
453.339	153
453.409	-33
453.479	99
453.549	252
453.619	186
453.688	4
453.758	127
453.828	-129
453.898	-93
453.968	-98
454.037	252
454.087	-488
454.107	-802
454.168	-696
454.177	-702
454.247	-702
454.249	-673
454.316	-318
454.330	-331
454.386	-431
454.411	-392
454.456	-392
454.492	-173
454.525	6
454.574	104
454.595	135
454.655	-199
454.665	-270
454.734	248
454.736	250
454.804	-412
454.817	-226
454.873	497
454.898	479
454.943	409
454.979	-2
455.013	-423
455.060	-89
455.082	52
455.141	385
455.152	440
455.221	885
455.222	899
455.291	826
455.303	830
455.360	744
455.384	1285
455.430	2139
455.465	1608
455.499	1116
455.546	954
455.569	871
455.627	1047
455.638	1069
455.707	350
455.708	365
455.777	268
455.789	205
455.846	-107
455.869	87
455.916	462
455.950	535
455.985	562
456.031	744
456.054	801
456.112	439
456.124	372
456.193	1112
456.193	1099
456.262	653
456.274	748
456.332	906
456.355	693
456.401	459
456.436	959
456.470	1287
456.516	1270
456.540	1358
456.597	723
456.609	539
456.678	1234
456.678	1222
456.747	1555
456.759	1503
456.817	1408
456.840	1391
456.886	1059
456.920	1365
456.955	1675
457.001	1405
457.024	1286
457.082	1300
457.093	1266
457.162	1951
457.163	1963
457.232	1479
457.243	1625
457.301	1992
457.324	2031
457.370	2355
457.405	2685
457.439	2831
457.485	3265
457.508	3605
457.566	4455
457.577	4762
457.646	6745
457.647	6806
457.715	16785
457.727	19004
457.784	35381
457.808	46013
457.853	58109
457.889	69219
457.922	67796
457.969	47872
457.991	49054
458.050	55583
458.060	57784
458.129	95461
458.130	96684
458.198	95176
458.211	88520
458.267	56229
458.292	39563
458.336	26180
458.372	23142
458.405	29035
458.453	41506
458.474	53102
458.533	95258
458.543	98619
458.611	147042
458.614	148232
458.680	97684
458.694	80173
458.749	42654
458.775	29689
458.818	17712
458.855	12830
458.887	9807
458.936	8035
458.955	7418
459.016	5845
459.024	5725
459.093	4994
459.097	4971
459.162	4302
459.177	4233
459.230	4315
459.257	4292
459.299	3830
459.338	3583
459.368	3664
459.418	3508
459.437	3396
459.499	3774
459.505	3797
459.574	3559
459.579	3580
459.643	3339
459.659	3215
459.711	3323
459.740	3311
459.780	3107
459.820	3222
459.849	3506
459.900	4077
459.917	4078
459.981	3637
459.986	3622
460.054	3783
460.061	3759
460.123	3465
460.141	3551
460.191	3981
460.222	3916
460.260	3702
460.302	4032
460.328	4312
460.382	4579
460.397	4675
460.462	5687
460.465	5963
460.534	12179
460.543	13037
460.602	37113
460.623	46567
460.671	72469
460.703	96007
460.739	88913
460.783	72459
460.808	61198
460.864	18194
460.876	14784
460.944	6369
460.945	6283
461.013	3967
461.024	3826
461.081	3804
461.104	3915
461.150	3928
461.184	3607
461.218	3545
461.264	3484
461.286	3418
461.345	3602
461.355	3583
461.423	3590
461.425	3575
461.491	3366
461.505	3512
461.559	3752
461.585	3462
461.628	3197
461.665	3486
461.696	3825
461.745	3929
461.764	3783
461.825	3460
461.832	3505
461.901	3944
461.905	3999
461.969	3636
461.985	3420
462.037	4126
462.065	4651
462.105	3920
462.145	3209
462.173	3374
462.225	3524
462.241	3546
462.305	3317
462.310	3345
462.378	4256
462.385	4332
462.446	4000
462.465	3946
462.514	3962
462.545	3908
462.582	3800
462.625	3576
462.650	3553
462.705	3711
462.718	3628
462.785	3261
462.786	3265
462.854	2915
462.865	2943
462.922	3845
462.945	4189
462.990	3911
463.025	3541
463.058	3504
463.104	3475
463.126	3431
463.184	3790
463.194	3874
463.262	3723
463.264	3735
463.330	4721
463.344	4860
463.398	4364
463.424	4034
463.466	3548
463.504	3385
463.533	3720
463.583	3945
463.601	3881
463.663	3963
463.669	3936
463.737	3298
463.743	3244
463.805	3592
463.823	3707
463.873	3830
463.903	4055
463.940	4012
463.982	3535
464.008	3733
464.062	4349
464.076	4207
464.142	3599
464.144	3609
464.211	3910
464.221	3924
464.279	4072
464.301	4052
464.347	3853
464.381	3873
464.414	3834
464.461	3772
464.482	3965
464.540	4250
464.550	4190
464.617	3843
464.620	3830
464.685	3908
464.699	3872
464.753	3929
464.779	4058
464.820	4248
464.859	4126
464.888	3623
464.938	3006
464.956	3347
465.018	4370
465.023	4362
465.091	4491
465.098	4474
465.158	4480
465.177	4498
465.226	4264
465.257	4091
465.293	4137
465.336	4082
465.361	4226
465.416	4652
465.428	4542
465.495	3962
465.496	3968
465.563	3887
465.575	3897
465.631	4391
465.654	4572
465.698	4397
465.734	4227
465.765	4324
465.813	4453
465.833	4407
465.893	4288
465.900	4312
465.968	4419
465.972	4418
466.035	3752
466.052	3568
466.102	3818
466.131	3962
466.170	4143
466.210	4287
466.237	4224
466.290	4138
466.304	4120
466.369	3895
466.372	3908
466.439	4209
466.449	4226
466.506	4201
466.528	4207
466.573	4506
466.607	4731
466.641	4442
466.687	4020
466.708	4370
466.766	5242
466.775	5115
466.842	4133
466.845	4080
466.909	5043
466.925	5263
466.977	5441
467.004	5516
467.044	4909
467.083	4295
467.111	4704
467.163	5433
467.178	5201
467.242	4209
467.245	4276
467.312	5547
467.321	5709
467.379	5316
467.400	5157
467.446	5963
467.480	6531
467.559	5992
467.638	6105
467.717	5556
467.796	6844
467.875	6799
467.955	7151
468.034	7561
468.113	8863
468.192	11904
468.271	14047
468.350	19448
468.429	29077
468.508	30658
468.588	18758
468.667	12093
468.746	8837
468.825	7452
468.904	6824
468.983	6420
469.062	6908
469.141	6134
469.220	5981
469.299	5879
469.378	5379
469.456	6511
469.535	5385
469.614	5054
469.693	4272
469.772	5835
469.851	5599
469.930	5349
470.009	5623
470.088	5573
470.166	5710
470.245	6221
470.324	6357
470.403	5448
470.482	6288
470.560	6376
470.639	5180
470.718	5889
470.797	5439
470.875	4896
470.954	5326
471.033	5963
471.111	4614
471.190	5310
471.269	5363
471.347	4797
471.426	4710
471.505	5298
471.583	5182
471.662	5221
471.740	4771
471.819	5646
471.898	4868
471.976	5870
472.055	5941
472.133	7832
472.212	11318
472.290	5863
472.369	4299
472.447	4773
472.526	4878
472.604	5954
472.683	4324
472.761	5106
472.839	5209
472.918	4726
472.996	5683
473.075	5245
473.153	5983
473.231	4997
473.310	5180
473.388	5227
473.466	6032
473.545	5056
473.623	5522
473.701	5393
473.780	6698
473.858	4592
473.936	7499
474.014	5840
474.093	7538
474.171	11351
474.249	7858
474.327	5549
474.405	5216
474.484	5674
474.562	4812
474.640	5572
474.718	5112
474.796	5142
474.874	5090
474.952	4834
475.030	5000
475.108	5212
475.187	5282
475.265	6236
475.343	6132
475.421	6173
475.499	5047
475.577	5242
475.655	5385
475.733	4454
475.811	4855
475.889	4052
475.966	5211
476.044	4877
476.122	5278
476.200	6118
476.278	4748
476.356	4720
476.434	4765
476.512	4824
476.590	5831
476.667	5224
476.745	4955
476.823	5278
476.901	4907
476.979	4610
477.056	5711
477.134	4993
477.212	4846
477.290	4584
477.367	4289
477.445	5609
477.523	4614
477.601	4617
477.678	4428
477.756	4484
477.834	4713
477.911	4965
477.989	5112
478.066	5496
478.144	5012
478.222	5186
478.299	6352
478.377	9511
478.454	8506
478.532	4957
478.609	4338
478.687	5501
478.764	3900
478.842	4830
478.919	4605
478.997	5237
479.074	5391
479.152	4285
479.229	4179
479.307	4596
479.384	4866
479.461	4476
479.539	4557
479.616	5387
479.694	4601
479.771	4951
479.848	5452
479.926	4514
480.003	6197
480.080	5415
480.157	5081
480.235	4487
480.312	5254
480.389	4567
480.467	5354
480.544	5302
480.621	6439
480.698	6829
480.775	6776
480.853	6108
480.930	6083
481.007	5355
481.084	12624
481.161	24179
481.238	13444
481.315	5325
481.392	5826
481.470	6046
481.547	4868
481.624	5955
481.701	4833
481.778	6231
481.855	6310
481.932	5806
482.009	7914
482.086	7166
482.163	8484
482.240	11046
482.317	11151
482.393	9313
482.470	8951
482.547	7263
482.624	6919
482.701	7497
482.778	7471
482.855	7064
482.932	7800
483.009	8949
483.085	12422
483.162	20346
483.239	17652
483.316	10215
483.393	11614
483.469	9249
483.546	8648
483.623	6449
483.699	6864
483.776	5854
483.853	5875
483.930	6232
484.006	5804
484.083	6397
484.160	6518
484.236	6912
484.313	6537
484.389	6878
484.466	9415
484.543	10763
484.619	14232
484.696	16032
484.772	9791
484.849	7744
484.925	7110
485.002	5609
485.078	5439
485.155	5125
485.231	5052
485.308	5053
485.384	6006
485.461	7258
485.537	5615
485.614	6448
485.690	4667
485.766	4940
485.843	5035
485.919	4610
485.995	5057
486.072	5282
486.148	5114
486.224	4724
486.301	5349
486.377	4803
486.453	5009
486.530	5470
486.606	5735
486.682	5786
486.758	6896
486.835	8121
486.911	7402
486.987	8100
487.063	9778
487.139	12790
487.215	21527
487.292	20036
487.368	16278
487.444	20247
487.520	32378
487.596	51671
487.672	101598
487.748	299831
487.824	479619
487.900	182671
487.976	52594
488.052	25725
488.128	18816
488.204	13177
488.280	10413
488.356	9417
488.432	9157
488.508	7480
488.584	7363
488.660	6368
488.736	6692
488.812	5254
488.888	6188
488.964	5154
489.039	5259
489.115	6450
489.191	9555
489.267	6395
489.343	5816
489.418	5055
489.494	5129
489.570	3539
489.646	5430
489.722	4316
489.797	4732
489.873	5145
489.949	5893
490.024	5853
490.100	4731
490.176	3873
490.251	4771
490.327	5791
490.403	5073
490.478	5109
490.554	5293
490.629	5124
490.705	4994
490.781	5448
490.856	4428
490.932	5360
491.007	4827
491.083	4726
491.158	3941
491.234	4281
491.309	4200
491.385	3885
491.460	4080
491.536	4459
491.611	3954
491.686	5189
491.762	3969
491.837	4120
491.913	4535
491.988	5184
492.063	3947
492.139	5012
492.214	4295
492.289	4117
492.365	3574
492.440	3865
492.515	3135
492.590	4820
492.666	3738
492.741	4022
492.816	4284
492.891	3098
492.967	4717
493.042	4990
493.117	3506
493.192	4125
493.267	4830
493.342	5489
493.418	7955
493.493	4588
493.568	3541
493.643	4155
493.718	3610
493.793	4165
493.868	3738
493.943	3696
494.018	4199
494.093	3484
494.168	3605
494.243	3444
494.318	3610
494.393	4289
494.468	3221
494.543	3344
494.618	2826
494.693	3590
494.768	4319
494.842	3676
494.917	3481
494.992	3807
495.067	4293
495.142	3080
495.217	3069
495.292	4112
495.366	4579
495.441	2650
495.516	4574
495.591	3028
495.665	3949
495.740	5450
495.815	4650
495.890	4083
495.964	2691
496.039	7300
496.114	9012
496.188	22478
496.263	14696
496.338	4687
496.412	3224
496.487	4180
496.561	3766
496.636	3830
496.710	4382
496.785	6405
496.860	4025
496.934	1595
497.009	2652
497.083	3403
497.158	2893
497.232	3175
497.307	2684
497.381	3384
497.455	2577
497.530	3224
497.604	4320
497.679	3764
497.753	3416
497.827	2655
497.902	2949
497.976	3313
498.050	3687
498.125	3386
498.199	4092
498.273	2644
498.348	3527
498.422	4001
498.496	3254
498.570	4939
498.645	3830
498.719	2246
498.793	3849
498.867	4037
498.941	3384
499.016	3011
499.090	3339
499.164	3480
499.238	4193
499.312	3119
499.386	3619
499.460	3619
499.534	3498
499.609	3937
499.683	3285
499.757	4351
499.831	3862
499.905	3949
499.979	2840
500.053	3137
500.127	2953
500.201	3168
500.275	3476
500.349	3724
500.422	2639
500.496	3857
500.570	3743
500.644	4212
500.718	3983
500.792	4418
500.866	3569
500.940	3906
501.013	3754
501.087	3428
501.161	4266
501.235	3432
501.309	5819
501.382	2837
501.456	4986
501.530	3604
501.603	3596
501.677	3063
501.751	4041
501.825	4450
501.898	4254
501.972	3783
502.046	3186
502.119	3491
502.193	3994
502.266	3449
502.340	3823
502.413	3669
502.487	3890
502.561	3033
502.634	3639
502.708	4257
502.781	3331
502.855	5100
502.928	4072
503.002	3877
503.075	4295
503.149	4047
503.222	4044
503.295	4463
503.369	4824
503.442	5316
503.516	7254
503.589	7378
503.662	8197
503.736	10589
503.809	14948
503.882	19165
503.956	30003
504.029	60305
504.102	169592
504.175	258792
504.249	107805
504.322	40865
504.395	20705
504.468	14409
504.542	10442
504.615	7146
504.688	7418
504.761	4715
504.834	6910
504.907	5280
504.980	4280
505.053	3580
505.127	1908
505.200	6352
505.273	3124
505.346	2407
505.419	2851
505.492	4698
505.565	2941
505.638	3463
505.711	2126
505.784	2665
505.857	2693
505.930	4579
506.003	1402
506.076	4410
506.149	2680
506.221	1139
506.294	4338
506.367	1409
506.440	2495
506.513	2666
506.586	3142
506.659	2196
506.731	2453
506.804	2716
506.877	2047
506.950	2539
507.022	2678
507.095	1350
507.168	3201
507.241	3746
507.313	2343
507.386	1940
507.459	3707
507.531	1959
507.604	1892
507.677	3145
507.749	244
507.822	3569
507.894	2017
507.967	2495
508.040	1377
508.112	2934
508.185	3056
508.257	1155
508.330	4072
508.402	1576
508.475	2090
508.547	2324
508.620	2371
508.692	2505
508.765	2365
508.837	1366
508.909	2484
508.982	2355
509.054	2630
509.127	2182
509.199	2139
509.271	1692
509.344	2174
509.416	2459
509.488	2581
509.560	2427
509.633	1957
509.705	1891
509.777	1746
509.849	2372
509.922	839
509.994	1628
510.066	3244
510.138	262
510.210	4026
510.283	2183
510.355	3270
510.427	2993
510.499	2566
510.571	2442
510.643	657
510.715	3268
510.787	431
510.859	3792
510.931	1333
511.003	2200
511.076	3324
511.148	743
511.219	679
511.291	2880
511.363	2234
511.435	2167
511.507	1881
511.579	2492
511.651	2489
511.723	1543
511.795	1847
511.867	2247
511.939	1655
512.010	1379
512.082	2982
512.154	1430
512.226	1875
512.298	3318
512.369	2064
512.441	2561
512.513	2426
512.585	965
512.656	2689
512.728	1936
512.800	1682
512.871	3648
512.943	1994
513.015	1556
513.086	2720
513.158	2268
513.230	1777
513.301	1040
513.373	3122
513.444	3178
513.516	2449
513.588	1798
513.659	2330
513.731	1657
513.802	1551
513.874	3858
513.945	2357
514.016	1266
514.088	1981
514.159	1357
514.231	2323
514.302	1640
514.374	3102
514.445	455
514.516	3507
514.588	1628
514.659	1679
514.730	1072
514.802	3922
514.873	324
514.944	4167
515.016	2427
515.087	1742
515.158	2306
515.229	3271
515.301	1314
515.372	2662
515.443	1752
515.514	2293
515.585	2623
515.656	3556
515.728	3650
515.799	2298
515.870	2591
515.941	3348
516.012	1064
516.083	2712
516.154	1740
516.225	2757
516.296	4423
516.367	2181
516.438	2069
516.509	2202
516.580	3505
516.651	7913
516.722	16999
516.793	9139
516.864	2698
516.935	4485
517.006	4803
517.077	4464
517.148	6585
517.219	26271
517.289	38619
517.360	5654
517.431	4929
517.502	2641
517.573	4198
517.643	3790
517.714	3518
517.785	3614
517.856	3635
517.926	5566
517.997	5876
518.068	5722
518.138	9668
518.209	9753
518.280	23081
518.350	75397
518.421	36243
518.492	21117
518.562	24556
518.633	33333
518.703	54558
518.774	122741
518.845	299539
518.915	284298
518.986	85078
519.056	35317
519.127	20950
519.197	14922
519.268	10005
519.338	9893
519.408	6681
519.479	6167
519.549	4584
519.620	6228
519.690	4716
519.760	3866
519.831	3861
519.901	3746
519.971	4192
520.042	3465
520.112	2255
520.182	3679
520.253	3599
520.323	3284
520.393	1988
520.463	4953
520.534	285
520.604	5379
520.674	3832
520.744	2151
520.814	2214
520.885	3288
520.955	2309
521.025	1913
521.095	2117
521.165	4564
521.235	2403
521.305	1269
521.375	2999
521.445	3383
521.515	2080
521.585	3281
521.655	1199
521.725	4788
521.795	3512
521.865	906
521.935	4579
522.005	3267
522.075	2011
522.145	4652
522.215	3367
522.285	3445
522.355	3023
522.424	4179
522.494	3336
522.564	4610
522.634	3137
522.704	4826
522.774	1768
522.843	4003
522.913	4877
522.983	3703
523.053	2127
523.122	3179
523.192	2984
523.262	2773
523.331	2845
523.401	4436
523.471	2247
523.540	3810
523.610	3515
523.680	4650
523.749	4470
523.819	6515
523.888	5093
523.958	3545
524.027	3873
524.097	3706
524.166	4042
524.236	2743
524.305	5602
524.375	2815
524.444	2761
524.514	5914
524.583	3186
524.653	3587
524.722	4493
524.791	3475
524.861	5632
524.930	3533
524.999	3794
525.069	5222
525.138	4463
525.207	4432
525.277	5998
525.346	5551
525.415	7493
525.484	8728
525.554	8714
525.623	13220
525.692	20911
525.761	19275
525.830	23404
525.900	30844
525.969	49530
526.038	96511
526.107	184655
526.176	512631
526.245	406933
526.314	127548
526.383	258003
526.452	352017
526.522	451535
526.591	430057
526.660	83164
526.729	47497
526.797	48990
526.867	68473
526.935	181815
527.004	617055
527.073	435973
527.142	71750
527.211	29615
527.280	19584
527.349	14316
527.418	10010
527.487	10221
527.555	6902
527.624	6795
527.693	5526
527.762	6302
527.831	4424
527.899	6484
527.968	4593
528.037	3799
528.106	4509
528.174	4767
528.243	4705
528.312	4551
528.380	4296
528.449	3074
528.518	5580
528.586	2176
528.655	4740
528.723	4044
528.792	3500
528.861	2658
528.929	3080
528.998	4615
529.066	4263
529.135	3525
529.203	2670
529.272	1572
529.340	4218
529.409	4458
529.477	2370
529.545	1979
529.614	5140
529.682	2142
529.751	2519
529.819	5628
529.887	3266
529.956	3493
530.024	4656
530.092	3084
530.161	3695
530.229	3072
530.297	2933
530.365	5232
530.434	3913
530.502	2931
530.570	4386
530.638	2135
530.707	3478
530.775	4959
530.843	3644
530.911	3932
530.979	4293
531.047	2669
531.115	4145
531.183	3688
531.252	4855
531.320	3504
531.388	3125
531.456	3900
531.524	1655
531.592	4788
531.660	5079
531.728	2552
531.796	3124
531.864	3517
531.932	4064
532.000	3178
532.067	3051
532.135	4472
532.203	4810
532.271	4165
532.339	5890
532.407	5146
532.475	5577
532.542	4799
532.610	5608
532.678	3895
532.746	6107
532.814	7251
532.881	5836
532.949	5427
533.017	5682
533.084	5117
533.152	4948
533.220	3931
533.287	3449
533.355	5050
533.423	6011
533.490	4424
533.558	5693
533.625	5768
533.693	5483
533.761	5794
533.828	5983
533.896	3850
533.963	6343
534.031	6829
534.098	8857
534.166	9524
534.233	8219
534.300	11783
534.368	10576
534.435	10962
534.503	13060
534.570	13531
534.637	14450
534.705	18291
534.772	23937
534.840	47308
534.907	208405
534.974	263599
535.041	36510
535.109	16033
535.176	11478
535.243	11329
535.310	10340
535.378	9427
535.445	9614
535.512	9892
535.579	9578
535.646	9373
535.714	10035
535.781	10970
535.848	10961
535.915	9969
535.982	8340
536.049	9027
536.116	11699
536.183	9451
536.250	8695
536.317	9006
536.384	9495
536.451	10152
536.518	10581
536.585	8390
536.652	11032
536.719	10725
536.786	8812
536.853	9599
536.920	11350
536.987	10198
537.053	7756
537.120	11873
537.187	11626
537.254	11158
537.321	10813
537.388	12462
537.454	10707
537.521	12198
537.588	10353
537.654	11531
537.721	12093
537.788	13385
537.855	11275
537.921	11163
537.988	11234
538.055	11231
538.121	8881
538.188	9434
538.254	9231
538.321	8899
538.388	10800
538.454	11962
538.521	12770
538.587	11825
538.654	11613
538.720	12100
538.787	11795
538.853	11760
538.920	10312
538.986	9395
539.053	10412
539.119	10868
539.185	10440
539.252	12310
539.318	11019
539.385	13466
539.451	10696
539.517	11632
539.583	11715
539.650	10072
539.716	11629
539.782	10084
539.849	9851
539.915	11487
539.981	11320
540.047	9619
540.114	10550
540.180	12686
540.246	11427
540.312	13505
540.378	11355
540.444	12916
540.510	12327
540.576	11970
540.643	10986
540.709	9554
540.775	10522
540.841	10246
540.907	11315
540.973	11289
541.039	11408
541.105	11654
541.171	12378
541.237	12223
541.303	12992
541.369	13760
541.435	12017
541.500	11422
541.566	10358
541.632	11218
541.698	10943
541.764	13497
541.830	12140
541.896	10645
541.961	12719
542.027	10089
542.093	12767
542.159	12685
542.224	10583
542.290	12144
542.356	10290
542.421	10833
542.487	12205
542.553	10567
542.618	11108
542.684	10489
542.750	11309
542.815	12224
542.881	11245
542.947	12098
543.012	13285
543.078	10629
543.143	9752
543.209	10671
543.274	9611
543.340	11582
543.405	10507
543.471	11595
543.536	12345
543.602	12052
543.667	11287
543.732	12639
543.798	11202
543.863	11570
543.928	11184
543.994	11727
544.059	12380
544.124	12872
544.190	12111
544.255	14444
544.320	13129
544.386	12439
544.451	13468
544.516	13556
544.581	12613
544.646	14130
544.712	15061
544.777	14196
544.842	13789
544.907	14058
544.972	13724
545.037	15049
545.102	16689
545.168	14900
545.233	16425
545.298	15121
545.363	15344
545.428	16229
545.493	17907
545.558	15910
545.623	15975
545.688	15616
545.753	18018
545.818	17638
545.883	19789
545.947	18927
546.012	20285
546.077	20446
546.142	22112
546.207	21783
546.272	24346
546.337	23675
546.401	25735
546.466	26626
546.531	25702
546.596	29590
546.661	31613
546.725	32280
546.790	34547
546.855	37854
546.919	41197
546.984	46874
547.049	50547
547.113	58245
547.178	63395
547.243	72245
547.307	84014
547.372	91843
547.436	92100
547.501	96137
547.565	103802
547.630	94624
547.695	90251
547.759	91495
547.823	92753
547.888	95750
547.952	99088
548.017	104227
548.081	112932
548.146	104020
548.210	104200
548.274	114159
548.339	111050
548.403	101751
548.468	95604
548.532	94942
548.596	98882
548.660	97994
548.725	106904
548.789	114564
548.853	110250
548.917	105669
548.982	102992
549.046	93480
549.110	85021
549.174	87161
549.238	102100
549.303	112343
549.367	116264
549.431	108078
549.495	101857
549.559	103208
549.623	118234
549.687	130021
549.751	126153
549.815	148135
549.879	153002
549.943	145806
550.007	153004
550.071	151640
550.135	135069
550.199	129572
550.263	129347
550.327	122637
550.391	126739
550.455	141488
550.519	145123
550.582	152003
550.646	171329
550.710	173444
550.774	172598
550.838	172974
550.901	179273
550.965	191506
551.029	196479
551.093	211896
551.156	228050
551.220	250401
551.284	267862
551.347	219781
551.411	187544
551.475	178342
551.538	184024
551.602	171538
551.666	163374
551.729	155780
551.793	150410
551.856	149615
551.920	145807
551.983	147610
552.047	144440
552.110	144859
552.174	148330
552.237	150469
552.301	140842
552.364	134098
552.428	129924
552.491	134097
552.554	135719
552.618	135278
552.681	139447
552.745	130815
552.808	135264
552.871	141274
552.934	140648
552.998	137036
553.061	131085
553.124	128292
553.187	129153
553.251	131707
553.314	131952
553.377	133796
553.440	142754
553.503	146392
553.567	145765
553.630	143143
553.693	141394
553.756	143412
553.819	139036
553.882	135153
553.945	136014
554.008	136292
554.071	137451
554.134	139716
554.197	131615
554.260	127421
554.323	129678
554.386	132106
554.449	135788
554.512	135956
554.575	132040
554.638	129600
554.701	128993
554.764	127941
554.827	124044
554.889	120846
554.952	113966
555.015	110985
555.078	113769
555.141	115589
555.203	111376
555.266	110421
555.329	111305
555.391	107248
555.454	105167
555.517	101802
555.580	98402
555.642	96086
555.705	93103
555.768	93489
555.830	91014
555.893	87036
555.955	84305
556.018	85036
556.080	83608
556.143	85461
556.206	83581
556.268	82175
556.330	79986
556.393	78077
556.455	77152
556.518	74775
556.580	73562
556.643	69386
556.705	68703
556.767	66290
556.830	66655
556.892	65657
556.955	64269
557.017	63215
557.079	62930
557.142	61683
557.204	60623
557.266	60365
557.328	57099
557.391	52950
557.453	51719
557.515	52562
557.577	53970
557.639	53991
557.701	54128
557.764	52654
557.826	54412
557.888	56913
557.950	59222
558.012	63454
558.074	79283
558.136	152168
558.198	330294
558.260	136912
558.322	62484
558.384	60516
558.446	62934
558.508	66940
558.570	73803
558.632	83855
558.694	105963
558.756	168283
558.818	392197
558.880	760915
558.942	385109
559.003	360818
559.065	190023
559.127	81678
559.189	75370
559.251	83125
559.312	113289
559.374	230890
559.436	580951
559.498	345664
559.559	95727
559.621	76243
559.683	85895
559.744	129308
559.806	331901
559.868	477400
559.929	138084
559.991	85193
560.052	127154
560.114	318744
560.176	219371
560.237	190468
560.299	296049
560.360	78241
560.422	35611
560.483	29527
560.545	27143
560.606	26076
560.667	25108
560.729	23652
560.790	23039
560.852	22161
560.913	21450
560.974	20590
561.036	21328
561.097	20747
561.158	20385
561.220	19675
561.281	19655
561.342	18072
561.403	20203
561.465	18096
561.526	18937
561.587	18966
561.648	17612
561.709	17500
561.771	17754
561.832	16664
561.893	17071
561.954	17031
562.015	16928
562.076	15945
562.137	15698
562.198	15631
562.259	16359
562.320	16655
562.381	16302
562.442	15691
562.503	16156
562.564	14975
562.625	15887
562.686	14597
562.747	14641
562.808	15057
562.869	13802
562.930	14893
562.991	13983
563.051	13459
563.112	15293
563.173	14628
563.234	13362
563.294	14561
563.355	13281
563.416	13386
563.477	13382
563.537	13821
563.598	13567
563.659	12535
563.720	13040
563.780	12414
563.841	13184
563.901	12921
563.962	13105
564.023	12545
564.083	12893
564.144	12702
564.204	12658
564.265	12654
564.325	12739
564.386	12411
564.446	12493
564.507	12691
564.567	12750
564.628	11866
564.688	12698
564.749	11552
564.809	12958
564.869	12842
564.930	12388
564.990	12357
565.050	11476
565.111	12103
565.171	12508
565.231	12337
565.292	12242
565.352	12093
565.412	13177
565.472	11725
565.532	12308
565.593	11381
565.653	11742
565.713	12039
565.773	11738
565.833	12484
565.893	13482
565.953	11311
566.013	12640
566.074	11296
566.134	11307
566.194	10132
566.254	11975
566.314	10927
566.374	11297
566.434	11343
566.494	11350
566.554	11275
566.614	12054
566.673	11761
566.733	12779
566.793	12361
566.853	12212
566.913	12070
566.973	12516
567.033	12589
567.092	12474
567.152	11582
567.212	12748
567.272	12365
567.331	12969
567.391	12246
567.451	12983
567.511	13492
567.570	13456
567.630	12984
567.690	13598
567.749	12054
567.809	12614
567.868	14002
567.928	12788
567.988	12509
568.047	13261
568.107	12545
568.166	12472
568.226	12321
568.285	12260
568.345	13001
568.404	13629
568.464	12790
568.523	12752
568.582	13331
568.642	13506
568.701	12328
568.761	12637
568.820	12097
568.879	12125
568.939	12225
568.998	13341
569.057	12188
569.116	11947
569.176	12694
569.235	12877
569.294	12691
569.353	12456
569.413	12389
569.472	12034
569.531	12394
569.590	12604
569.649	13219
569.708	11959
569.767	12376
569.827	12680
569.886	11694
569.945	11375
570.004	12614
570.063	13237
570.122	12097
570.181	14546
570.240	12614
570.299	13485
570.358	13561
570.417	13051
570.475	15079
570.534	14908
570.593	12972
570.652	14639
570.711	13636
570.770	13188
570.829	14036
570.887	13374
570.946	15063
571.005	13222
571.064	14476
571.122	14244
571.181	13515
571.240	13454
571.299	13192
571.357	13292
571.416	13472
571.475	12447
571.533	14059
571.592	14705
571.650	13959
571.709	14652
571.768	16580
571.826	18462
571.885	15343
571.943	14361
572.002	12688
572.060	13379
572.119	14615
572.177	14105
572.236	14095
572.294	12567
572.352	14978
572.411	14862
572.469	14031
572.528	14035
572.586	13982
572.644	13714
572.703	13488
572.761	13814
572.819	12657
572.877	13796
572.936	11544
572.994	12588
573.052	12397
573.110	12858
573.169	13567
573.227	13360
573.285	13546
573.343	13561
573.401	12704
573.459	13640
573.517	13012
573.576	13977
573.634	14225
573.692	13392
573.750	13860
573.808	12972
573.866	13712
573.924	12472
573.982	12537
574.040	13227
574.098	13007
574.155	12617
574.213	12824
574.271	12890
574.329	13643
574.387	13207
574.445	11595
574.503	11624
574.560	12236
574.618	11171
574.676	11682
574.734	12265
574.792	12397
574.849	11624
574.907	10363
574.965	10675
575.022	8919
575.080	9708
575.138	9562
575.195	9755
575.253	8867
575.311	10212
575.368	10333
575.426	9381
575.483	10723
575.541	10696
575.598	10442
575.656	10052
575.713	10525
575.771	11628
575.828	10527
575.886	10469
575.943	10640
576.001	8808
576.058	9514
576.115	9513
576.173	9588
576.230	9557
576.287	11189
576.345	9858
576.402	10455
576.459	11447
576.517	9751
576.574	10555
576.631	9858
576.688	9197
576.746	9361
576.803	9420
576.860	10055
576.917	9658
576.974	10273
577.031	10717
577.089	9479
577.146	9859
577.203	9204
577.260	9370
577.317	9063
577.374	8780
577.431	8358
577.488	9670
577.545	8488
577.602	9633
577.659	9328
577.716	9239
577.773	10129
577.830	9475
577.886	8783
577.943	8859
578.000	9152
578.057	8901
578.114	8938
578.171	9336
578.227	9211
578.284	8953
578.341	9275
578.398	9555
578.454	9783
578.511	9840
578.568	9596
578.625	10159
578.681	9334
578.738	9284
578.794	10122
578.851	9666
578.908	9166
578.964	9626
579.021	8910
579.077	9898
579.134	10666
579.190	9685
579.247	10593
579.303	9433
579.360	9681
579.416	10085
579.473	10406
579.529	8866
579.586	9799
579.642	10423
579.698	9742
579.755	11548
579.811	10127
579.867	10143
579.924	9310
579.980	9879
580.036	10625
580.093	10669
580.149	9586
580.205	9437
580.261	10280
580.317	10655
580.374	10774
580.430	12244
580.486	10719
580.542	10254
580.598	11476
580.619	11208
580.654	10755
580.692	11103
580.710	11298
580.765	11224
580.767	11236
580.823	11217
580.838	11378
580.879	11826
580.911	11589
580.935	11448
580.984	11588
580.991	11624
581.047	11078
581.057	11028
581.103	10858
581.130	10872
581.159	10891
581.203	11240
581.215	11361
581.270	11160
581.276	11067
581.326	10301
581.349	10350
581.382	10446
581.422	10713
581.438	10820
581.494	10328
581.494	10318
581.550	10181
581.567	10332
581.606	10662
581.640	10450
581.661	10394
581.713	10573
581.717	10583
581.773	10955
581.786	10844
581.829	10573
581.859	10888
581.885	11182
581.932	10646
581.940	10554
581.996	11274
582.004	11158
582.052	10528
582.077	10708
582.107	10969
582.150	11296
582.163	11354
582.219	10225
582.223	10199
582.274	10135
582.296	9869
582.330	9468
582.368	10088
582.386	10410
582.441	10507
582.441	10511
582.497	10002
582.514	9929
582.552	10002
582.587	9937
582.608	9850
582.659	10160
582.663	10193
582.719	10913
582.732	10716
582.774	9978
582.805	9889
582.830	9888
582.877	10282
582.885	10333
582.941	10352
582.950	10195
582.996	9499
583.023	9913
583.052	10448
583.095	10234
583.107	10128
583.162	9577
583.168	9604
583.218	9844
583.240	9436
583.273	8947
583.313	9479
583.328	9661
583.384	9874
583.385	9856
583.439	9208
583.458	9163
583.494	9136
583.531	9355
583.549	9538
583.603	8907
583.605	8881
583.660	9902
583.676	9804
583.715	9763
583.748	10217
583.770	10342
583.820	9921
583.825	9891
583.881	9882
583.893	9802
583.936	9690
583.965	9934
583.991	10029
584.038	10568
584.046	10642
584.101	9437
584.110	9439
584.156	9610
584.183	9756
584.211	9775
584.255	10111
584.266	10353
584.321	11340
584.328	11299
584.376	10261
584.400	10360
584.431	10555
584.472	10714
584.486	10748
584.541	11443
584.545	11431
584.596	11226
584.617	11228
584.651	11561
584.689	12015
584.706	11965
584.761	12043
584.762	12049
584.816	12358
584.834	12632
584.871	13183
584.906	13837
584.926	14073
584.978	14356
584.980	14385
585.035	15889
585.051	16500
585.090	18088
585.123	19964
585.145	20989
585.195	22138
585.200	22298
585.254	25562
585.267	26744
585.309	30421
585.340	33104
585.364	35470
585.412	41303
585.419	42130
585.473	52413
585.484	55293
585.528	69977
585.556	86312
585.583	110922
585.628	173286
585.637	192363
585.692	361624
585.700	390750
585.747	505057
585.772	440278
585.801	307520
585.845	133763
585.856	105529
585.910	53267
585.917	49391
585.965	35466
585.989	31452
586.019	27842
586.061	24760
586.074	23776
586.128	21204
586.133	21069
586.183	19912
586.205	19686
586.237	19324
586.277	18650
586.292	18433
586.346	18124
586.349	18144
586.401	18125
586.421	18150
586.455	17956
586.493	18013
586.509	18173
586.564	18042
586.565	18080
586.618	19349
586.637	20099
586.672	21744
586.709	24257
586.727	25464
586.781	29262
586.781	29230
586.835	22993
586.853	21619
586.889	19934
586.925	18924
586.944	18399
586.996	17719
586.998	17687
587.052	17085
587.068	17040
587.106	16820
587.140	17082
587.161	17279
587.212	17589
587.215	17586
587.269	17877
587.284	17965
587.323	18132
587.356	18576
587.377	18827
587.427	19470
587.431	19462
587.485	19552
587.499	19496
587.539	19334
587.571	19636
587.593	20171
587.643	21735
587.648	21793
587.702	21893
587.715	22084
587.755	22130
587.786	22117
587.810	22184
587.858	21886
587.864	21801
587.917	21899
587.930	21792
587.971	21454
588.001	21676
588.025	21870
588.073	22302
588.079	22276
588.133	21836
588.145	21813
588.187	21552
588.217	21641
588.241	21678
588.288	21656
588.295	21698
588.348	23019
588.360	23182
588.402	23184
588.431	23259
588.456	23172
588.503	23346
588.510	23418
588.564	25289
588.575	25637
588.617	26845
588.646	27789
588.671	28430
588.718	30118
588.725	30477
588.778	34470
588.789	35776
588.832	46419
588.861	56148
588.886	77292
588.932	126331
588.939	131982
588.993	179742
589.004	177736
589.047	95456
589.075	50389
589.100	38117
589.147	27438
589.154	27020
589.207	26056
589.218	25920
589.261	26113
589.290	26747
589.314	27214
589.361	28794
589.368	29276
589.421	34718
589.433	36501
589.475	55725
589.504	71340
589.528	92307
589.576	142993
589.582	140196
589.635	77727
589.647	65450
589.689	38146
589.718	25775
589.742	24676
589.790	23167
589.795	23044
589.849	22484
589.861	22368
589.902	21703
589.932	21547
589.955	21463
590.004	21453
590.009	21450
590.062	21941
590.075	22053
590.115	21042
590.146	20578
590.168	20895
590.218	21476
590.222	21429
590.275	21877
590.289	22027
590.328	22510
590.360	22848
590.381	22587
590.431	22194
590.435	22162
590.488	22490
590.503	22719
590.541	22537
590.574	22491
590.594	22809
590.645	23768
590.647	23724
590.700	24232
590.716	24520
590.753	25213
590.787	25837
590.806	25871
590.859	26141
590.859	26077
590.912	26754
590.930	27005
590.965	26976
591.001	27075
591.018	26794
591.071	25986
591.072	26054
591.124	26001
591.143	26052
591.177	26190
591.214	26719
591.230	26731
591.283	26878
591.285	26947
591.336	26485
591.356	26579
591.389	26657
591.427	26768
591.442	26589
591.495	26180
591.498	26236
591.547	25952
591.569	25937
591.600	26379
591.640	27085
591.653	27005
591.706	27066
591.711	27163
591.759	27778
591.782	28223
591.811	28560
591.853	29285
591.864	29291
591.917	29634
591.924	29783
591.969	28879
591.995	28485
592.022	28624
592.066	29194
592.075	29283
592.127	30444
592.137	30753
592.180	30572
592.208	30651
592.233	30655
592.279	30919
592.285	30979
592.338	32490
592.350	32945
592.390	32332
592.421	32047
592.443	32274
592.491	33183
592.495	33047
592.548	32752
592.562	32795
592.600	33200
592.633	33773
592.653	33354
592.704	32405
592.705	32597
592.775	33170
592.846	34953
592.916	34798
592.987	35042
593.058	36366
593.128	36542
593.199	36574
593.270	36505
593.341	37109
593.411	39563
593.482	41117
593.553	41673
593.623	41346
593.694	42802
593.764	44171
593.835	42670
593.906	43806
593.976	44355
594.047	45300
594.117	48201
594.188	48649
594.258	48210
594.329	48789
594.399	51124
594.470	51531
594.540	54070
594.611	55254
594.681	54566
594.751	55081
594.822	57943
594.892	59382
594.963	60605
595.033	62537
595.103	63812
595.174	64488
595.244	66135
595.314	68039
595.384	69646
595.455	71341
595.525	74210
595.595	77195
595.665	76415
595.736	74893
595.806	76844
595.876	77161
595.946	78357
596.016	82502
596.087	84399
596.157	84319
596.227	84679
596.297	89046
596.367	94761
596.437	99953
596.507	100420
596.577	97679
596.647	102308
596.717	109126
596.787	109206
596.857	109244
596.927	110366
596.997	109547
597.067	111113
597.137	113910
597.207	113886
597.277	115458
597.347	110317
597.417	108103
597.487	107136
597.557	109043
597.626	111976
597.696	114029
597.766	112947
597.836	106132
597.906	99696
597.975	99253
598.045	101782
598.115	104937
598.185	112099
598.254	125497
598.324	136269
598.394	138587
598.464	132302
598.533	132068
598.603	123075
598.672	119255
598.742	121525
598.812	121784
598.881	126053
598.951	124180
599.020	126962
599.090	132119
599.159	134325
599.229	127666
599.299	124962
599.368	130121
599.437	126849
599.507	117805
599.576	111132
599.646	110268
599.715	109886
599.785	107628
599.854	105492
599.924	102553
599.993	101815
600.062	104874
600.132	108096
600.201	114088
600.270	131097
600.340	140234
600.409	137674
600.478	136080
600.547	139006
600.617	125405
600.686	100031
600.755	90193
600.824	86025
600.894	82445
600.963	82759
601.032	83292
601.101	78495
601.170	74944
601.239	72403
601.308	72207
601.378	72704
601.447	71806
601.516	73023
601.585	72925
601.654	74035
601.723	74446
601.792	76091
601.861	79889
601.930	81566
601.999	82484
602.068	83224
602.137	82540
602.206	85061
602.275	85582
602.343	85828
602.412	86963
602.481	88278
602.550	89396
602.619	91028
602.688	92524
602.756	92247
602.825	93623
602.894	96786
602.963	98114
603.032	99890
603.100	99010
603.169	100631
603.238	100804
603.307	102352
603.375	103007
603.444	104524
603.513	107668
603.581	108445
603.650	109731
603.719	108703
603.787	113765
603.856	116192
603.924	118461
603.993	122802
604.061	128537
604.130	133225
604.198	134169
604.267	138141
604.335	140842
604.404	141892
604.472	145082
604.541	147265
604.609	148103
604.678	145933
604.746	146511
604.815	152906
604.883	153999
604.951	155162
605.020	156257
605.088	162508
605.156	165130
605.225	168239
605.293	166615
605.361	168903
605.429	170199
605.498	172205
605.566	177492
605.634	185920
605.702	191642
605.771	199488
605.839	199108
605.907	195799
605.975	189692
606.043	184229
606.111	185020
606.180	184855
606.248	181899
606.316	180377
606.384	178027
606.452	183411
606.520	187226
606.588	194701
606.656	197047
606.724	193028
606.792	182456
606.860	167207
606.928	150753
606.996	145990
607.064	142932
607.132	147201
607.200	153664
607.267	161508
607.335	163287
607.403	167087
607.471	162357
607.539	155907
607.607	159424
607.674	140745
607.742	139437
607.810	137573
607.878	137989
607.946	141164
608.013	147812
608.081	149822
608.149	152485
608.216	158672
608.284	163274
608.352	163946
608.419	160414
608.487	157998
608.555	156248
608.622	160674
608.690	170269
608.757	186164
608.825	190763
608.893	185021
608.960	175280
609.028	167368
609.095	167746
609.163	166600
609.230	150245
609.298	137623
609.365	145677
609.432	154763
609.500	169466
609.567	192577
609.635	218804
609.702	230846
609.769	219285
609.837	171295
609.904	148349
609.971	152656
610.039	164741
610.106	197532
610.173	318514
610.241	622038
610.308	390584
610.375	185172
610.442	161835
610.509	154585
610.577	155402
610.644	156506
610.711	161886
610.778	165523
610.845	173492
610.912	182998
610.980	188986
611.047	189602
611.114	186662
611.181	180708
611.248	181227
611.315	190559
611.382	194876
611.449	201323
611.516	204133
611.583	202413
611.650	202327
611.717	204219
611.784	208875
611.851	213866
611.918	223712
611.984	248011
612.051	311623
612.118	503573
612.185	971722
612.252	695213
612.319	302107
612.386	260562
612.452	241042
612.519	228358
612.586	225313
612.653	228788
612.719	236918
612.786	229009
612.853	214663
612.919	209448
612.986	213581
613.053	202325
613.120	190189
613.186	184216
613.253	186145
613.319	186215
613.386	185424
613.453	188302
613.519	188796
613.586	184101
613.652	189368
613.719	185620
613.785	189269
613.852	192224
613.918	191890
613.985	190553
614.051	198614
614.118	197146
614.184	189513
614.250	189694
614.317	195258
614.383	192794
614.449	197015
614.516	194100
614.582	195756
614.648	192131
614.715	190651
614.781	185266
614.847	186039
614.914	186035
614.980	181562
615.046	181099
615.112	186731
615.179	187968
615.245	189893
615.311	187628
615.377	189783
615.443	191534
615.509	194155
615.575	199648
615.642	196675
615.708	201044
615.774	207865
615.840	216689
615.906	225546
615.972	253300
616.038	337361
616.104	582168
616.170	1063588
616.236	934806
616.302	385717
616.368	313900
616.434	246965
616.500	229348
616.565	247929
616.631	296538
616.697	256183
616.763	258125
616.829	346892
616.895	554877
616.961	529460
617.026	273773
617.092	210756
617.158	198721
617.224	194846
617.289	182388
617.355	174647
617.421	172365
617.487	175123
617.552	166384
617.618	164683
617.684	165443
617.749	166194
617.815	157842
617.880	155544
617.946	156065
618.012	161350
618.077	162287
618.143	155786
618.208	156866
618.274	167561
618.339	166420
618.405	140506
618.470	142225
618.536	141694
618.601	139909
618.667	131116
618.732	123904
618.798	121931
618.863	121633
618.928	121900
618.994	123369
619.059	123409
619.124	123864
619.190	123529
619.255	119821
619.320	120726
619.386	123091
619.451	120063
619.516	117571
619.581	120152
619.647	121230
619.712	124475
619.777	119678
619.842	120303
619.907	120712
619.972	123011
620.038	123167
620.103	117722
620.168	118488
620.233	121023
620.298	122017
620.363	124365
620.428	126696
620.493	129769
620.558	130062
620.623	134001
620.688	131346
620.753	131149
620.818	133554
620.883	133475
620.948	132875
621.013	132406
621.078	130751
621.143	131193
621.207	134230
621.272	131570
621.337	127639
621.402	125602
621.467	124146
621.532	124201
621.596	125645
621.661	121665
621.726	119901
621.791	121760
621.855	122431
621.920	122467
621.985	122125
622.049	126174
622.114	126179
622.179	125706
622.243	128007
622.308	133610
622.373	136668
622.437	134111
622.502	127484
622.566	127393
622.631	126518
622.695	128986
622.760	126250
622.824	127251
622.889	127858
622.953	128519
623.018	134777
623.082	135772
623.147	136236
623.211	132676
623.276	132450
623.340	128129
623.404	127067
623.469	124614
623.533	127400
623.597	123682
623.662	123119
623.726	115436
623.790	110028
623.854	106621
623.919	108728
623.983	109528
624.047	110645
624.111	113457
624.176	115265
624.240	114240
624.304	117572
624.368	114198
624.432	114498
624.496	117053
624.560	122473
624.625	123252
624.689	121798
624.753	126966
624.817	122099
624.881	118593
624.945	109249
625.009	105234
625.073	106899
625.137	110207
625.201	113802
625.265	114961
625.329	108980
625.393	112021
625.456	110882
625.520	115290
625.584	115427
625.648	118424
625.712	119919
625.776	119580
625.839	111682
625.903	98410
625.967	91705
626.031	98331
626.095	112965
626.158	105366
626.222	85765
626.286	81564
626.349	78717
626.413	72940
626.477	73490
626.540	73521
626.604	70982
626.668	72443
626.731	70607
626.795	69696
626.858	69557
626.922	68215
626.986	68158
627.049	68291
627.113	71515
627.176	69966
627.240	66492
627.303	66924
627.366	65717
627.430	68222
627.493	66197
627.557	64850
627.620	66214
627.684	67494
627.747	68389
627.810	62634
627.874	56014
627.937	54309
628.000	57846
628.064	54262
628.127	48546
628.190	49713
628.253	48132
628.317	46691
628.380	43628
628.443	42133
628.506	41200
628.569	40189
628.632	38379
628.696	38880
628.759	38057
628.822	36935
628.885	35601
628.948	34984
629.011	35148
629.074	33396
629.137	32453
629.200	31831
629.263	33182
629.326	29613
629.389	31154
629.452	31289
629.515	30411
629.578	30136
629.641	31034
629.704	29722
629.767	29579
629.830	28738
629.892	28005
629.955	27490
630.018	29474
630.081	27433
630.144	27820
630.207	26297
630.269	27077
630.332	26148
630.395	26017
630.458	26790
630.520	24399
630.583	26634
630.646	25996
630.708	26283
630.771	26095
630.834	28606
630.896	26652
630.959	28081
631.021	25593
631.084	25420
631.146	25761
631.209	26625
631.272	25713
631.334	27076
631.397	26650
631.459	27647
631.522	27436
631.584	28532
631.646	29494
631.709	30427
631.771	30296
631.834	30156
631.896	29417
631.958	26434
632.021	26340
632.083	24649
632.145	25419
632.208	24947
632.270	25177
632.332	23881
632.395	23995
632.457	25011
632.519	24320
632.581	25427
632.643	23367
632.706	24368
632.768	22579
632.830	25531
632.892	24712
632.954	24251
633.016	25471
633.078	25096
633.141	24008
633.203	24171
633.265	23974
633.327	23621
633.389	23246
633.451	25573
633.513	24065
633.575	24990
633.637	24448
633.698	25089
633.760	26020
633.822	27253
633.884	26691
633.946	28595
634.008	28582
634.070	28743
634.132	29888
634.193	32345
634.255	35200
634.317	35847
634.379	34764
634.441	31869
634.502	29281
634.564	26869
634.626	25040
634.687	24782
634.749	23379
634.811	24588
634.873	21900
634.934	22893
634.996	23267
635.057	22387
635.119	23214
635.181	23602
635.242	25168
635.304	22248
635.365	26253
635.427	23771
635.488	22851
635.550	23690
635.611	24019
635.673	22496
635.734	26199
635.796	25364
635.857	28360
635.918	29516
635.980	32619
636.041	33584
636.102	37170
636.164	36031
636.225	36672
636.286	29463
636.348	27453
636.409	25144
636.470	23269
636.531	24274
636.593	23135
636.654	23035
636.715	22135
636.776	21754
636.838	20037
636.899	21898
636.960	20310
637.021	20976
637.082	19405
637.143	19592
637.204	18682
637.265	18984
637.326	19957
637.387	20819
637.448	19584
637.509	18875
637.570	19840
637.631	20454
637.692	18026
637.753	17687
637.814	18762
637.875	18232
637.936	19661
637.997	18287
638.058	18699
638.119	19814
638.179	18366
638.240	18394
638.301	18838
638.362	17570
638.423	17043
638.483	19309
638.544	15648
638.605	18520
638.666	16963
638.726	18242
638.787	18368
638.848	17049
638.908	16917
638.969	16699
639.030	16593
639.090	15602
639.151	15620
639.211	17381
639.272	16732
639.332	16808
639.393	17665
639.453	17720
639.514	18525
639.574	17666
639.635	15386
639.695	16659
639.756	15019
639.816	15838
639.877	14768
639.937	15592
639.997	15276
640.058	14953
640.118	14422
640.178	16443
640.239	15327
640.299	16028
640.359	14532
640.420	16948
640.480	18047
640.540	21481
640.600	19802
640.661	18631
640.721	18452
640.781	21745
640.841	20993
640.901	17532
640.961	15434
641.021	17387
641.082	15701
641.142	15105
641.202	16657
641.262	13390
641.322	15898
641.382	14338
641.442	14814
641.502	14872
641.562	15228
641.622	15627
641.682	16029
641.742	18002
641.802	16357
641.861	15476
641.921	13778
641.981	15183
642.041	14225
642.101	12762
642.161	12966
642.221	13723
642.280	13493
642.340	13275
642.400	13047
642.460	15592
642.519	14162
642.579	14860
642.639	15021
642.698	12424
642.758	16258
642.818	14591
642.877	14024
642.937	14456
642.997	15341
643.056	13721
643.116	12914
643.175	16162
643.235	14550
643.294	15779
643.354	16891
643.414	16975
643.473	20287
643.532	23381
643.592	29217
643.651	43692
643.711	71378
643.770	135230
643.830	302437
643.889	572278
643.948	173603
644.008	41475
644.067	26388
644.126	20303
644.186	18174
644.245	16887
644.304	14212
644.363	16566
644.423	12922
644.482	15730
644.541	16211
644.600	14902
644.659	20041
644.719	22990
644.778	33828
644.837	55651
644.896	108602
644.955	234144
645.014	82929
645.073	23576
645.132	17479
645.191	17141
645.250	15777
645.309	17731
645.368	18366
645.427	25029
645.486	38131
645.545	64344
645.604	22317
645.663	15979
645.722	13985
645.781	15881
645.840	18105
645.898	20521
645.957	27729
646.016	39942
646.075	68432
646.134	128969
646.192	317512
646.251	445853
646.310	89612
646.369	30697
646.427	25651
646.486	19095
646.545	16861
646.603	14735
646.662	13755
646.721	13355
646.779	12456
646.838	13785
646.896	17766
646.955	22735
647.014	34375
647.072	62077
647.131	162590
647.189	81161
647.248	16072
647.306	13874
647.365	12225
647.423	9049
647.481	11376
647.540	9530
647.598	10789
647.657	10422
647.715	11748
647.773	8842
647.832	10698
647.890	8169
647.948	8558
648.007	9049
648.065	8607
648.123	9219
648.181	9413
648.240	9288
648.298	7502
648.356	8118
648.414	8225
648.472	8575
648.531	7941
648.589	8497
648.647	8402
648.705	7698
648.763	7950
648.821	8978
648.879	8972
648.937	10941
648.995	12026
649.053	13804
649.111	20652
649.169	32770
649.227	57800
649.285	117272
649.343	312452
649.401	156574
649.459	24480
649.516	15030
649.574	10057
649.632	11870
649.690	13411
649.748	16930
649.806	22115
649.863	43319
649.921	117677
649.979	79408
650.037	13245
650.094	7091
650.152	7996
650.210	7160
650.268	7982
650.325	8069
650.383	10593
650.440	6395
650.498	5870
650.556	6125
650.613	5008
650.671	6007
650.728	5676
650.786	6311
650.843	8303
650.901	6845
650.958	5519
651.016	5508
651.073	4749
651.131	4399
651.188	4001
651.246	5334
651.303	3652
651.360	4707
651.418	4616
651.475	4344
651.532	3699
651.590	4738
651.647	2871
651.704	4010
651.762	4431
651.819	3199
651.876	3381
651.933	3932
651.990	4485
652.048	2672
652.105	3522
652.162	4096
652.219	3332
652.276	4254
652.333	3918
652.390	2491
652.448	4027
652.505	4392
652.562	4239
652.619	3473
652.676	3290
652.733	4295
652.790	3116
652.847	3079
652.904	3809
652.961	2260
653.017	2025
653.074	4337
653.131	2865
653.188	2720
653.245	2758
653.302	2980
653.359	2454
653.415	3650
653.472	2116
653.529	4599
653.586	2534
653.642	3210
653.699	4325
653.756	1981
653.813	2778
653.869	3625
653.926	2132
653.983	3253
654.039	2917
654.096	2542
654.152	3476
654.209	2019
654.266	2874
654.322	2045
654.379	3065
654.435	3218
654.492	3153
654.548	3150
654.605	2786
654.661	4669
654.717	2476
654.774	2780
654.830	2898
654.887	3033
654.943	3138
655.000	5118
655.056	4134
655.112	2597
655.168	1391
655.225	2780
655.281	2676
655.337	3411
655.394	2309
655.450	2545
655.506	2970
655.562	2266
655.618	2440
655.675	1849
655.731	2414
655.787	2580
655.843	3690
655.899	2063
655.955	3218
656.011	2851
656.067	2439
656.123	2946
656.179	2414
656.235	3915
656.291	1403
656.347	3930
656.403	1855
656.459	2305
656.515	2059
656.571	2573
656.627	2885
656.683	2320
656.739	2885
656.795	2518
656.850	2493
656.906	2826
656.962	4254
657.018	2781
657.074	4199
657.129	5518
657.185	8916
657.241	20304
657.297	11894
657.352	3335
657.408	2641
657.464	3155
657.519	2313
657.575	1751
657.630	1928
657.686	2467
657.742	1021
657.797	1929
657.853	1718
657.908	2942
657.964	1158
658.019	2088
658.075	2357
658.130	2214
658.186	1736
658.241	2595
658.297	1369
658.352	1905
658.407	2383
658.463	1858
658.518	1956
658.573	1764
658.629	1233
658.684	1402
658.739	2080
658.795	1441
658.850	1813
658.905	2001
658.960	2434
659.016	2314
659.071	1699
659.126	2290
659.181	1599
659.236	2853
659.291	2331
659.346	1511
659.401	1526
659.457	2453
659.512	1255
659.567	2554
659.622	1490
659.677	2184
659.732	893
659.787	2284
659.842	1989
659.897	2351
659.952	2580
660.007	2091
660.061	2013
660.116	1836
660.171	1365
660.226	1846
660.281	2252
660.336	1573
660.391	2711
660.445	1403
660.500	1507
660.555	2213
660.610	1145
660.664	2179
660.719	1282
660.774	2321
660.828	1493
660.883	1360
660.938	2051
660.992	157
661.047	2163
661.101	421
661.156	1858
661.211	1333
661.265	1182
661.320	1293
661.374	1572
661.429	196
661.483	2006
661.538	1683
661.592	1617
661.647	3000
661.701	2800
661.755	2985
661.810	1984
661.864	1595
661.919	805
661.973	1807
662.027	1706
662.081	1523
662.136	1544
662.190	1929
662.244	1263
662.299	995
662.353	2407
662.407	1259
662.461	1673
662.515	2244
662.569	643
662.624	1727
662.678	763
662.732	1586
662.786	1423
662.840	2037
662.894	2027
662.948	1621
663.002	1540
663.056	1614
663.110	700
663.164	808
663.218	911
663.272	2133
663.326	1513
663.380	1468
663.434	2336
663.488	614
663.542	1366
663.595	2461
663.649	1562
663.703	2284
663.757	1536
663.811	1413
663.864	1465
663.918	1930
663.972	1236
664.026	2311
664.079	877
664.133	2305
664.187	1025
664.240	2438
664.294	2139
664.348	2531
664.401	1215
664.455	1476
664.508	1553
664.562	1404
664.615	1823
664.669	1414
664.722	1748
664.776	1938
664.829	1128
664.883	1385
664.936	519
664.990	2004
665.043	1425
665.097	1145
665.150	2139
665.203	1403
665.257	1361
665.310	2446
665.363	1070
665.417	1784
665.470	1472
665.523	1789
665.576	1917
665.630	2668
665.683	1548
665.736	1976
665.789	1773
665.842	768
665.895	870
665.949	2310
666.002	1518
666.055	1486
666.108	2279
666.161	1931
666.214	2210
666.267	2329
666.320	1377
666.373	1905
666.426	1368
666.479	1946
666.532	1331
666.585	1870
666.638	2408
666.691	2598
666.744	1929
666.796	841
666.849	1759
666.902	2546
666.955	1321
667.008	1333
667.060	1254
667.113	1618
667.166	2026
667.219	1949
667.271	2195
667.324	2294
667.377	1546
667.430	2421
667.482	1220
667.535	2062
667.587	1885
667.640	1964
667.693	1746
667.745	2065
667.798	2316
667.850	2654
667.903	1699
667.955	2264
668.008	2209
668.060	2108
668.113	1614
668.165	1589
668.218	1608
668.270	1452
668.322	1461
668.375	1060
668.427	1681
668.479	1541
668.532	1577
668.584	2053
668.636	1052
668.689	1361
668.741	1852
668.793	1475
668.845	2234
668.898	1867
668.950	1032
669.002	1863
669.054	1050
669.106	1673
669.158	797
669.211	1744
669.263	1204
669.315	1787
669.367	1876
669.419	559
669.471	1840
669.523	1235
669.575	1591
669.627	1697
669.679	727
669.731	2453
669.783	1309
669.835	1325
669.886	1987
669.938	1326
669.990	1281
670.042	926
670.094	1197
670.146	1362
670.197	1361
670.249	1566
670.301	706
670.353	1067
670.404	1227
670.456	1595
670.508	704
670.560	1886
670.611	2343
670.663	1384
670.715	2998
670.766	3188
670.818	1086
670.869	1823
670.921	1352
670.972	1815
671.024	1528
671.075	2472
671.127	1620
671.178	1928
671.230	1601
671.281	1944
671.333	2585
671.384	2786
671.436	3532
671.487	6487
671.538	9471
671.590	15644
671.641	26823
671.692	49128
671.744	92672
671.795	61741
671.846	22064
671.897	10012
671.949	4692
672.000	4590
672.051	3000
672.102	2920
672.153	1071
672.204	1729
672.256	2029
672.307	1343
672.358	923
672.409	1103
672.460	1123
672.511	1060
672.562	306
672.613	653
672.664	875
672.715	775
672.766	820
672.817	1124
672.868	568
672.919	963
672.970	72
673.021	723
673.071	671
673.122	1575
673.173	1022
673.224	471
673.275	-107
673.326	1038
673.376	581
673.427	1081
673.478	162
673.528	1025
673.579	930
673.630	384
673.680	731
673.731	423
673.782	1049
673.832	942
673.883	747
673.934	-192
673.984	277
674.035	700
674.085	1382
674.136	980
674.186	166
674.237	864
674.287	-11
674.338	897
674.388	322
674.438	453
674.489	962
674.539	789
674.589	1100
674.640	1187
674.690	691
674.740	765
674.791	384
674.841	504
674.891	709
674.942	1144
674.992	190
675.042	52
675.092	165
675.142	-494
675.193	328
675.243	270
675.293	280
675.343	527
675.393	607
675.443	672
675.493	186
675.543	-391
675.593	247
675.643	104
675.693	787
675.743	388
675.793	-84
675.843	-784
675.893	187
675.943	1058
675.993	120
676.043	-19
676.093	16
676.142	-74
676.192	-29
676.242	519
676.292	-198
676.341	274
676.391	462
676.441	88
676.491	47
676.540	-117
676.590	215
676.640	263
676.689	759
676.739	433
676.789	610
676.838	-264
676.888	576
676.937	-192
676.987	-537
677.037	-117
677.086	-430
677.136	-101
677.185	-164
677.235	-223
677.284	1076
677.333	134
677.383	106
677.432	-418
677.482	-791
677.531	243
677.580	-1009
677.630	-38
677.679	163
677.728	123
677.778	254
677.827	-101
677.876	397
677.925	594
677.975	-119
678.024	429
678.073	-395
678.122	596
678.171	68
678.220	425
678.269	705
678.319	718
678.368	1259
678.417	403
678.466	43
678.515	157
678.564	-561
678.613	-350
678.662	-879
678.711	-346
678.760	316
678.809	99
678.857	-236
678.906	-7
678.955	-590
679.004	489
679.053	274
679.102	-59
679.151	-401
679.199	-2
679.248	-255
679.297	-41
679.346	803
679.394	-1251
679.443	-134
679.492	203
679.540	275
679.589	-79
679.638	2
679.686	330
679.735	-174
679.784	238
679.832	-378
679.881	-209
679.929	78
679.978	-94
680.026	-95
680.075	-160
680.123	-563
680.172	-220
680.220	198
680.268	-199
680.317	-896
680.365	77
680.414	-719
680.462	-397
680.510	579
680.559	-475
680.607	-384
680.655	-416
680.703	-53
680.752	-538
680.800	-587
680.848	207
680.896	-506
680.945	-168
680.993	-924
681.041	-665
681.089	-420
681.137	-361
681.185	-505
681.233	-404
681.258	-69
681.281	199
681.329	-785
681.377	25
681.380	96
681.425	469
681.473	779
681.502	423
681.521	88
681.569	-33
681.617	1018
681.624	935
681.665	11
681.713	652
681.745	575
681.761	458
681.809	441
681.857	1011
681.867	924
681.904	408
681.952	1957
681.989	1242
682.000	959
682.048	958
682.096	1381
682.111	1495
682.143	1588
682.191	1845
682.233	2100
682.239	2085
682.286	2252
682.334	2040
682.354	1916
682.382	1657
682.430	2545
682.476	1941
682.477	1879
682.525	1349
682.572	2261
682.598	2199
682.620	2114
682.667	2955
682.715	2733
682.720	2810
682.763	3051
682.810	3095
682.841	2937
682.857	2778
682.905	2894
682.952	3972
682.963	3807
683.000	3055
683.047	3756
683.085	4600
683.095	4788
683.142	3905
683.190	3922
683.206	3773
683.237	3379
683.284	4159
683.328	3784
683.332	3715
683.379	4267
683.426	3643
683.449	3937
683.473	4240
683.521	4338
683.568	4000
683.571	4132
683.615	5127
683.662	5052
683.693	4756
683.709	4523
683.757	4630
683.804	5318
683.814	5164
683.851	4611
683.898	5422
683.936	5248
683.945	5187
683.992	5668
684.039	5545
684.057	5647
684.086	5602
684.133	5251
684.179	5334
684.180	5309
684.227	5551
684.274	6435
684.300	6455
684.321	6516
684.368	5832
684.415	6515
684.422	6484
684.462	5977
684.509	6381
684.543	7475
684.556	7859
684.603	6202
684.649	6757
684.665	6700
684.696	6477
684.743	6739
684.786	6971
684.790	6962
684.837	6807
684.883	6963
684.908	7401
684.930	7795
684.977	7676
685.023	6998
685.029	7188
685.070	8448
685.117	7509
685.150	7613
685.164	7598
685.210	7789
685.257	8115
685.272	8193
685.303	8449
685.350	8230
685.393	8694
685.396	8676
685.443	7864
685.490	8258
685.514	7948
685.536	7823
685.583	8420
685.629	8213
685.636	8232
685.675	8250
685.722	7867
685.757	8365
685.768	8498
685.815	8652
685.861	8635
685.878	8677
685.908	8775
685.954	8572
686.000	9279
686.000	9281
686.047	9644
686.093	9463
686.121	9986
686.139	10192
686.185	9868
686.232	9936
686.242	9925
686.278	9856
686.324	10172
686.363	9825
686.370	9767
686.416	9712
686.463	10348
686.484	10445
686.509	10518
686.555	10274
686.601	9954
686.606	10047
686.647	10716
686.693	10526
686.727	9947
686.739	9774
686.785	10348
686.831	10098
686.848	10144
686.877	10179
686.923	10153
686.969	10358
686.969	10359
687.015	11039
687.061	11300
687.090	11672
687.107	11704
687.153	12212
687.199	12254
687.211	12104
687.245	11702
687.291	11720
687.332	11857
687.336	11914
687.382	11670
687.428	12430
687.453	12879
687.474	13160
687.520	13416
687.565	13754
687.574	13743
687.611	14800
687.657	16748
687.695	18334
687.702	18957
687.748	23161
687.794	27577
687.816	29240
687.839	26994
687.885	22766
687.931	18592
687.937	18018
687.976	16884
688.022	14907
688.058	13894
688.067	13966
688.113	13106
688.158	13177
688.179	13205
688.204	13293
688.249	13611
688.295	13427
688.300	13409
688.340	13465
688.386	13780
688.421	14005
688.431	14048
688.477	13870
688.522	14506
688.542	14375
688.567	14480
688.613	14680
688.658	15445
688.663	15476
688.703	15250
688.749	14850
688.784	14660
688.794	14718
688.839	15009
688.884	15461
688.905	15516
688.930	15469
688.975	15353
689.020	15352
689.026	15280
689.065	15313
689.110	16186
689.146	16451
689.155	16611
689.201	17541
689.246	18627
689.267	18957
689.291	18223
689.336	17001
689.381	14817
689.388	14644
689.426	15234
689.471	15640
689.509	15987
689.516	16003
689.561	15696
689.606	15375
689.630	15285
689.651	15469
689.696	15125
689.741	15902
689.750	16000
689.785	16350
689.830	16465
689.871	16235
689.875	16185
689.920	16151
689.965	15613
689.992	15360
690.010	15363
690.054	15276
690.099	15351
690.112	15400
690.144	15696
690.189	15723
690.233	15433
690.233	15455
690.278	16197
690.323	15318
690.354	15645
690.367	15832
690.412	15993
690.457	16101
690.474	16303
690.501	16480
690.546	16056
690.590	16095
690.595	16001
690.635	15420
690.680	15494
690.716	15044
690.724	15077
690.769	15821
690.813	16484
690.836	16448
690.857	16484
690.902	16601
690.946	17372
690.957	17421
690.991	17369
691.035	17399
691.077	17384
691.080	17425
691.124	17423
691.168	17615
691.198	17841
691.213	17875
691.257	17601
691.301	17475
691.318	17362
691.346	17390
691.390	16971
691.434	17309
691.439	17255
691.478	17219
691.522	17694
691.559	17619
691.567	17694
691.611	18211
691.655	18758
691.680	19032
691.699	18982
691.743	18589
691.787	18233
691.800	18052
691.831	18064
691.875	17982
691.919	18459
691.921	18423
691.964	18372
692.008	18699
692.041	18610
692.052	18617
692.096	18718
692.139	18453
692.162	18504
692.183	18595
692.227	18431
692.271	18609
692.282	18485
692.315	18286
692.359	18433
692.402	18581
692.403	18618
692.447	18167
692.490	17937
692.523	17449
692.534	17484
692.578	18244
692.622	18534
692.643	18704
692.666	18811
692.709	18945
692.753	18784
692.763	18774
692.797	18780
692.840	18755
692.884	18690
692.884	18732
692.928	18679
692.971	18815
693.004	19199
693.015	19285
693.059	19119
693.102	18673
693.124	18741
693.146	19038
693.189	19157
693.233	19416
693.245	19379
693.276	19408
693.320	19495
693.363	19668
693.365	19629
693.407	19575
693.450	19380
693.485	19297
693.493	19410
693.537	19831
693.580	19914
693.605	20058
693.624	19918
693.667	19442
693.710	18973
693.725	18773
693.753	18929
693.797	18796
693.840	19138
693.845	19120
693.883	19212
693.926	18950
693.966	18885
693.970	18958
694.013	19471
694.056	19899
694.086	20084
694.099	20161
694.142	19981
694.185	20088
694.206	20072
694.229	20201
694.272	20297
694.315	20523
694.326	20541
694.358	20847
694.401	20903
694.444	20963
694.446	20930
694.487	20927
694.530	20657
694.566	20417
694.573	20527
694.616	20743
694.659	21317
694.686	21599
694.702	21795
694.745	21859
694.787	22319
694.806	22361
694.830	22341
694.873	22316
694.916	22142
694.926	22075
694.959	22653
695.002	23292
695.044	23951
695.046	23923
695.087	24125
695.130	24171
695.166	24087
695.172	24121
695.215	24168
695.258	23940
695.286	23793
695.301	24056
695.343	24664
695.386	25285
695.406	25588
695.428	26901
695.471	29030
695.514	31269
695.526	31839
695.556	33493
695.599	35930
695.641	37918
695.646	38084
695.684	36371
695.726	34251
695.766	32178
695.769	32186
695.811	31097
695.854	30000
695.886	29178
695.896	29487
695.938	30267
695.981	31134
696.005	31559
696.023	32434
696.065	34492
696.108	36432
696.125	37208
696.150	38057
696.192	38951
696.235	40188
696.245	40389
696.277	40580
696.319	40577
696.361	40660
696.365	40557
696.404	39845
696.446	39022
696.485	38093
696.488	38193
696.530	38333
696.572	38423
696.604	38316
696.614	38293
696.656	37918
696.698	37385
696.724	37047
696.740	37409
696.783	38063
696.825	38811
696.844	38961
696.867	39207
696.909	39586
696.951	39889
696.964	39944
696.992	40288
697.034	40396
697.076	40666
697.083	40592
697.118	41657
697.160	42844
697.202	43979
697.203	43899
697.244	43517
697.286	42840
697.323	42162
697.327	42271
697.369	42222
697.411	42128
697.442	42011
697.453	42160
697.494	42351
697.536	42437
697.562	42447
697.578	42587
697.620	42518
697.661	42525
697.682	42409
697.703	43418
697.744	45212
697.786	47082
697.801	47588
697.828	47427
697.869	47004
697.911	46616
697.921	46393
697.952	46121
697.994	45607
698.035	45058
698.040	44881
698.077	45828
698.118	46642
698.160	47600
698.160	47479
698.201	48479
698.243	49379
698.279	50078
698.284	50304
698.325	51168
698.367	52004
698.399	52512
698.408	52847
698.449	53733
698.491	54614
698.518	55056
698.532	55152
698.573	55036
698.614	54846
698.638	54606
698.656	54700
698.697	54584
698.738	54452
698.757	54252
698.779	54492
698.820	54638
698.862	54793
698.877	54703
698.903	54645
698.944	54320
698.985	53981
698.996	53743
699.026	53905
699.067	53926
699.116	53804
699.235	54116
699.354	53986
699.474	48862
699.593	49711
699.713	50395
699.832	49877
699.951	52473
700.070	51546
700.190	48603
700.309	46838
700.428	46049
700.547	46097
700.667	45340
700.786	45583
700.905	42541
701.024	45152
701.143	42378
701.262	45498
701.381	47027
701.500	47959
701.619	45065
701.738	46850
701.857	44738
701.976	41368
702.095	43611
702.214	46857
702.333	43414
702.452	46079
702.571	45399
702.690	44961
702.809	45383
702.928	42843
703.047	39922
703.165	41044
703.284	41905
703.403	40638
703.522	39499
703.640	38954
703.759	38132
703.878	37403
703.997	38640
704.115	40093
704.234	38320
704.353	39141
704.471	34638
704.590	35551
704.708	34866
704.827	35009
704.946	34051
705.064	36322
705.183	34099
705.301	35749
705.420	32647
705.538	33886
705.656	31482
705.775	31213
705.893	33403
706.012	33378
706.130	31668
706.249	33839
706.367	31331
706.485	32952
706.604	31421
706.722	32857
706.840	43156
706.958	73871
707.077	48812
707.195	30183
707.313	30474
707.431	27429
707.549	28431
707.668	26294
707.786	31137
707.904	29022
708.022	29630
708.140	28745
708.258	27084
708.376	29554
708.494	26078
708.612	28894
708.730	28534
708.848	27132
708.966	28388
709.084	28122
709.202	27607
709.320	25664
709.438	24915
709.556	27384
709.674	23796
709.791	24479
709.909	24448
710.027	24509
710.145	23817
710.263	24240
710.380	23943
710.498	23737
710.616	23579
710.733	22430
710.851	23013
710.969	23290
711.086	21930
711.204	23720
711.322	22137
711.439	22850
711.557	19933
711.674	21364
711.792	21724
711.909	20682
712.027	21456
712.144	20327
712.262	21073
712.379	22820
712.497	20303
712.614	20769
712.732	21121
712.849	19824
712.966	21025
713.084	22170
713.201	19142
713.318	20245
713.436	22071
713.553	20933
713.670	22161
713.787	22507
713.905	19462
714.022	23004
714.139	23648
714.256	28795
714.373	38261
714.490	67581
714.608	167639
714.725	579347
714.842	562686
714.959	83810
715.076	35545
715.193	28770
715.310	25972
715.427	20117
715.544	20483
715.661	20119
715.778	18779
715.895	18114
716.011	19254
716.128	17395
716.245	18615
716.362	17756
716.479	15182
716.596	17045
716.713	18702
716.829	17365
716.946	15416
717.063	15651
717.180	14611
717.296	16226
717.413	15552
717.530	15473
717.646	14699
717.763	15346
717.880	15437
717.996	14040
718.113	14624
718.229	15033
718.346	13485
718.462	14693
718.579	14322
718.695	14342
718.812	13020
718.928	13332
719.045	13180
719.161	14202
719.277	13923
719.394	15853
719.510	15068
719.626	17451
719.743	19393
719.859	31508
719.975	60850
720.092	224756
720.208	460458
720.324	70760
720.440	22687
720.557	18001
720.673	15327
720.789	14092
720.905	13726
721.021	13305
721.137	11824
721.253	12499
721.369	11634
721.486	13178
721.602	11879
721.718	12754
721.834	11828
721.950	12511
722.066	12215
722.181	11100
722.297	11003
722.413	11722
722.529	11502
722.645	11565
722.761	11309
722.877	13018
722.993	12256
723.108	17203
723.224	15522
723.340	12587
723.456	11278
723.571	10870
723.687	10281
723.803	11939
723.918	11632
724.034	9830
724.150	11047
724.265	10626
724.381	9881
724.497	10292
724.612	9922
724.728	11582
724.843	9089
724.959	10689
725.074	10759
725.190	11000
725.305	9938
725.421	10882
725.536	10582
725.651	10764
725.767	10779
725.882	11401
725.997	10354
726.113	10952
726.228	9525
726.343	10467
726.459	9659
726.574	10755
726.689	9275
726.804	10668
726.920	10168
727.035	10373
727.150	10165
727.265	9669
727.380	9918
727.495	10541
727.610	9694
727.725	9159
727.841	9354
727.956	10169
728.071	9315
728.186	10316
728.301	9650
728.416	10991
728.531	9243
728.645	9399
728.760	9225
728.875	9471
728.990	9482
729.105	9700
729.220	9817
729.335	9731
729.449	9488
729.564	10250
729.679	8474
729.794	11253
729.908	10148
730.023	9588
730.138	10442
730.253	9985
730.367	9448
730.482	10631
730.596	10083
730.711	12508
730.826	21496
730.940	26176
731.055	13722
731.169	13981
731.284	14125
731.398	14058
731.513	14552
731.627	16409
731.742	20553
731.856	27029
731.970	26351
732.085	33923
732.199	46458
732.313	79221
732.428	189789
732.542	488586
732.656	295494
732.771	73127
732.885	40835
732.999	36553
733.113	37981
733.227	36248
733.342	33372
733.456	33117
733.570	31393
733.684	30333
733.798	28332
733.912	28470
734.026	29670
734.140	28766
734.254	27598
734.368	26795
734.482	26715
734.596	27620
734.710	26382
734.824	25516
734.938	25577
735.052	27636
735.166	26984
735.280	26106
735.393	25446
735.507	25909
735.621	24017
735.735	23375
735.849	24840
735.962	22938
736.076	23864
736.190	23275
736.303	24182
736.417	24855
736.531	22274
736.644	23858
736.758	22281
736.872	22715
736.985	22130
737.099	22252
737.212	21014
737.326	20677
737.439	22602
737.553	20758
737.666	21865
737.780	19475
737.893	21901
738.007	19345
738.120	22276
738.233	19033
738.347	21204
738.460	19067
738.573	22316
738.687	19657
738.800	19979
738.913	21127
739.026	19182
739.140	19180
739.253	19727
739.366	18735
739.479	18633
739.592	19909
739.705	16468
739.818	21273
739.932	17427
740.045	18384
740.158	17123
740.271	18829
740.384	18628
740.497	15988
740.610	18604
740.723	17260
740.836	16302
740.949	18243
741.062	19464
741.174	16225
741.287	17395
741.400	17571
741.513	14490
741.626	18391
741.739	16329
741.851	16779
741.964	17548
742.077	16300
742.189	13784
742.302	17016
742.415	15993
742.527	15806
742.640	16611
742.753	13442
742.865	16505
742.978	15953
743.090	13908
743.203	15808
743.316	14185
743.428	14093
743.541	15283
743.653	12939
743.766	14981
743.878	14893
743.990	13092
744.103	15382
744.215	14403
744.327	12463
744.440	16618
744.552	14055
744.664	12520
744.777	16428
744.889	13072
745.001	12760
745.113	14320
745.226	13739
745.338	12104
745.450	15344
745.562	12873
745.674	11585
745.786	14859
745.898	13919
746.010	11072
746.122	13878
746.234	13619
746.347	12850
746.459	13220
746.570	10801
746.682	13961
746.794	16083
746.906	11287
747.018	12826
747.130	13112
747.242	11052
747.354	10774
747.466	13480
747.577	10725
747.689	12811
747.801	12993
747.913	10838
748.024	11625
748.136	10917
748.248	10440
748.359	12280
748.471	11732
748.583	11061
748.694	10333
748.806	12340
748.918	9841
749.029	10986
749.141	10666
749.252	12025
749.364	10317
749.475	10155
749.587	9672
749.698	10453
749.809	11151
749.921	10694
750.032	10440
750.144	9449
750.255	8422
750.366	10309
750.478	9175
750.589	10974
750.700	8353
750.811	10655
750.923	9484
751.034	8505
751.145	10876
751.256	10188
751.367	9035
751.479	8729
751.590	9439
751.701	9232
751.812	8014
751.923	8671
752.034	10882
752.145	10604
752.256	9569
752.367	9132
752.478	8824
752.589	9338
752.700	9623
752.811	8295
752.922	8287
753.032	10000
753.143	9529
753.254	9054
753.365	9961
753.476	9954
753.586	9308
753.697	8076
753.808	8687
753.919	8469
754.029	8838
754.140	7841
754.251	8140
754.361	8338
754.472	10077
754.582	8724
754.693	8077
754.804	9422
754.914	7661
755.025	7093
755.135	8360
755.246	9453
755.356	7676
755.466	8071
755.577	8039
755.687	8325
755.798	7346
755.908	8149
756.018	7143
756.129	9113
756.239	8582
756.349	9137
756.460	8037
756.570	9006
756.680	7900
756.790	8192
756.900	8917
757.011	7220
757.121	6622
757.231	7455
757.341	7832
757.451	6638
757.561	7793
757.671	7394
757.781	7676
757.891	6957
758.001	6649
758.111	8427
758.221	8334
758.331	8896
758.441	8147
758.551	8185
758.661	8530
758.771	9468
758.880	8111
758.990	7170
759.100	7796
759.210	8907
759.320	7700
759.429	8390
759.539	9145
759.649	8748
759.758	10081
759.868	10394
759.978	11011
760.087	12094
760.197	10651
760.307	11140
760.416	9744
760.526	9687
760.635	9674
760.745	11889
760.854	11237
760.964	14031
761.073	12827
761.182	12637
761.292	9793
761.401	9780
761.511	8005
761.620	7468
761.729	7301
761.839	7342
761.948	7203
762.057	7080
762.166	7664
762.276	6055
762.385	7290
762.494	6445
762.603	6746
762.712	6739
762.822	6799
762.931	5724
763.040	5749
763.149	6185
763.258	5323
763.367	6913
763.476	5727
763.585	6078
763.694	6479
763.803	6707
763.912	6235
764.021	6103
764.130	6132
764.238	6671
764.347	6300
764.456	7057
764.565	5563
764.674	5348
764.783	5549
764.891	6135
765.000	5876
765.109	4647
765.217	4247
765.326	5794
765.435	5011
765.543	5870
765.652	4640
765.761	4904
765.869	5687
765.978	4987
766.086	6373
766.195	7168
766.303	12660
766.412	39368
766.520	39504
766.629	7350
766.737	5784
766.846	5855
766.954	4753
767.062	6514
767.171	5683
767.279	7390
767.387	4243
767.496	5688
767.604	3813
767.712	4550
767.820	4747
767.928	6119
768.037	4273
768.145	5491
768.253	5124
768.361	4817
768.469	4366
768.577	4985
768.685	4730
768.793	5421
768.901	4453
769.009	5430
769.117	4485
769.225	6527
769.333	5486
769.441	5798
769.549	6359
769.657	7855
769.765	13896
769.873	39649
769.981	11332
770.088	5751
770.196	5796
770.304	7314
770.412	6586
770.519	5972
770.627	7804
770.735	6870
770.842	6942
770.950	8975
771.058	8514
771.165	10483
771.273	11007
771.380	11456
771.488	15215
771.595	19316
771.703	16477
771.810	14941
771.918	16147
772.025	19379
772.133	23507
772.240	20850
772.348	24030
772.455	23079
772.562	19518
772.670	19218
772.777	20688
772.884	21218
772.991	19823
773.099	21352
773.206	17811
773.313	19841
773.420	19453
773.528	19971
773.635	17817
773.742	19722
773.849	17787
773.956	19035
774.063	17062
774.170	18440
774.277	18480
774.384	18020
774.491	17801
774.598	19227
774.705	16770
774.812	17564
774.919	16555
775.026	17174
775.133	16850
775.239	17834
775.346	15940
775.453	15776
775.560	16508
775.667	16386
775.773	16410
775.880	15996
775.987	16151
776.093	16369
776.200	18297
776.307	13580
776.413	13751
776.520	17903
776.627	15680
776.733	13548
776.840	11976
776.946	19819
777.053	14705
777.159	15757
777.266	13729
777.372	15950
777.478	16741
777.585	16143
777.691	12041
777.798	16310
777.904	13975
778.010	12674
778.117	14109
778.223	13994
778.329	14626
778.435	12043
778.542	14626
778.648	14075
778.754	11533
778.860	14028
778.966	13741
779.072	12909
779.178	13018
779.284	11331
779.391	11860
779.497	13613
779.603	13399
779.708	12691
779.815	10361
779.920	14166
780.026	10380
780.132	12135
780.238	12385
780.344	10549
780.450	15054
780.556	9541
780.661	9727
780.767	15200
780.873	8117
780.979	10815
781.085	13099
781.190	11402
781.296	10209
781.402	11262
781.507	11219
781.613	8244
781.719	10266
781.824	13321
781.930	9761
782.035	10409
782.141	13521
782.246	8915
782.352	9116
782.457	10634
782.563	9974
782.668	11443
782.773	9964
782.879	9718
782.984	10771
783.090	10210
783.195	10051
783.300	11630
783.405	9512
783.511	8635
783.616	8591
783.721	10121
783.826	9948
783.932	8821
784.037	9393
784.142	9812
784.247	7892
784.352	9825
784.457	7565
784.562	9546
784.667	11020
784.772	7533
784.877	5286
784.982	10397
785.087	10121
785.192	7778
785.297	7429
785.402	10114
785.507	9528
785.611	9013
785.716	6613
785.821	8736
785.926	8882
786.031	9129
786.135	8650
786.240	9544
786.345	6009
786.450	7174
786.554	8084
786.659	7156
786.763	7152
786.868	8278
786.973	9406
787.077	8092
787.182	6421
787.286	8693
787.391	9745
787.495	6244
787.600	5009
787.704	7985
787.809	8581
787.913	7542
788.017	7524
788.122	8614
788.226	7028
788.330	5220
788.435	6889
788.539	8484
788.643	7135
788.747	5060
788.852	7013
788.956	6401
789.060	8027
789.164	8054
789.268	6145
789.372	8282
789.476	6360
789.580	5591
789.684	4970
789.788	8279
789.892	7281
789.996	5870
790.100	5434
790.204	7441
790.308	8880
790.412	5635
790.516	5497
790.620	5632
790.724	8812
790.828	7026
790.931	4008
791.035	6473
791.139	4952
791.242	6904
791.346	5882
791.450	6893
791.554	5349
791.657	4407
791.761	5467
791.864	6914
791.968	6869
792.072	7563
792.175	5479
792.279	4966
792.382	5394
792.486	4976
792.589	4939
792.693	6117
792.796	4419
792.899	6066
793.003	6760
793.106	4681
793.209	4565
793.313	4995
793.416	3147
793.519	4960
793.623	7996
793.726	6465
793.829	3938
793.932	3557
794.035	3265
794.138	6453
794.242	7825
794.345	4302
794.448	3838
794.551	3353
794.654	5430
794.757	5941
794.860	3916
794.963	5557
795.066	4342
795.169	5667
795.272	4396
795.375	6260
795.477	3330
795.580	4655
795.683	2603
795.786	5805
795.889	4468
795.991	5478
796.094	5077
796.197	4117
796.300	5707
796.402	5893
796.505	3533
796.608	3173
796.710	4558
796.813	6298
796.915	5271
797.018	5637
797.120	4434
797.223	4969
797.326	6694
797.428	4169
797.530	3288
797.633	4730
797.735	5858
797.838	5027
797.940	5646
798.042	4007
798.145	4074
798.247	3695
798.349	2607
798.452	5661
798.554	4044
798.656	5080
798.758	6709
798.860	4478
798.962	4054
799.065	3839
799.167	3339
799.269	4671
799.371	5029
799.473	7062
799.575	5116
799.677	4315
799.779	4960
799.881	3258
799.983	4812
800.085	4061
800.187	4031
800.289	3165
800.390	3712
800.492	6331
800.594	4519
800.696	3547
800.798	3528
800.899	3547
801.001	4593
801.103	4628
801.205	3537
801.306	4602
801.408	3856
801.509	3731
801.611	4555
801.713	4851
801.814	2892
801.916	3076
802.017	2605
802.119	2968
802.220	4106
802.322	2503
802.423	4120
802.525	2649
802.626	3286
802.727	4340
802.829	4639
802.930	843
803.031	4040
803.133	3770
803.234	3999
803.335	4644
803.436	2605
803.538	4007
803.639	2519
803.740	4196
803.841	2344
803.942	4723
804.043	3348
804.144	2431
804.245	3331
804.346	3842
804.447	2471
804.548	3122
804.649	4825
804.750	3111
804.851	2722
804.952	3216
805.053	3669
805.154	2827
805.255	4047
805.355	3739
805.456	3537
805.557	2058
805.658	2470
805.758	3936
805.859	3046
805.960	4329
806.061	3092
806.161	3788
806.262	2589
806.362	2973
806.463	2533
806.564	4252
806.664	3547
806.765	3055
806.865	2932
806.966	3066
807.066	2607
807.166	3743
807.267	3861
807.367	1693
807.468	3900
807.568	2512
807.668	2967
807.769	4219
807.869	3232
807.969	3605
808.069	2125
808.170	3037
808.270	3071
808.370	3362
808.470	3383
808.570	3041
808.670	2864
808.770	2967
808.870	2775
808.970	3234
809.070	2709
809.170	3117
809.271	4123
809.370	3135
809.470	2570
809.570	3064
809.670	2498
809.770	2815
809.870	4221
809.970	3457
810.070	3349
810.169	4198
810.269	1967
810.369	5025
810.469	2019
810.568	2835
810.668	2385
810.768	2598
810.867	2907
810.967	2660
811.066	2435
811.166	3732
811.265	3957
811.365	2244
811.464	2562
811.564	2680
811.663	3528
811.763	1575
811.862	3312
811.962	3543
812.061	2996
812.160	3543
812.260	3107
812.359	3027
812.458	3091
812.557	3662
812.657	2564
812.756	4378
812.855	3111
812.954	2837
813.053	2487
813.153	2733
813.252	1796
813.351	3379
813.450	3658
813.549	2595
813.648	3399
813.747	3059
813.846	3659
813.945	4007
814.044	3499
814.143	3467
814.242	4150
814.341	3561
814.439	4183
814.538	3769
814.637	4361
814.736	4293
814.835	4340
814.933	4989
815.032	6270
815.131	7121
815.229	13540
815.328	19648
815.427	14330
815.525	12390
815.624	12244
815.722	12039
815.821	12889
815.919	14361
816.018	12171
816.116	12802
816.215	12365
816.313	13588
816.412	16764
816.510	17400
816.609	17195
816.707	19541
816.805	16791
816.904	16226
817.002	17008
817.100	17730
817.198	17032
817.296	16439
817.395	15888
817.493	15192
817.591	14250
817.689	15100
817.787	15167
817.885	15433
817.983	13226
818.081	15345
818.179	14061
818.277	19257
818.375	16523
818.473	15231
818.571	12947
818.669	15333
818.767	16364
818.865	14267
818.963	10804
819.061	14687
819.158	13922
819.256	17233
819.354	14193
819.452	19645
819.549	16381
819.647	16390
819.745	12254
819.842	13170
819.940	13930
820.038	12863
820.135	11327
820.233	14422
820.330	13149
820.428	11755
820.525	14705
820.623	12366
820.720	10755
820.818	12740
820.915	12446
821.012	12596
821.110	10634
821.207	12513
821.304	10100
821.402	12835
821.499	11757
821.596	10269
821.693	11155
821.791	12995
821.888	10960
821.985	13253
822.082	9875
822.179	11629
822.276	12826
822.373	10158
822.470	10319
822.567	11362
822.664	9474
822.761	10869
822.858	11637
822.955	9713
823.052	8913
823.149	10131
823.246	10925
823.343	7983
823.440	8639
823.536	11249
823.633	10053
823.730	9303
823.827	10929
823.923	11070
824.020	8772
824.117	10832
824.213	10495
824.310	10111
824.407	6936
824.503	10685
824.600	8351
824.696	8266
824.793	10851
824.889	9614
824.986	8708
825.082	6329
825.179	7283
825.275	10868
825.371	11599
825.468	8110
825.564	4759
825.660	8676
825.757	11715
825.853	9658
825.949	6767
826.045	7455
826.142	8228
826.238	10269
826.334	8612
826.430	8791
826.526	6235
826.622	4800
826.718	9199
826.814	11176
826.910	8969
827.006	4867
827.102	5531
827.198	8588
827.294	9710
827.390	10532
827.486	6651
827.582	5807
827.678	5444
827.774	10187
827.869	6410
827.965	7443
828.061	5226
828.157	9218
828.252	9115
828.348	7266
828.444	6328
828.539	6629
828.635	7625
828.731	8188
828.826	5847
828.922	8349
829.017	8326
829.113	9158
829.208	6734
829.304	6779
829.399	9458
829.495	8209
829.590	5848
829.685	7527
829.781	7323
829.876	8536
829.971	4250
830.066	4295
830.162	6534
830.257	11198
830.352	6743
830.447	5038
830.543	5645
830.638	7868
830.733	7790
830.828	5842
830.923	7277
831.018	7304
831.113	8885
831.208	6123
831.303	3442
831.398	4595
831.493	6697
831.588	11543
831.683	6046
831.778	4339
831.873	5029
831.967	7128
832.062	7926
832.157	5298
832.252	6137
832.346	5798
832.441	7539
832.536	6888
832.631	6196
832.725	5075
832.820	5051
832.914	6647
833.009	4550
833.104	4154
833.198	4376
833.293	5250
833.387	7157
833.482	5934
833.576	5211
833.670	6137
833.765	5788
833.859	7544
833.954	7233
834.048	6066
834.142	4410
834.237	3673
834.331	5882
834.425	5714
834.519	4978
834.613	4659
834.708	4731
834.802	4500
834.896	5748
834.990	6021
835.084	3704
835.178	3637
835.272	4804
835.366	6832
835.460	8006
835.554	5510
835.648	3656
835.742	3502
835.836	3667
835.930	4461
836.024	6063
836.117	4998
836.211	4471
836.305	3266
836.399	3717
836.493	2846
836.586	4982
836.680	4609
836.774	3994
836.867	4266
836.961	2358
837.055	3884
837.148	2759
837.242	5355
837.335	4012
837.429	4000
837.522	1990
837.616	4646
837.709	3961
837.803	4074
837.896	4966
837.989	6081
838.083	2924
838.176	2403
838.269	1709
838.363	4893
838.456	3194
838.549	5363
838.642	4479
838.735	3664
838.829	4951
838.922	3722
839.015	3410
839.108	3512
839.201	3010
839.294	5773
839.387	3637
839.480	2539
839.573	3266
839.666	2726
839.759	3744
839.852	3518
839.945	4979
840.038	4096
840.131	2225
840.223	3339
840.316	3631
840.409	5029
840.502	4714
840.594	5400
840.687	1825
840.780	2386
840.873	1727
840.965	3605
841.058	3215
841.150	5899
841.243	1953
841.336	3323
841.428	3308
841.521	3307
841.613	2874
841.706	3629
841.798	2494
841.890	3718
841.983	2782
842.075	3156
842.167	2758
842.260	3382
842.352	4552
842.444	4328
842.537	2562
842.629	2975
842.721	1413
842.813	3670
842.905	3016
842.997	4308
843.090	4038
843.182	2850
843.274	1609
843.366	2938
843.458	2590
843.550	4996
843.642	2470
843.734	3567
843.826	922
843.918	2628
844.009	3480
844.101	3370
844.193	2805
844.285	3554
844.377	5177
844.469	2850
844.560	1405
844.652	2195
844.744	1852
844.835	2282
844.927	3432
845.019	3389
845.110	2643
845.202	3228
845.293	2430
845.385	1928
845.476	2897
845.568	3241
845.659	2193
845.751	3011
845.842	1983
845.934	2672
846.025	1538
846.116	3032
846.208	2420
846.299	2284
846.390	2382
846.482	1877
846.573	3118
846.664	3282
846.755	1313
846.846	4015
846.937	1368
847.029	2265
847.120	1978
847.211	2576
847.302	3354
847.393	2279
847.484	3606
847.575	1773
847.666	2012
847.757	1870
847.847	2657
847.938	3761
848.029	3106
848.120	2509
848.211	1725
848.302	2180
848.392	2059
848.483	2341
848.574	1677
848.664	3180
848.755	2253
848.846	2479
848.936	2235
849.027	2920
849.118	3102
849.208	2600
849.299	4128
849.389	5829
849.480	9643
849.570	17265
849.661	30508
849.751	52508
849.841	21583
849.932	5615
850.022	3581
850.112	3626
850.203	3423
850.293	2126
850.383	2725
850.474	2440
850.564	2330
850.654	1767
850.744	1731
850.834	2176
850.924	2574
851.014	3825
851.104	3140
851.194	2409
851.284	2619
851.374	2695
851.464	1950
851.554	1975
851.644	1796
851.734	3189
851.824	1889
851.914	2655
852.004	3482
852.094	1519
852.183	1331
852.273	2259
852.363	2146
852.452	2067
852.542	2329
852.632	2084
852.721	2428
852.811	2120
852.901	3404
852.990	2704
853.080	2869
853.169	3329
853.259	3219
853.348	2725
853.438	4088
853.527	4614
853.617	6042
853.706	11543
853.795	18113
853.885	35853
853.974	61540
854.063	105110
854.152	143571
854.242	69967
854.331	21056
854.420	10052
854.509	7819
854.598	6192
854.687	4766
854.777	4093
854.866	3283
854.955	2944
855.044	2806
855.133	2753
855.222	2872
855.311	2960
855.400	2078
855.488	2383
855.577	1592
855.666	2415
855.755	2306
855.844	3019
855.933	2288
856.021	2163
856.110	2345
856.199	1343
856.288	1733
856.376	1533
856.465	1145
856.554	2656
856.642	2177
856.731	3040
856.819	3116
856.908	2206
856.996	2206
857.085	1260
857.173	567
857.262	1110
857.350	654
857.438	1323
857.527	2237
857.615	2175
857.703	3048
857.792	1443
857.880	754
857.968	1909
858.056	1615
858.145	1919
858.233	2395
858.321	1362
858.409	1803
858.497	2555
858.585	1345
858.673	1657
858.761	1191
858.849	1035
858.937	1125
859.025	2242
859.113	1764
859.201	2960
859.289	2811
859.377	2560
859.465	1600
859.552	2353
859.640	982
859.728	1980
859.816	764
859.903	2391
859.991	987
860.079	2109
860.166	1593
860.254	2395
860.342	2163
860.429	2488
860.517	1740
860.604	2202
860.692	1945
860.779	1724
860.867	837
860.954	2193
861.042	3418
861.129	3295
861.216	3596
861.304	3386
861.391	1479
861.478	2118
861.565	2221
861.653	2630
861.740	1668
861.827	1775
861.914	1434
862.001	2221
862.089	2015
862.176	3266
862.263	1931
862.350	2579
862.437	1782
862.524	1947
862.611	2084
862.698	3528
862.785	2142
862.871	3586
862.958	3309
863.045	2990
863.132	2564
863.219	2640
863.306	929
863.392	3440
863.479	2100
863.566	2423
863.652	2899
863.739	2860
863.826	3119
863.912	2983
863.999	2049
864.086	3320
864.172	3425
864.259	3920
864.345	3439
864.432	4260
864.518	3612
864.604	3692
864.691	3386
864.777	4158
864.863	4696
864.950	8632
865.036	11095
865.122	18449
865.209	20612
865.295	16946
865.381	16017
865.467	15080
865.553	16346
865.639	17276
865.726	20887
865.812	29804
865.898	43200
865.984	62257
866.070	96013
866.156	102135
866.242	44808
866.328	22337
866.414	17619
866.499	15265
866.585	14749
866.671	14532
866.757	14633
866.843	14406
866.928	13284
867.014	12743
867.100	13919
867.186	12213
867.271	12081
867.357	14072
867.442	12689
867.528	12577
867.614	13692
867.699	12600
867.785	12063
867.870	11990
867.956	12226
868.041	12553
868.127	10290
868.212	12780
868.297	10357
868.383	12903
868.468	10945
868.553	13101
868.639	11149
868.724	11783
868.809	11675
868.894	11324
868.979	10486
869.065	11247
869.150	9627
869.235	10623
869.320	11385
869.405	9744
869.490	11333
869.575	11573
869.660	8803
869.745	10504
869.830	11869
869.915	10102
870.000	9697
870.085	9232
870.169	12021
870.254	13393
870.339	8254
870.424	8636
870.509	9563
870.593	11944
870.678	11513
870.763	10699
870.847	8110
870.932	10594
871.016	11020
871.101	7863
871.186	9437
871.270	12391
871.355	8789
871.439	8948
871.523	10866
871.608	9027
871.692	7025
871.777	10769
871.861	10184
871.945	9259
872.030	9986
872.114	9848
872.198	8085
872.282	8885
872.367	9003
872.451	8324
872.535	7776
872.619	9178
872.703	8067
872.787	9367
872.871	9448
872.955	7647
873.039	5112
873.123	8717
873.207	9563
873.291	6653
873.375	7396
873.459	10430
873.543	8392
873.627	7791
873.711	7426
873.794	8954
873.878	8192
873.962	6978
874.045	6669
874.129	7029
874.137	7136
874.213	8211
874.245	7949
874.296	7534
874.352	6720
874.380	6324
874.460	7319
874.464	7362
874.547	7705
874.568	7750
874.631	7869
874.676	6953
874.714	6202
874.784	8364
874.798	8785
874.881	6443
874.892	6328
874.965	5642
874.999	6128
875.048	6727
875.107	7368
875.131	7648
875.215	5564
875.215	5562
875.298	4777
875.323	5323
875.381	6602
875.430	8215
875.465	9376
875.538	8129
875.548	7946
875.631	5254
875.646	5111
875.714	4486
875.753	4717
875.798	4985
875.861	6097
875.881	6439
875.964	5767
875.968	5684
876.047	4264
876.076	5068
876.130	6585
876.183	6684
876.213	6709
876.291	7141
876.296	7173
876.379	5774
876.398	5674
876.462	5212
876.506	4914
876.545	4719
876.613	5360
876.628	5505
876.711	5976
876.721	6043
876.794	6552
876.828	6444
876.877	6156
876.935	4889
876.960	4505
877.043	4700
877.043	4706
877.125	5372
877.150	5644
877.208	6460
877.258	5655
877.291	5126
877.365	3940
877.374	3781
877.456	4446
877.472	4260
877.539	3643
877.579	4543
877.622	5436
877.687	5738
877.704	5824
877.787	5005
877.794	4985
877.869	4822
877.901	5006
877.952	5100
878.008	4006
878.034	3553
878.115	3683
878.117	3683
878.199	4017
878.222	4247
878.282	5042
878.329	5172
878.364	5046
878.437	4593
878.447	4547
878.529	3846
878.544	3752
878.611	3409
878.651	3835
878.694	4333
878.758	4656
878.776	4736
878.858	4513
878.865	4494
878.941	4062
878.972	3559
879.023	2759
879.078	3253
879.105	3600
879.185	4665
879.187	4676
879.269	4672
879.292	4712
879.351	4863
879.399	3892
879.433	3128
879.506	2910
879.516	2922
879.598	4220
879.613	4064
879.680	3234
879.720	3942
879.762	4643
879.827	3516
879.844	3239
879.926	3841
879.933	3853
880.007	3765
880.040	3433
880.089	2999
880.147	2989
880.171	3022
880.253	4436
880.254	4434
880.335	3340
880.360	3708
880.417	4477
880.467	4301
880.499	4039
880.574	4283
880.580	4314
880.662	4252
880.680	3960
880.744	3151
880.787	3130
880.825	2942
880.893	3325
880.907	3371
880.989	2604
881.000	2736
881.070	4110
881.106	4140
881.152	3773
881.213	2676
881.233	2422
881.315	3023
881.319	3059
881.396	3617
881.426	3476
881.478	3089
881.532	3562
881.559	3901
881.639	3629
881.641	3605
881.722	2809
881.745	2803
881.803	2907
881.852	3184
881.885	3445
881.958	2498
881.966	2404
882.047	2901
882.064	2901
882.129	2413
882.171	2289
882.210	2308
882.277	1942
882.291	1924
882.372	3187
882.383	3257
882.454	3742
882.489	3842
882.535	3673
882.596	3665
882.616	3608
882.697	2990
882.702	2937
882.778	2500
882.808	2438
882.859	2143
882.914	2148
882.940	2221
883.020	2738
883.021	2741
883.102	3189
883.127	3468
883.183	3896
883.233	3273
883.264	2643
883.339	2017
883.345	2028
883.426	1904
883.445	2033
883.507	2023
883.551	2186
883.587	2590
883.657	3139
883.668	3203
883.749	3241
883.763	3223
883.830	2354
883.869	1837
883.910	1638
883.975	2110
883.991	2299
884.072	2801
884.081	2901
884.152	3175
884.187	3078
884.233	3323
884.292	3295
884.314	2931
884.394	1137
884.398	1109
884.475	1326
884.504	1434
884.555	1829
884.610	2127
884.636	2120
884.716	2278
884.716	2279
884.797	3438
884.821	3451
884.877	2572
884.927	2160
884.958	2167
885.033	2127
885.038	2074
885.118	1214
885.139	1097
885.199	1313
885.244	1577
885.279	1871
885.350	2237
885.359	2378
885.439	3950
885.456	4091
885.520	2625
885.561	1808
885.600	1605
885.667	1799
885.680	1948
885.760	2635
885.773	2621
885.840	1078
885.878	763
885.920	1569
885.984	2626
886.000	2453
886.080	1459
886.089	1364
886.160	2171
886.195	2457
886.240	2389
886.300	2272
886.320	2182
886.400	2238
886.406	2213
886.480	1684
886.511	1640
886.560	1825
886.616	1867
886.640	1729
886.720	1355
886.722	1351
886.800	1396
886.827	1504
886.879	1744
886.932	1771
886.959	2002
887.038	2668
887.039	2657
887.119	2044
887.143	1937
887.198	2081
887.248	2012
887.278	1825
887.354	1623
887.358	1632
887.437	1663
887.459	1781
887.517	1987
887.564	1908
887.596	1717
887.669	1500
887.676	1476
887.755	1265
887.774	1184
887.835	1385
887.880	1656
887.914	1705
887.985	1722
887.994	1771
888.073	2462
888.090	2532
888.153	2555
888.195	2558
888.232	2255
888.300	1919
888.311	1839
888.391	1191
888.405	1099
888.470	1360
888.510	1435
888.549	1319
888.615	1356
888.628	1515
888.708	2386
888.720	2525
888.787	1914
888.825	1494
888.866	1142
888.930	787
888.945	872
889.024	1349
889.035	1411
889.103	1922
889.140	2182
889.182	1615
889.245	883
889.261	1059
889.340	1905
889.349	2006
889.419	1209
889.454	829
889.498	664
889.559	476
889.577	683
889.656	1633
889.664	1737
889.735	2304
889.768	2575
889.814	2176
889.873	1648
889.978	1218
890.083	705
890.187	1500
890.292	1916
890.397	1122
890.501	537
890.606	1239
890.710	1841
890.815	2234
890.919	1211
891.024	1103
891.128	1054
891.233	856
891.337	1672
891.442	2638
891.546	939
891.650	1203
891.755	852
891.859	2474
891.963	1776
892.068	1676
892.172	946
892.276	1077
892.380	230
892.484	2340
892.589	2120
892.693	1529
892.797	1211
892.901	781
893.005	1679
893.109	2395
893.213	1972
893.317	958
893.421	336
893.525	1079
893.629	1263
893.733	1338
893.837	575
893.941	2231
894.045	1000
894.148	917
894.252	779
894.356	2174
894.460	1728
894.564	951
894.667	540
894.771	1588
894.875	-315
894.978	1263
895.082	577
895.186	1317
895.289	1236
895.393	1046
895.496	1113
895.600	761
895.703	541
895.807	1533
895.910	573
896.014	1668
896.117	988
896.221	1562
896.324	1122
896.427	1204
896.531	796
896.634	940
896.737	1009
896.840	1534
896.944	1042
897.047	2088
897.150	904
897.253	865
897.356	1027
897.460	368
897.563	881
897.666	647
897.769	514
897.872	1189
897.975	629
898.078	794
898.181	1234
898.284	1189
898.387	1381
898.490	1331
898.593	954
898.695	950
898.798	948
898.901	102
899.004	783
899.107	1626
899.209	680
899.312	2671
899.415	518
899.518	891
899.620	217
899.723	1068
899.826	1038
899.928	442
900.031	412
900.133	1898
900.236	914
900.338	1038
900.441	1199
900.543	874
900.646	105
900.748	535
900.851	677
900.953	727
901.055	911
901.158	674
901.260	1307
901.362	592
901.465	190
901.567	950
901.669	1188
901.771	1457
901.873	1516
901.976	606
902.078	1109
902.180	509
902.282	384
902.384	1210
902.486	1564
902.588	1082
902.690	-101
902.792	684
902.894	1217
902.996	1266
903.098	1031
903.200	154
903.302	298
903.404	467
903.505	312
903.607	1613
903.709	1800
903.811	1379
903.913	1150
904.014	121
904.116	48
904.218	628
904.319	1150
904.421	1349
904.523	416
904.624	629
904.726	605
904.827	6
904.929	331
905.030	574
905.132	1297
905.233	459
905.335	843
905.436	835
905.537	268
905.639	1192
905.740	658
905.841	1093
905.943	593
906.044	553
906.145	67
906.247	-123
906.348	703
906.449	1188
906.550	-43
906.651	407
906.752	-350
906.854	383
906.955	132
907.056	-122
907.157	486
907.258	1011
907.359	269
907.460	242
907.561	-257
907.662	464
907.762	523
907.863	773
907.964	509
908.065	137
908.166	275
908.267	-47
908.367	-344
908.468	-64
908.569	810
908.670	719
908.770	382
908.871	782
908.971	286
909.072	1202
909.173	295
909.273	-418
909.374	769
909.474	703
909.575	843
909.675	652
909.776	976
909.876	1233
909.977	217
910.077	1158
910.177	405
910.278	958
910.378	762
910.478	280
910.579	377
910.679	613
910.779	745
910.879	1225
910.980	1058
911.080	720
911.180	601
911.280	-52
911.380	289
911.480	598
911.580	189
911.680	782
911.780	381
911.880	1255
911.980	671
912.080	284
912.180	723
912.280	522
912.380	672
912.480	107
912.580	-226
912.679	249
912.779	1211
912.879	1023
912.979	925
913.078	194
913.178	-1
913.278	-225
913.377	316
913.477	-2
913.577	1357
913.676	1149
913.776	731
913.875	447
913.975	221
914.074	688
914.174	-489
914.273	301
914.373	576
914.472	463
914.572	90
914.671	-370
914.770	-274
914.870	869
914.969	-738
915.068	447
915.167	740
915.267	205
915.366	-956
915.465	412
915.564	292
915.663	433
915.763	-54
915.862	719
915.961	867
916.060	-88
916.159	334
916.258	39
916.357	-406
916.456	1042
916.555	-398
916.654	464
916.752	679
916.851	952
916.950	311
917.049	59
917.148	234
917.247	529
917.345	393
917.444	501
917.543	-43
917.642	790
917.740	287
917.839	1231
917.937	1350
918.036	219
918.135	-50
918.233	254
918.332	-151
918.430	498
918.529	-244
918.627	492
918.726	1223
918.824	992
918.923	185
919.021	1154
919.119	781
919.218	-262
919.316	570
919.414	84
919.512	946
919.611	419
919.709	664
919.807	1177
919.905	400
920.003	1942
920.102	738
920.200	936
920.298	1655
920.396	1248
920.494	1192
920.592	982
920.690	802
920.788	701
920.886	931
920.984	642
921.082	1001
921.180	2233
921.277	1759
921.375	1139
921.473	1990
921.571	2839
921.669	1864
921.766	2147
921.864	1994
921.962	2663
922.060	1247
922.157	2268
922.255	2675
922.352	1524
922.450	2265
922.548	3162
922.645	3270
922.743	3741
922.840	7036
922.938	8141
923.035	6657
923.133	5846
923.230	8490
923.327	9148
923.425	8641
923.522	7930
923.619	7473
923.717	6406
923.814	6383
923.911	6403
924.008	7623
924.106	5981
924.203	5716
924.300	5866
924.397	6672
924.494	6585
924.591	5521
924.688	5373
924.786	6728
924.883	6660
924.979	6038
925.077	6323
925.173	5400
925.270	6292
925.367	5941
925.464	6979
925.561	6807
925.658	6018
925.755	5755
925.852	6445
925.948	6049
926.045	5522
926.142	5843
926.239	5944
926.335	4243
926.432	5871
926.529	5901
926.625	5993
926.722	4351
926.818	6075
926.915	5695
927.011	5619
927.108	4993
927.204	5915
927.301	4438
927.397	5980
927.494	5788
927.590	4955
927.687	4801
927.783	6399
927.879	5470
927.976	5362
928.072	4807
928.168	6421
928.264	4938
928.361	5069
928.457	5423
928.553	4594
928.649	5033
928.745	4344
928.841	4704
928.937	5088
929.033	5328
929.129	4614
929.225	5616
929.321	5168
929.417	4579
929.513	5697
929.609	4089
929.705	3859
929.801	5199
929.897	4041
929.993	3379
930.089	5057
930.184	4388
930.280	4889
930.376	5974
930.471	4220
930.567	3886
930.663	4278
930.758	3214
930.854	4301
930.950	3842
931.045	4339
931.141	4050
931.236	5388
931.332	3654
931.427	3424
931.523	4715
931.618	4783
931.714	2437
931.809	4392
931.905	4514
932.000	2766
932.095	2976
932.191	5020
932.286	5599
932.381	4162
932.476	3311
932.572	3916
932.667	3081
932.762	3206
932.857	4434
932.952	4833
933.047	4252
933.142	2315
933.237	3087
933.332	4384
933.427	4985
933.522	2858
933.617	3387
933.712	3475
933.807	4113
933.902	4737
933.997	4987
934.092	3197
934.187	3444
934.282	3388
934.376	3503
934.471	3984
934.566	3077
934.661	2719
934.755	3105
934.850	3605
934.945	2918
935.039	2322
935.134	2538
935.228	3145
935.323	4610
935.417	2316
935.512	2174
935.606	2687
935.701	3495
935.795	3768
935.890	3697
935.984	2752
936.079	1258
936.173	3622
936.267	2871
936.362	2265
936.456	3734
936.550	4046
936.644	2735
936.738	2192
936.833	1953
936.927	1372
937.021	2299
937.115	3387
937.209	2863
937.303	2851
937.397	2228
937.491	2830
937.585	3481
937.679	2689
937.773	2441
937.867	1538
937.961	2534
938.055	3575
938.149	3340
938.243	1931
938.337	2215
938.430	2049
938.524	3782
938.618	2929
938.712	1720
938.805	2368
938.899	3281
938.993	3619
939.086	2151
939.180	1650
939.274	853
939.367	2658
939.461	3575
939.554	2155
939.648	1942
939.741	2649
939.835	2817
939.928	4457
940.022	3303
940.115	2266
940.208	2906
940.302	3779
940.395	3166
940.488	1639
940.582	1809
940.675	1560
940.768	2157
940.861	1490
940.954	2958
941.048	1239
941.141	675
941.234	2327
941.327	780
941.420	3213
941.513	2633
941.606	1524
941.699	2228
941.792	2698
941.885	2496
941.978	2103
942.071	2332
942.164	1329
942.257	1881
942.349	2414
942.442	1646
942.535	1569
942.628	1916
942.721	2174
942.813	1596
942.906	2477
942.999	2392
943.091	1318
943.184	1861
943.277	1789
943.369	1579
943.462	1044
943.554	1022
943.647	1288
943.739	2627
943.832	3099
943.924	100
944.017	1041
944.109	612
944.201	1703
944.294	872
944.386	1706
944.478	671
944.571	1238
944.663	970
944.755	1662
944.847	2539
944.940	1723
945.032	-80
945.124	620
945.216	2490
945.308	2123
945.400	1233
945.492	1211
945.584	2005
945.676	2639
945.768	1711
945.860	2225
945.952	1360
946.044	1566
946.136	755
946.228	1075
946.320	359
946.412	2304
946.503	1386
946.595	2878
946.687	458
946.779	399
946.870	881
946.962	1185
947.054	1512
947.145	2483
947.237	1431
947.329	821
947.420	1601
947.512	2063
947.603	-438
947.695	1622
947.786	826
947.878	852
947.969	1117
948.061	1669
948.152	896
948.243	573
948.335	923
948.426	615
948.517	759
948.609	1481
948.700	1928
948.791	1745
948.882	1095
948.973	513
949.065	1485
949.156	362
949.247	380
949.338	437
949.429	534
949.520	1458
949.611	799
949.702	1373
949.793	1151
949.884	1096
949.975	1153
950.066	45
950.157	438
950.247	1282
950.338	444
950.429	919
950.520	582
950.611	72
950.701	1125
950.792	1418
950.883	670
950.973	1085
951.064	62
951.155	1325
951.245	889
951.336	820
951.427	884
951.517	2188
951.608	1396
951.698	629
951.788	407
951.879	-205
951.969	236
952.060	894
952.150	480
952.240	1253
952.331	261
952.421	3051
952.511	878
952.602	1188
952.692	8
952.782	-164
952.872	-94
952.962	1062
953.052	-198
953.143	877
953.233	1054
953.323	1056
953.413	331
953.503	401
953.593	846
953.683	711
953.773	-295
953.863	615
953.953	145
954.042	483
954.132	69
954.222	1035
954.312	377
954.402	337
954.492	-83
954.581	163
954.671	395
954.761	300
954.850	760
954.940	498
955.030	-206
955.119	-15
955.209	-616
955.298	852
955.388	188
955.477	1315
955.567	-682
955.656	524
955.746	416
955.835	-37
955.925	-326
956.014	1122
956.103	1220
956.193	1208
956.282	514
956.371	818
956.461	32
956.550	-176
956.639	124
956.728	123
956.817	669
956.906	703
956.995	604
957.085	-19
957.174	1110
957.263	408
957.352	369
957.441	-653
957.530	478
957.619	-80
957.708	-247
957.796	491
957.885	34
957.974	60
958.063	1413
958.152	-378
958.241	-628
958.329	20
958.418	-140
958.507	338
958.596	710
958.684	-559
958.773	435
958.861	-241
958.950	-255
959.039	-36
959.127	13
959.216	934
959.304	84
959.393	-13
959.481	410
959.570	-191
959.658	-852
959.746	305
959.835	-270
959.923	109
960.011	42
960.100	728
960.188	912
960.276	97
960.365	-204
960.453	-180
960.541	-760
960.629	-509
960.717	-243
960.805	-761
960.893	-334
960.981	-77
961.069	722
961.158	771
961.245	1352
961.333	350
961.421	-624
961.509	401
961.597	-445
961.685	-259
961.773	-103
961.861	-193
961.949	537
962.036	14
962.124	309
962.212	433
962.299	-8
962.387	-552
962.475	-295
962.562	-253
962.650	207
962.738	383
962.825	195
962.913	456
963.000	-485
963.088	-35
963.175	389
963.263	-6
963.350	-389
963.438	107
963.525	-631
963.612	83
963.700	-210
963.787	-54
963.874	-1136
963.962	-321
964.049	-698
964.136	446
964.223	270
964.310	-415
964.398	-84
964.485	-315
964.572	-13
964.659	808
964.746	44
964.833	397
964.920	40
965.007	136
965.094	533
965.181	-239
965.268	-136
965.355	-238
965.441	-703
965.528	-666
965.615	1053
965.702	313
965.789	127
965.875	-225
965.962	106
966.049	292
966.136	37
966.222	253
966.309	574
966.395	413
966.482	1018
966.569	8
966.655	243
966.742	-352
966.828	434
966.915	-624
967.001	-234
967.087	-449
967.174	-10
967.260	-185
967.347	-194
967.433	-1090
967.519	-567
967.605	482
967.692	305
967.778	-422
967.864	-329
967.950	-7
968.036	-1306
968.123	751
968.209	-538
968.295	-1370
968.381	325
968.467	338
968.553	-1046
968.639	1066
968.725	-982
968.811	1017
968.897	212
968.983	15
969.069	-1134
969.154	309
969.240	89
969.326	194
969.412	-228
969.497	-970
969.583	-1069
969.669	1089
969.755	-207
969.840	-228
969.926	1218
970.012	486
970.097	2173
970.183	762
970.268	414
970.354	312
970.439	-510
970.525	1023
970.610	-328
970.696	1093
970.781	76
970.866	-899
970.952	889
971.037	7
971.122	58
971.208	-54
971.293	-133
971.378	-735
971.463	-11
971.549	487
971.634	-119
971.719	-463
971.804	-1187
971.889	95
971.974	-415
972.059	56
972.144	158
972.229	-15
972.314	80
972.399	431
972.484	-890
972.569	27
972.654	-1127
972.739	1083
972.824	-644
972.908	-647
972.993	-473
973.078	143
973.163	-358
973.247	-229
973.332	-1513
973.417	1350
973.501	-926
973.586	190
973.671	-242
973.755	-88
973.840	688
973.924	-643
974.009	665
974.093	318
974.178	1716
974.262	-353
974.346	-399
974.431	165
974.515	-70
974.600	767
974.684	53
974.768	-96
974.852	684
974.937	-1259
975.021	737
975.105	-156
975.189	-24
975.273	706
975.358	-643
975.442	-581
975.526	272
975.610	-686
975.694	-978
975.778	851
975.862	-109
975.946	-1768
976.030	1215
976.114	-402
976.198	-355
976.281	-27
976.365	799
976.449	-148
976.533	-586
976.617	-876
976.700	-423
976.784	-104
976.868	-1077
976.951	90
977.035	-39
977.119	-55
977.202	-723
977.286	1165
977.369	616
977.453	1221
977.536	-191
977.620	297
977.703	1323
977.787	166
977.870	822
977.953	857
978.037	-929
978.120	668
978.203	-537
978.287	81
978.370	-217
978.453	-293
978.536	-1429
978.620	1246
978.703	-269
978.786	-913
978.869	-463
978.952	-1298
979.035	1229
979.118	-352
979.201	-1011
979.284	868
979.367	-430
979.450	733
979.533	-664
979.616	193
979.699	-909
979.782	-26
979.865	-367
979.948	-148
980.030	-996
980.113	-370
980.196	-1057
980.279	494
980.361	-422
980.444	-185
980.526	1450
980.609	858
980.692	747
980.774	1031
980.857	-1112
980.939	423
981.022	-101
981.104	457
981.187	-290
981.269	742
981.352	-846
981.434	-927
981.516	-444
981.599	1268
981.681	432
981.763	1061
981.846	28
981.928	505
982.010	293
982.092	538
982.174	-88
982.256	46
982.339	-96
982.421	-308
982.503	548
982.585	-1225
982.667	-316
982.749	374
982.831	-788
982.913	-819
982.995	-143
983.077	-895
983.158	717
983.240	-569
983.322	906
983.404	1660
983.486	707
983.568	629
983.649	188
983.731	735
983.813	-66
983.894	714
983.976	-193
984.058	-97
984.139	1284
984.221	-312
984.302	170
984.384	689
984.465	-918
984.547	1086
984.628	-411
984.710	639
984.791	-45
984.872	223
984.954	-50
985.035	-538
985.116	-695
985.198	-357
985.279	978
985.360	277
985.441	-334
985.522	974
985.604	193
985.685	-862
985.766	64
985.847	617
985.928	-1510
986.009	593
986.090	-539
986.171	1503
986.252	-282
986.333	892
986.414	-1078
986.495	755
986.576	-105
986.656	38
986.737	-233
986.818	289
986.899	116
986.980	-177
987.060	744
987.141	212
987.222	1067
987.302	1746
987.383	1328
987.464	282
987.544	764
987.625	812
987.705	1102
987.786	1111
987.866	780
987.947	363
988.027	129
988.108	191
988.188	1389
988.268	869
988.349	573
988.429	524
988.509	1004
988.589	414
988.670	-634
988.750	1450
988.830	565
988.910	1050
988.990	-286
989.070	888
989.151	1086
989.231	519
989.311	362
989.391	308
989.471	-118
989.551	405
989.631	-364
989.711	349
989.791	54
989.870	189
989.950	1438
990.030	-50
990.110	448
990.190	225
990.269	-683
990.349	513
990.429	138
990.509	666
990.588	-401
990.668	560
990.747	28
990.827	-189
990.907	-48
990.986	-91
991.066	70
991.145	-538
991.225	-3
991.304	569
991.383	-222
991.463	-363
991.542	757
991.622	-1161
991.701	-1393
991.780	-898
991.859	-459
991.939	-225
992.018	-69
992.097	817
992.176	-247
992.256	-293
992.335	-432
992.414	766
992.493	-870
992.572	-1008
992.651	1014
992.730	-173
992.809	-281
992.888	118
992.967	-480
993.046	659
993.125	-876
993.203	-280
993.282	72
993.361	857
993.440	-764
993.519	-1283
993.597	-330
993.676	-320
993.755	357
993.834	640
993.912	-1436
993.991	1076
994.069	157
994.148	-531
994.226	-1093
994.305	-750
994.384	-652
994.462	403
994.540	-1335
994.619	-1142
994.697	649
994.776	-962
994.854	-94
994.932	-1018
995.011	65
995.089	-943
995.167	-1082
995.245	-1
995.324	-1569
995.402	294
995.480	-1086
995.558	52
995.636	-2002
995.714	55
995.792	627
995.870	-1171
995.948	-1109
996.026	-17
996.104	-1701
996.182	-82
996.260	-1765
996.338	-528
996.416	-1232
996.494	-169
996.572	-246
996.649	-1107
996.727	-1579
996.805	-59
996.883	-294
996.960	-544
997.038	-774
997.116	-570
997.193	-1563
997.271	-403
997.348	-1446
997.426	-73
997.504	-1931
997.581	-751
997.658	188
997.736	-1624
997.813	-1932
997.891	35
997.968	-928
998.046	-1209
998.123	-1772
998.200	-414
998.277	-962
998.355	-119
998.432	-2168
998.509	-927
998.586	-193
998.663	-559
998.741	-1253
998.818	-574
998.895	-781
998.972	-175
999.049	-164
999.126	-1822
999.203	-148
999.280	-1033
999.357	-799
999.434	-931
999.511	-733
999.587	-943
999.664	-1356
999.741	-913
999.818	-1223
999.895	-1468
999.971	-2301
1000.048	-899
1000.125	-586
1000.202	-2049
1000.278	-788
1000.355	-523
1000.431	-916
1000.508	-1783
1000.584	-1542
1000.661	-896
1000.738	-1596
1000.814	-621
1000.890	-837
1000.967	-647
1001.043	-891
1001.120	-2271
1001.196	-1484
1001.272	-1618
1001.349	-2061
1001.425	-1376
1001.501	-1544
1001.577	-1826
1001.654	-472
1001.730	-952
1001.806	-940
1001.882	-2086
1001.958	-209
1002.034	97
1002.110	-1063
1002.186	-1543
1002.262	-1679
1002.338	-2018
1002.414	-1267
1002.490	-763
1002.566	-1881
1002.642	-1835
1002.718	-454
1002.794	-616
1002.870	-1591
1002.945	-1293
1003.021	-2198
1003.097	-1470
1003.173	-318
1003.248	-1563
1003.324	-1882
1003.400	-1238
1003.475	-1638
1003.551	-1288
1003.626	-1605
1003.702	-1399
1003.777	-367
1003.853	-762
1003.928	-1890
1004.004	-1613
1004.079	-196
1004.155	-348
1004.230	-1755
1004.305	-414
1004.381	-1667
1004.456	-1099
1004.531	-1700
1004.607	-333
1004.682	-2022
1004.757	-1159
1004.832	-2031
1004.907	-2025
1004.982	-1666
1005.057	-1058
1005.133	-1771
1005.208	-1350
1005.283	-1373
1005.358	-1229
1005.433	-1891
1005.508	-1091
1005.583	-1697
1005.657	-1758
1005.732	-1678
1005.807	-1964
1005.882	-1948
1005.957	-1436
1006.032	-1307
1006.106	-990
1006.181	-1682
1006.256	-850
1006.331	-1659
1006.405	-1929
1006.480	-1200
1006.554	-1035
1006.629	-1457
1006.704	-1555
1006.778	-1350
1006.853	-1016
1006.927	-1861
1007.002	-1480
1007.076	-1867
1007.150	-602
1007.225	-1400
1007.299	-1903
1007.373	-2393
1007.448	-1641
1007.522	-1130
1007.596	-1130
1007.671	-1413
1007.745	-1380
1007.819	-1920
1007.893	-1909
1007.967	-1751
1008.041	-2049
1008.115	-1816
1008.190	-2300
1008.264	-1368
1008.338	-2059
1008.412	-1459
1008.486	-1373
1008.560	-1200
1008.633	-1470
1008.707	-1525
1008.781	-1207
1008.855	-1648
1008.929	-1142
1009.003	-1141
1009.076	-1459
1009.150	-1465
1009.224	-1097
1009.298	-1734
1009.371	-2206
1009.445	-774
1009.519	-1142
1009.592	-2333
1009.666	-887
1009.739	-1275
1009.813	-1823
1009.886	-893
1009.960	-1531
1010.033	-1459
1010.107	-1675
1010.180	-2001
1010.253	-1493
1010.327	-2228
1010.400	-1937
1010.473	-1536
1010.547	-669
1010.620	-2314
1010.693	-1593
1010.766	-1495
1010.840	-1070
1010.913	-1755
1010.986	-2125
1011.059	-1291
1011.132	-822
1011.205	-1665
1011.278	-1073
1011.351	-1845
1011.424	-1148
1011.497	-1720
1011.570	-1218
1011.643	-1582
1011.716	-1492
1011.789	-2012
1011.862	-1008
1011.934	-1201
1012.007	-2762
1012.080	-1343
1012.153	-2097
1012.225	-655
1012.298	-2675
1012.371	-2162
1012.443	-1726
1012.516	-2454
1012.588	-344
1012.661	-1141
1012.733	-2525
1012.806	-1032
1012.879	-1792
1012.951	-1147
1013.023	-1517
1013.096	-1103
1013.168	-1617
1013.241	-1478
1013.313	-2116
1013.385	-1440
1013.458	-982
1013.530	-1387
1013.602	-1926
1013.674	-1445
1013.746	-2508
1013.819	-1621
1013.891	-1350
1013.963	-1953
1014.035	-1811
1014.107	-1101
1014.179	-1290
1014.251	-2095
1014.323	-1077
1014.395	-2440
1014.467	-1097
1014.539	-1574
1014.611	-1335
1014.683	-1779
1014.754	-1578
1014.826	-2539
1014.898	-1215
1014.970	-2763
1015.042	-434
1015.113	-2069
1015.185	-1144
1015.257	-2517
1015.328	-1531
1015.400	-1989
1015.471	-1521
1015.543	-2481
1015.615	-1652
1015.686	-1787
1015.757	-1277
1015.829	-1612
1015.901	-1786
1015.972	-1328
1016.043	-1998
1016.115	-1075
1016.186	-1187
1016.257	-2456
1016.328	-1148
1016.400	-1450
1016.471	-2294
1016.542	-2487
1016.613	-1337
1016.685	-2084
1016.756	-1643
1016.827	-1645
1016.898	-2130
1016.969	-485
1017.040	-1914
1017.111	-2286
1017.182	-2497
1017.253	-1742
1017.324	-1392
1017.395	-1546
1017.466	-733
1017.537	-2265
1017.608	-784
1017.678	-1631
1017.749	-1343
1017.820	-2084
1017.891	-2243
1017.961	-3079
1018.032	-1300
1018.103	-1251
1018.173	-1521
1018.244	-1968
1018.315	-1700
1018.385	-1282
1018.456	-1390
1018.526	-2812
1018.597	-1575
1018.667	-2472
1018.738	-1838
1018.808	-2252
1018.878	-1942
1018.949	-1601
1019.019	-1765
1019.089	-1103
1019.160	-1512
1019.230	-1880
1019.300	-980
1019.371	-2782
1019.441	-942
1019.511	-1130
1019.581	-2184
1019.651	-820
1019.721	-1974
1019.791	-1396
1019.861	-1849
1019.931	-2595
1020.001	-1640
1020.071	-1462
1020.141	-1467
1020.211	-2280
1020.281	-2648
1020.351	-2431
1020.421	-1236
1020.491	-981
1020.560	-1841
1020.630	-2571
1020.700	-1481
1020.770	-3089
1020.839	-1947
1020.909	-932
1020.979	-1810
1021.048	-2578
1021.118	-2048
1021.187	-2412
1021.257	-1518
1021.326	-1526
1021.396	-1833
1021.465	-2015
1021.535	-1322
1021.604	-2535
1021.674	-1582
1021.743	-3116
1021.812	-2546
1021.882	-2130
1021.951	-2150
1022.020	-2031
1022.089	-1684
1022.159	-1381
1022.228	-524
1022.297	-2108
1022.366	-2164
1022.435	-1523
1022.504	-2413
1022.573	-2515
1022.642	-1510
1022.711	-2502
1022.781	-1932
1022.849	-1794
1022.918	-2659
1022.987	-1877
1023.056	-2596
1023.125	-1972
1023.194	-1885
1023.263	-1852
1023.331	-997
1023.400	-2436
1023.469	-2198
1023.538	-1949
1023.606	-2142
1023.675	-1231
1023.744	-2071
1023.812	-2820
1023.881	-2423
1023.949	-2501
1024.018	-2067
1024.086	-1845
1024.155	-2009
1024.223	-1823
1024.292	-1345
1024.360	-1582
1024.429	-1499
1024.497	-2393
1024.565	-1708
1024.634	-2395
1024.702	-1142
1024.770	-2158
1024.838	-2453
1024.907	-1897
1024.975	-1494
1025.043	-2198
1025.111	-2492
1025.179	-1511
1025.247	-1898
1025.315	-2478
1025.383	-1198
1025.451	-2682
1025.519	-1469
1025.587	-2534
1025.655	-1970
1025.723	-1622
1025.791	-2342
1025.859	-2413
1025.927	-1076
1025.995	-2726
1026.062	-1706
1026.130	-2386
1026.198	-2015
1026.266	-2334
1026.333	-2196
1026.401	-2213
1026.469	-2556
1026.536	-1585
1026.604	-2469
1026.671	-2157
1026.739	-1758
1026.806	-2142
1026.874	-2069
1026.941	-1734
1027.009	-1671
1027.076	-2134
1027.144	-1748
1027.211	-2637
1027.278	-2450
1027.345	-2407
1027.413	-2090
1027.480	-2322
1027.547	-1769
1027.614	-2628
1027.682	-1785
1027.749	-1930
1027.816	-1940
1027.883	-1962
1027.950	-1704
1028.017	-2829
1028.084	-1588
1028.151	-3081
1028.218	-2271
1028.285	-2607
1028.352	-1064
1028.419	-1756
1028.486	-2293
1028.553	-2081
1028.619	-2278
1028.686	-1256
1028.753	-2008
1028.820	-2245
1028.886	-2441
1028.953	-2286
1029.020	-2616
1029.086	-2482
1029.153	-2359
1029.220	-2151
1029.286	-1964
1029.353	-2157
1029.419	-2372
1029.486	-2613
1029.552	-2324
1029.619	-2069
1029.685	-2052
1029.751	-2529
1029.818	-1845
1029.884	-3063
1029.951	-1446
1030.017	-1985
1030.083	-1994
1030.149	-2187
1030.216	-2537
1030.282	-2505
1030.348	-2283
1030.414	-3564
1030.480	-3263
1030.546	-3079
1030.612	-2079
1030.678	-2753
1030.744	-2210
1030.810	-1996
1030.876	-2609
1030.942	-2559
1031.008	-2073
1031.074	-2505
1031.140	-2343
1031.206	-1741
1031.272	-2594
1031.337	-2161
1031.403	-1717
1031.469	-1986
1031.534	-2183
1031.600	-1935
1031.666	-3304
1031.731	-2503
1031.797	-1728
1031.863	-2573
1031.928	-2024
1031.994	-2778
1032.059	-3023
1032.125	-2958
1032.190	-2869
1032.256	-3039
1032.321	-2696
1032.386	-2157
1032.452	-1697
1032.517	-2854
1032.582	-2390
1032.647	-2388
1032.713	-1895
1032.778	-2252
1032.843	-2594
1032.908	-2986
1032.974	-2394
1033.039	-2804
1033.104	-1560
1033.169	-2990
1033.234	-2539
1033.299	-2567
1033.364	-2553
1033.429	-2838
1033.494	-1486
1033.559	-2264
1033.624	-1667
1033.688	-2476
1033.753	-1852
1033.818	-1712
1033.883	-1916
1033.948	-2272
1034.013	-1313
1034.077	-1767
1034.142	-693
1034.207	-848
1034.271	-214
1034.336	431
1034.400	-460
1034.465	-1350
1034.530	-2530
1034.594	-2548
1034.658	-2039
1034.723	-3393
1034.787	-2357
1034.852	-2519
1034.916	-2647
1034.981	-2563
1035.045	-1995
1035.109	-3144
1035.173	-2374
1035.238	-2759
1035.302	-2908
1035.366	-2448
1035.430	-3103
1035.495	-2817
1035.559	-2257
1035.623	-2399
1035.687	-2613
1035.751	-2406
1035.815	-2276
1035.879	-3364
1035.943	-2861
1036.007	-3102
1036.071	-2503
1036.135	-2765
1036.198	-2207
1036.262	-3350
1036.326	-2474
1036.390	-2756
1036.454	-3126
1036.517	-2227
1036.581	-2741
1036.645	-2346
1036.709	-2196
1036.772	-2254
1036.836	-2138
1036.900	-2791
1036.963	-2357
1037.026	-2320
1037.090	-2408
1037.154	-2687
1037.217	-1943
1037.280	-2679
1037.344	-2019
1037.407	-2918
1037.471	-2873
1037.534	-2184
1037.597	-1581
1037.661	-2839
1037.724	-2247
1037.787	-3309
1037.850	-2380
1037.913	-2557
1037.977	-995
1038.040	-2014
1038.103	-2275
1038.166	-2875
1038.229	-2044
1038.292	-2161
1038.355	-2591
1038.418	-3256
1038.481	-1417
1038.544	-2686
1038.607	-2633
1038.670	-2831
1038.732	-2394
1038.795	-2985
1038.858	-2330
1038.921	-2873
1038.984	-1881
1039.046	-2672
1039.109	-2355
1039.172	-2510
1039.234	-2311
1039.297	-2234
1039.360	-2182
1039.422	-2716
1039.485	-1560
1039.547	-2282
1039.610	-2098
1039.672	-2894
1039.734	-2492
1039.797	-1546
1039.859	-2560
1039.922	-2377
1039.984	-2253
1040.046	-2838
1040.109	-2012
1040.171	-2218
1040.233	-2793
1040.295	-3525
1040.358	-2462
1040.420	-1862
1040.482	-1738
1040.544	-2455
1040.606	-2449
1040.668	-1997
1040.730	-2060
1040.792	-1653
1040.854	-2482
1040.916	-2354
1040.978	-1696
1041.040	-2542
1041.102	-2976
1041.164	-3046
1041.225	-1396
1041.287	-3319
1041.349	-1325
1041.411	-2204
1041.472	-2429
1041.534	-2323
1041.596	-2951
1041.657	-1665
1041.719	-2196
1041.781	-2549
1041.842	-2349
1041.904	-2345
1041.965	-2557
1042.027	-1745
1042.088	-2725
1042.150	-3434
1042.211	-1663
1042.272	-2736
1042.334	-2691
1042.395	-2354
1042.456	-1736
1042.518	-2116
1042.579	-1744
1042.640	-2725
1042.701	-1439
1042.763	-2230
1042.824	-2512
1042.885	-2786
1042.946	-2341
1043.007	-2546
1043.068	-1747
1043.129	-2210
1043.190	-2092
1043.251	-1937
1043.312	-1772
1043.373	-2098
1043.434	-2622
1043.495	-2097
1043.556	-1804
1043.616	-1381
1043.677	-2241
1043.738	-2427
1043.799	-2098
1043.859	-1601
1043.920	-1740
1043.981	-1471
1044.041	-2241
1044.102	-2954
1044.162	-2895
1044.223	-2155
1044.284	-2853
1044.344	-2424
1044.405	-2409
1044.465	-2461
1044.525	-2364
1044.586	-2718
1044.646	-2404
1044.707	-2638
1044.767	-2393
1044.827	-2207
1044.887	-2240
1044.948	-2037
1045.008	-1882
1045.068	-2875
1045.128	-1847
1045.188	-2032
1045.249	-989
1045.309	-2243
1045.369	-1702
1045.429	-2458
1045.489	-1690
1045.549	-2202
1045.609	-3113
1045.669	-2699
1045.729	-2648
1045.789	-2196
1045.848	-1726
1045.908	-2367
1045.968	-1007
1046.028	-2248
1046.088	-1735
1046.147	-1867
1046.207	-1146
1046.267	-1446
1046.326	-1899
1046.386	-2049
1046.446	-1332
1046.505	-1578
1046.565	-1080
1046.624	-756
1046.684	-1054
1046.743	-771
1046.803	-561
1046.862	-560
1046.922	0
