'Start Wavelength	183.907
'End Wavelength	1046.922
'Gate Delay	5.000
'Gate Width (ms)	1.050
'Laser Output Level	0.000
'X Position	0.000
'Y Position	0.000
'Z Position	0.000
'Grid Point Number	1.000
'Shot Number	100.000
183.907	526.000
183.977	325.000
184.047	436
184.116	-86
184.186	-11
184.256	-37
184.325	243
184.395	-1179
184.465	240
184.534	-191
184.604	-147
184.674	100
184.743	-752
184.813	262
184.883	41
184.952	-78
185.022	411
185.092	-248
185.161	-547
185.231	-417
185.301	323
185.370	285
185.440	-50
185.509	-412
185.579	-146
185.649	207
185.718	-4
185.788	284
185.857	-521
185.927	-699
185.996	619
186.066	329
186.136	-222
186.205	645
186.275	-155
186.344	352
186.414	653
186.483	-213
186.553	-177
186.622	560
186.692	201
186.761	-149
186.831	403
186.900	201
186.970	231
187.039	116
187.109	119
187.178	-50
187.248	8
187.317	-25
187.387	-762
187.456	168
187.526	-861
187.595	-191
187.664	-125
187.734	-373
187.803	-344
187.873	83
187.942	-182
188.012	63
188.081	535
188.150	56
188.220	378
188.289	441
188.358	-573
188.428	649
188.497	-690
188.567	178
188.636	-356
188.705	128
188.775	84
188.844	-491
188.913	662
188.983	49
189.052	-382
189.121	84
189.191	-369
189.260	-337
189.329	-419
189.399	235
189.468	-729
189.537	-230
189.606	526
189.676	109
189.745	129
189.814	179
189.883	-113
189.953	-412
190.022	219
190.091	-266
190.161	-409
190.230	343
190.299	-566
190.368	76
190.437	-132
190.507	-120
190.576	369
190.645	191
190.714	-572
190.783	94
190.853	677
190.922	21
190.991	-48
191.060	-388
191.129	-689
191.198	287
191.268	45
191.337	576
191.406	502
191.475	-384
191.544	-416
191.613	-72
191.682	-515
191.752	-509
191.821	108
191.890	-574
191.959	135
192.028	221
192.097	-7
192.166	-244
192.235	-646
192.304	374
192.373	-112
192.442	-262
192.511	-722
192.580	-376
192.650	-52
192.719	300
192.788	487
192.857	140
192.926	-671
192.995	368
193.064	-470
193.133	121
193.202	-643
193.271	-62
193.340	-406
193.409	34
193.478	-494
193.547	182
193.615	273
193.684	-340
193.753	-795
193.822	-44
193.891	-638
193.960	647
194.029	-518
194.098	201
194.167	-394
194.236	-57
194.305	-121
194.374	-409
194.443	-255
194.512	-64
194.580	-198
194.649	461
194.718	-241
194.787	19
194.856	-659
194.925	138
194.994	-770
195.062	-43
195.131	147
195.200	145
195.269	95
195.338	-422
195.407	26
195.475	-555
195.544	-496
195.613	-444
195.682	397
195.751	-206
195.819	-280
195.888	-82
195.957	884
196.026	-124
196.094	323
196.163	267
196.232	-97
196.301	364
196.369	108
196.438	630
196.507	-83
196.576	-403
196.644	677
196.713	16
196.782	-296
196.850	346
196.919	-145
196.988	-101
197.056	52
197.125	-133
197.194	-352
197.262	173
197.331	764
197.400	-582
197.468	-172
197.537	-411
197.606	-209
197.674	-608
197.743	527
197.812	14
197.880	-239
197.949	-858
198.017	107
198.086	-562
198.155	99
198.223	116
198.292	-713
198.360	330
198.429	-205
198.497	224
198.566	-18
198.635	129
198.703	657
198.772	290
198.840	-85
198.909	-501
198.977	-295
199.046	-334
199.114	69
199.183	-723
199.251	702
199.320	360
199.388	-505
199.457	-1010
199.525	-197
199.594	-502
199.662	89
199.731	-546
199.799	-131
199.867	320
199.936	-393
200.004	220
200.073	164
200.141	-349
200.210	-577
200.278	103
200.346	806
200.415	7
200.483	-303
200.552	-158
200.620	-278
200.688	-265
200.757	54
200.825	246
200.893	362
200.962	-49
201.030	-747
201.098	-670
201.167	275
201.235	-1056
201.303	-581
201.372	-132
201.440	149
201.508	-756
201.577	-242
201.645	529
201.713	253
201.781	-178
201.850	521
201.918	-81
201.986	-640
202.055	-477
202.123	-1001
202.191	-449
202.259	-236
202.327	19
202.396	-459
202.464	-12
202.532	-427
202.600	427
202.669	-412
202.737	-524
202.805	-235
202.873	860
202.941	-273
203.009	40
203.078	-658
203.146	-289
203.214	-259
203.282	-109
203.350	28
203.418	-887
203.487	-392
203.555	-545
203.623	-938
203.691	392
203.759	-815
203.827	-463
203.895	-582
203.963	-963
204.031	-234
204.099	-185
204.168	-724
204.236	-182
204.304	-66
204.372	153
204.440	-743
204.508	-222
204.576	-1220
204.644	-107
204.712	-687
204.780	558
204.848	-45
204.916	-253
204.984	-111
205.052	-398
205.120	105
205.188	-681
205.256	-1170
205.324	-556
205.392	-630
205.460	-405
205.528	-687
205.596	-532
205.664	313
205.732	-91
205.799	-543
205.867	-132
205.935	-567
206.003	97
206.071	-211
206.139	-331
206.207	-83
206.275	87
206.343	-304
206.411	111
206.478	173
206.546	-516
206.614	-268
206.682	-431
206.750	-230
206.818	-430
206.885	525
206.953	-772
207.021	205
207.089	721
207.157	-698
207.225	-209
207.292	-839
207.360	-186
207.428	-408
207.496	-613
207.563	-367
207.631	211
207.699	0
207.767	-163
207.834	-345
207.902	351
207.970	-646
208.038	-945
208.105	219
208.173	-41
208.241	-812
208.309	-495
208.376	-482
208.444	175
208.512	-463
208.579	-523
208.647	-522
208.715	19
208.782	-1068
208.850	251
208.918	-629
208.985	615
209.053	-253
209.120	164
209.188	-717
209.256	-141
209.323	-972
209.391	-474
209.459	89
209.526	-155
209.594	-418
209.661	-316
209.729	-497
209.796	359
209.864	-635
209.932	-1404
209.999	910
210.067	-74
210.134	-887
210.202	-907
210.269	177
210.337	-96
210.404	-822
210.472	358
210.539	602
210.607	-700
210.674	60
210.742	-725
210.809	-544
210.877	-574
210.944	292
211.012	-1140
211.079	742
211.146	574
211.214	-322
211.281	-216
211.349	237
211.416	420
211.484	-43
211.551	-662
211.618	99
211.686	-668
211.753	1
211.821	-238
211.888	-101
211.955	78
212.023	66
212.090	-729
212.157	-684
212.225	-274
212.292	-96
212.359	-1
212.427	211
212.494	813
212.561	-38
212.629	-279
212.696	-494
212.763	-271
212.831	-339
212.898	75
212.965	-907
213.032	204
213.100	-363
213.167	-288
213.234	457
213.301	128
213.369	-737
213.436	-8
213.503	-892
213.570	33
213.638	-562
213.705	-929
213.772	-1235
213.839	-506
213.906	-193
213.973	-80
214.041	-377
214.108	-167
214.175	-213
214.242	-614
214.309	-696
214.376	-972
214.444	-806
214.511	428
214.578	20
214.645	96
214.712	-117
214.779	-420
214.846	-459
214.913	-388
214.980	-354
215.048	301
215.115	876
215.182	174
215.249	-434
215.316	-271
215.383	-256
215.450	-136
215.517	263
215.584	555
215.651	-763
215.718	-666
215.785	-171
215.852	-688
215.919	160
215.986	-27
216.053	-502
216.120	-239
216.187	-769
216.254	97
216.321	41
216.388	-252
216.455	-724
216.522	-353
216.589	-744
216.656	117
216.722	-401
216.789	-42
216.856	-370
216.923	-337
216.990	90
217.057	-986
217.124	-243
217.191	-292
217.258	84
217.324	-838
217.391	-664
217.458	-101
217.525	-318
217.592	-86
217.659	-1250
217.725	620
217.792	-24
217.859	884
217.926	-715
217.993	-793
218.059	612
218.126	364
218.193	-826
218.260	-843
218.327	-279
218.393	-137
218.460	-854
218.527	-363
218.594	-418
218.660	-87
218.727	-156
218.794	38
218.860	112
218.927	232
218.994	-1072
219.061	-201
219.127	-287
219.194	-517
219.261	-464
219.327	-753
219.394	447
219.461	-1024
219.527	-248
219.594	142
219.661	-835
219.727	-680
219.794	115
219.860	-350
219.927	499
219.994	-7
220.060	1015
220.127	1816
220.193	269
220.260	27
220.326	13
220.393	-465
220.460	-1100
220.526	-510
220.593	-1581
220.659	998
220.726	-343
220.792	-63
220.859	-294
220.925	-683
220.992	-375
221.058	-220
221.125	-67
221.191	193
221.258	-717
221.324	798
221.391	-263
221.457	39
221.524	-683
221.590	-140
221.657	398
221.723	-45
221.789	-229
221.856	817
221.922	-999
221.989	292
222.055	-576
222.121	-1115
222.188	1575
222.254	-513
222.321	176
222.387	-645
222.453	-862
222.520	-625
222.586	-652
222.652	-251
222.719	39
222.785	-342
222.851	-804
222.918	57
222.984	-207
223.050	-668
223.116	-1603
223.183	1039
223.249	-635
223.315	-584
223.382	-490
223.448	-546
223.514	-965
223.580	341
223.647	-885
223.713	-162
223.779	-213
223.845	-1115
223.911	27
223.978	-938
224.044	463
224.110	-626
224.176	-288
224.242	-251
224.309	-1205
224.375	139
224.441	-775
224.507	-25
224.573	-1116
224.639	-51
224.705	-165
224.772	-98
224.838	-1703
224.904	272
224.970	-399
225.036	-62
225.102	-935
225.168	1032
225.234	84
225.300	-1013
225.366	-401
225.432	-162
225.499	-74
225.565	-416
225.631	-690
225.697	-687
225.763	283
225.829	-222
225.895	64
225.961	-645
226.027	-963
226.093	-487
226.159	234
226.225	249
226.291	78
226.357	-526
226.423	-551
226.489	304
226.554	-1149
226.620	-432
226.686	-540
226.752	-285
226.818	-293
226.884	-217
226.950	-165
227.016	-448
227.082	-252
227.148	46
227.214	473
227.279	-551
227.345	-357
227.411	-179
227.477	-151
227.543	2434
227.609	2265
227.674	1729
227.740	-627
227.806	-449
227.872	-654
227.938	1333
228.003	3
228.069	-560
228.135	-674
228.201	-929
228.267	-865
228.332	-260
228.398	-1354
228.464	394
228.530	-1391
228.595	-498
228.661	-1245
228.727	-650
228.792	573
228.858	-181
228.924	-1448
228.990	824
229.055	-1088
229.121	49
229.187	-807
229.252	-1503
229.318	-941
229.384	-453
229.449	-882
229.515	-1343
229.581	-921
229.646	321
229.712	187
229.777	-147
229.843	-709
229.909	-470
229.974	189
230.040	-283
230.105	-387
230.171	-84
230.236	573
230.302	-365
230.368	-1254
230.433	-1384
230.499	-45
230.564	-122
230.630	-1323
230.695	92
230.761	486
230.826	-1631
230.892	597
230.957	-881
231.023	-510
231.088	-682
231.154	-326
231.219	-199
231.284	-1016
231.350	-20
231.415	-836
231.481	75
231.546	-575
231.612	-538
231.677	-902
231.742	-1769
231.808	452
231.873	-1046
231.939	-2254
232.004	99
232.069	215
232.135	-516
232.200	-782
232.265	853
232.331	-539
232.396	-230
232.461	-901
232.527	-546
232.592	-1775
232.657	-442
232.723	-514
232.788	-275
232.853	81
232.918	64
232.984	-795
233.049	-715
233.114	-1491
233.179	-251
233.245	958
233.310	685
233.375	-923
233.440	-472
233.506	-599
233.571	-1363
233.636	-121
233.701	-383
233.766	-95
233.832	-67
233.897	-578
233.962	-1164
234.027	999
234.092	-138
234.157	-498
234.222	-283
234.288	-503
234.353	-481
234.418	540
234.483	775
234.548	-473
234.613	-223
234.678	-823
234.743	-801
234.808	526
234.873	-1995
234.938	144
235.004	-343
235.069	-1563
235.134	-979
235.199	98
235.264	-37
235.329	-1003
235.394	8
235.459	-188
235.524	-1357
235.589	262
235.654	-1403
235.719	-2461
235.784	-290
235.849	-419
235.913	-891
235.978	-640
236.043	92
236.108	-770
236.173	-1649
236.238	21
236.303	-421
236.368	-919
236.433	74
236.498	-860
236.563	78
236.627	-985
236.692	-303
236.757	-554
236.822	247
236.887	-1287
236.952	941
237.017	-1252
237.081	204
237.146	-1722
237.211	-419
237.276	-642
237.341	15
237.405	-1068
237.470	-290
237.535	-1493
237.600	226
237.664	-383
237.729	-1128
237.794	-1360
237.859	-178
237.923	-667
237.988	-294
238.053	-1053
238.118	-678
238.182	-1182
238.247	923
238.312	-1874
238.376	338
238.441	-1967
238.506	582
238.570	-1561
238.635	-266
238.700	-592
238.764	-460
238.829	-869
238.893	-1323
238.958	-196
239.023	-571
239.087	139
239.152	-302
239.216	-1588
239.281	-392
239.346	-231
239.410	-277
239.475	-869
239.539	-28
239.604	-774
239.668	425
239.733	-212
239.797	2231
239.862	4942
239.926	2511
239.991	665
240.055	106
240.120	-648
240.184	-454
240.249	-1149
240.313	-184
240.378	-690
240.442	-355
240.507	-344
240.571	-675
240.635	-1401
240.700	-838
240.764	-709
240.829	0
240.893	-1375
240.957	386
241.022	553
241.086	657
241.151	-2050
241.215	-1100
241.279	107
241.344	-834
241.408	288
241.472	-1355
241.537	359
241.601	-118
241.665	-1211
241.730	-1511
241.794	624
241.858	-787
241.922	130
241.987	-978
242.051	-1292
242.115	-1983
242.179	46
242.244	-988
242.308	245
242.372	-258
242.436	-1287
242.501	-73
242.565	-1208
242.629	-1124
242.693	-22
242.757	-1567
242.822	-286
242.886	517
242.950	339
243.014	-359
243.078	-922
243.142	-399
243.206	-1644
243.271	439
243.335	-1521
243.399	189
243.463	-499
243.527	2732
243.591	-344
243.655	-277
243.719	-1924
243.783	529
243.847	-55
243.911	13
243.975	-674
244.040	-2116
244.104	539
244.168	-470
244.232	-1540
244.296	-666
244.360	10
244.424	-990
244.488	-137
244.552	-349
244.615	-2637
244.679	-126
244.743	-608
244.807	-898
244.871	132
244.935	-34
244.999	-2009
245.063	-415
245.127	248
245.191	-1146
245.255	-1506
245.319	-378
245.383	-1887
245.446	448
245.510	-2024
245.574	-359
245.638	-258
245.702	-1976
245.766	400
245.829	599
245.893	-1321
245.957	-986
246.021	-517
246.085	-1042
246.149	285
246.212	880
246.276	984
246.340	-59
246.404	-373
246.467	-228
246.531	-2308
246.595	562
246.659	479
246.722	-1757
246.786	-577
246.850	-833
246.913	-282
246.977	-1557
247.041	-710
247.104	-893
247.168	-617
247.232	292
247.295	1533
247.359	49
247.423	-1184
247.486	-118
247.550	443
247.614	-1114
247.677	30
247.741	-477
247.804	-483
247.868	201
247.932	-283
247.995	2096
248.059	-689
248.122	-1008
248.186	311
248.249	745
248.313	2639
248.376	3925
248.440	1337
248.503	-974
248.567	864
248.630	365
248.694	-468
248.757	1801
248.821	3196
248.884	3082
248.948	792
249.011	2891
249.075	3964
249.138	3495
249.202	479
249.265	-408
249.328	580
249.392	60
249.455	554
249.519	-606
249.582	-439
249.645	1299
249.709	-495
249.772	-1429
249.835	-1360
249.899	340
249.962	-19
250.025	-779
250.089	-62
250.152	1116
250.215	-227
250.279	-1269
250.342	-395
250.405	542
250.468	-836
250.532	-210
250.595	254
250.658	1527
250.721	5947
250.785	1228
250.848	974
250.911	-313
250.974	149
251.038	-854
251.101	1469
251.164	-75
251.227	397
251.290	-190
251.354	566
251.417	4314
251.480	4252
251.543	2606
251.606	8484
251.669	7614
251.732	2083
251.795	1874
251.859	2393
251.922	5196
251.985	3308
252.048	1178
252.111	1281
252.174	-219
252.237	999
252.300	5111
252.363	3283
252.426	9399
252.489	2938
252.552	927
252.615	-857
252.678	532
252.741	2863
252.804	2684
252.867	7922
252.930	4747
252.993	1654
253.056	1269
253.119	743
253.182	-403
253.245	-217
253.308	876
253.371	-566
253.434	-4
253.497	345
253.559	1296
253.622	-445
253.685	-319
253.748	432
253.811	-235
253.874	-505
253.937	85
254.000	-658
254.062	263
254.125	886
254.188	1840
254.251	326
254.314	-529
254.376	60
254.439	1138
254.502	1088
254.565	-416
254.628	2746
254.690	554
254.753	-1171
254.816	-1328
254.878	-597
254.941	721
255.004	973
255.067	-199
255.129	-410
255.192	47
255.255	-1200
255.317	-670
255.380	-789
255.443	-1063
255.505	111
255.568	-1319
255.631	-863
255.693	-190
255.756	-1844
255.819	-53
255.881	-563
255.944	-435
256.006	-858
256.069	-859
256.132	-1645
256.194	-751
256.257	-289
256.319	-431
256.382	-861
256.444	677
256.507	83
256.569	-707
256.632	-917
256.694	-1505
256.757	-564
256.819	-380
256.882	-1511
256.944	-15
257.007	826
257.069	-774
257.132	-1159
257.194	499
257.257	-1175
257.319	-1374
257.381	-909
257.444	151
257.506	-460
257.569	-244
257.631	292
257.693	-207
257.756	-4
257.818	-783
257.880	-1302
257.943	-535
258.005	-888
258.067	-1025
258.130	-1085
258.192	-500
258.254	-1380
258.317	-710
258.379	-470
258.441	-214
258.503	568
258.566	-1126
258.628	383
258.690	-1072
258.753	-114
258.815	-87
258.877	-1418
258.939	-1528
259.001	-613
259.064	-630
259.126	-1332
259.188	-1326
259.250	-1085
259.312	-626
259.375	321
259.437	-162
259.499	-446
259.561	-327
259.623	-411
259.685	-654
259.747	-128
259.809	79
259.872	-196
259.934	835
259.996	1317
260.058	-289
260.120	-882
260.182	-613
260.244	-512
260.306	-585
260.368	-488
260.430	-1429
260.492	-1004
260.554	-526
260.616	-943
260.678	471
260.740	-233
260.802	-990
260.864	-674
260.926	-1257
260.988	-443
261.050	-71
261.112	-879
261.174	525
261.236	-102
261.298	-294
261.359	70
261.421	666
261.483	-1285
261.545	-457
261.607	-1897
261.669	-1086
261.731	-75
261.793	602
261.854	-1025
261.916	-35
261.978	-870
262.040	-418
262.102	-223
262.164	-814
262.225	-357
262.287	-397
262.349	-425
262.411	-24
262.472	-734
262.534	-915
262.596	-1193
262.658	-194
262.719	-951
262.781	231
262.843	-1127
262.904	-544
262.966	-101
263.028	-424
263.090	378
263.151	2118
263.213	477
263.275	-285
263.336	-186
263.398	156
263.459	-1850
263.521	-737
263.583	633
263.644	371
263.706	-593
263.767	-958
263.829	-75
263.891	-1033
263.952	-1107
264.014	-895
264.075	-778
264.137	-749
264.198	211
264.260	-642
264.321	-946
264.383	-1134
264.444	488
264.506	-254
264.567	179
264.629	160
264.690	-2554
264.752	-274
264.813	-765
264.875	-180
264.936	-69
264.998	-886
265.059	-1344
265.120	-748
265.182	-1130
265.243	-859
265.305	-827
265.366	-353
265.427	-621
265.489	175
265.550	-1078
265.611	-1445
265.673	-681
265.734	-1176
265.795	-218
265.857	-1243
265.918	-1823
265.979	-61
266.040	-1280
266.102	-80
266.163	-945
266.224	-549
266.286	-1333
266.347	-1274
266.408	-882
266.469	-982
266.530	-1002
266.592	-458
266.653	-127
266.714	54
266.775	-604
266.836	-829
266.898	-1143
266.959	-1141
267.020	-1278
267.081	191
267.142	-1163
267.203	-1259
267.264	-1107
267.326	-18
267.387	-791
267.448	-848
267.509	-546
267.570	-346
267.631	-1097
267.692	-620
267.753	-613
267.814	-1682
267.875	-452
267.936	911
267.997	-985
268.058	-997
268.119	-658
268.180	-903
268.241	-1331
268.302	-402
268.363	-903
268.424	-725
268.485	-680
268.546	-920
268.607	-1126
268.668	-634
268.729	-1142
268.790	-1494
268.851	-884
268.912	78
268.972	255
269.033	-941
269.094	-1807
269.155	-536
269.216	-1130
269.277	-431
269.338	-597
269.398	-334
269.459	-1841
269.520	-579
269.581	-1248
269.642	-267
269.702	-922
269.763	-655
269.824	-830
269.885	-356
269.945	-1301
270.006	-99
270.067	-1036
270.128	-829
270.188	-546
270.249	-1415
270.310	-1447
270.370	-612
270.431	-1073
270.492	-566
270.553	-1067
270.613	45
270.674	965
270.734	-567
270.795	-1096
270.856	-465
270.916	-1160
270.977	-271
271.038	-591
271.098	-880
271.159	-549
271.219	-397
271.280	-702
271.340	-1094
271.401	-1144
271.462	-1147
271.522	-245
271.583	-910
271.643	-250
271.704	-577
271.764	-1016
271.825	-312
271.885	3221
271.946	5423
272.006	821
272.066	881
272.127	3759
272.187	2927
272.248	471
272.308	-358
272.369	1748
272.429	569
272.489	-542
272.550	-301
272.610	708
272.671	-302
272.731	-201
272.791	-222
272.852	-209
272.912	317
272.972	-143
273.033	283
273.093	-1490
273.153	-7
273.214	-774
273.274	-270
273.334	45
273.394	3135
273.455	544
273.515	-25
273.575	1872
273.635	732
273.696	1199
273.756	2815
273.816	642
273.876	608
273.936	-837
273.997	915
274.057	-214
274.117	-727
274.177	-387
274.237	3655
274.297	3545
274.358	855
274.418	1529
274.478	1995
274.538	89
274.598	-1339
274.658	-260
274.718	68
274.778	-482
274.838	-935
274.898	-1147
274.958	443
275.018	1690
275.078	2012
275.138	50
275.198	-472
275.258	-218
275.318	-568
275.378	0
275.438	-319
275.498	-928
275.558	-126
275.618	1026
275.678	2003
275.738	36
275.798	185
275.858	-918
275.918	-1163
275.978	-1467
276.038	102
276.098	-1001
276.157	-178
276.217	1705
276.277	-118
276.337	-175
276.397	-258
276.457	27
276.517	-659
276.576	-446
276.636	-1205
276.696	-510
276.756	642
276.815	-136
276.875	-519
276.935	-1003
276.995	-256
277.055	246
277.114	-426
277.174	-223
277.234	2406
277.293	-702
277.353	-543
277.413	-456
277.472	-550
277.532	-1117
277.592	52
277.651	1669
277.711	6350
277.771	1449
277.830	6221
277.890	6572
277.950	2927
278.009	11159
278.069	3721
278.128	3009
278.188	6944
278.248	1847
278.307	6623
278.367	5095
278.426	-40
278.486	533
278.545	-1159
278.605	-192
278.664	-553
278.724	-750
278.783	791
278.843	5308
278.902	1127
278.962	-541
279.021	-12
279.081	549
279.140	-5
279.199	-246
279.259	319
279.318	216
279.378	1150
279.437	1202
279.496	7652
279.556	21084
279.615	21045
279.675	4867
279.734	1620
279.793	2702
279.853	6497
279.912	2844
279.971	1979
280.031	629
280.090	2050
280.149	5277
280.208	2098
280.268	12764
280.327	18043
280.386	3394
280.445	1951
280.505	1482
280.564	393
280.623	269
280.682	-355
280.742	1727
280.801	-379
280.860	-380
280.919	-738
280.978	-145
281.037	-771
281.097	183
281.156	-447
281.215	-42
281.274	112
281.333	2122
281.392	1329
281.451	232
281.510	50
281.569	-732
281.628	-211
281.688	16
281.747	758
281.806	-251
281.865	272
281.924	-832
281.983	26
282.042	-876
282.101	-879
282.160	-525
282.219	-170
282.278	-312
282.337	542
282.396	-139
282.454	-541
282.513	-725
282.572	1730
282.631	159
282.690	-1228
282.749	-1304
282.808	-537
282.867	-1537
282.926	-532
282.985	-584
283.043	-257
283.102	-322
283.161	-1107
283.220	372
283.279	2466
283.338	-242
283.396	124
283.455	147
283.514	-209
283.573	483
283.631	318
283.690	141
283.749	-210
283.808	-187
283.866	1014
283.925	-202
283.984	694
284.043	-810
284.101	873
284.160	-19
284.219	13
284.277	337
284.336	837
284.395	2746
284.453	4288
284.512	1203
284.570	2235
284.629	1317
284.688	1699
284.746	2211
284.805	2668
284.863	3873
284.922	4922
284.981	6946
285.039	10366
285.098	17169
285.156	32850
285.215	40126
285.273	39152
285.332	40064
285.390	24160
285.449	15027
285.507	9554
285.566	6912
285.624	4621
285.683	3647
285.741	3144
285.799	1768
285.858	2028
285.916	1657
285.975	1205
286.033	1328
286.091	588
286.150	306
286.208	958
286.267	426
286.325	342
286.383	453
286.442	1143
286.500	204
286.558	40
286.616	-62
286.675	1085
286.733	15
286.791	23
286.850	416
286.908	-157
286.966	417
287.024	-105
287.083	79
287.141	-174
287.199	449
287.257	578
287.315	42
287.374	-728
287.432	805
287.490	5
287.548	-176
287.606	-187
287.664	-621
287.723	272
287.781	60
287.839	-94
287.897	-945
287.955	218
288.013	-491
288.071	1060
288.129	5109
288.187	28145
288.245	13660
288.303	2062
288.361	796
288.419	514
288.477	0
288.535	192
288.593	-666
288.651	-788
288.709	-775
288.767	-452
288.825	-1256
288.883	-605
288.941	-76
288.999	-1501
289.057	-895
289.115	-638
289.173	-959
289.231	-391
289.289	-391
289.346	-494
289.404	-671
289.462	-543
289.520	-862
289.578	-738
289.636	-1167
289.694	-1179
289.751	-934
289.809	-533
289.867	-78
289.925	-65
289.983	-911
290.040	-955
290.098	-776
290.156	-1239
290.214	-474
290.271	-604
290.329	-854
290.387	-785
290.444	-1000
290.502	-341
290.560	-773
290.617	-346
290.675	-738
290.733	-443
290.790	-608
290.848	-1224
290.906	-1868
290.963	-752
291.021	-870
291.078	-1057
291.136	-1219
291.194	-94
291.251	1364
291.309	-254
291.366	-461
291.424	-373
291.481	-531
291.539	-65
291.596	-431
291.654	-158
291.711	-630
291.769	-636
291.826	-440
291.884	-1003
291.941	-847
291.999	-499
292.056	-1276
292.114	-747
292.171	-1301
292.228	195
292.286	-166
292.343	-944
292.401	-371
292.458	-1033
292.515	-1003
292.573	-622
292.630	-477
292.687	-538
292.745	-1061
292.802	-1177
292.859	-294
292.917	1970
292.974	537
293.031	-770
293.089	-502
293.146	-942
293.203	-1015
293.260	-862
293.318	-1105
293.375	-427
293.432	-1906
293.489	-756
293.546	-1057
293.604	-430
293.661	1006
293.718	5878
293.775	2507
293.832	602
293.889	134
293.947	236
294.004	-89
294.061	-963
294.118	-6
294.175	1506
294.232	680
294.289	71
294.346	-224
294.403	12
294.460	-643
294.517	433
294.574	-811
294.631	-705
294.688	-1300
294.745	-368
294.802	4168
294.859	3277
294.916	-12
294.973	-292
295.030	-437
295.087	-437
295.144	-504
295.201	178
295.258	-99
295.315	-278
295.372	910
295.429	3322
295.486	963
295.542	-470
295.599	-274
295.656	43
295.713	782
295.770	3582
295.827	253
295.883	73
295.940	-237
295.997	-22
296.054	-1021
296.111	-386
296.167	-132
296.224	-945
296.281	-1002
296.338	-480
296.394	-368
296.451	-1038
296.508	62
296.564	3071
296.621	382
296.678	3470
296.734	7855
296.791	2203
296.848	222
296.904	297
296.961	1810
297.018	4259
297.074	2582
297.131	852
297.187	-433
297.244	-16
297.301	3510
297.357	10672
297.414	3310
297.470	291
297.527	-458
297.583	-487
297.640	-1319
297.696	-857
297.753	-1018
297.809	-1448
297.866	-112
297.922	-1455
297.979	-720
298.035	-1244
298.092	-602
298.148	1301
298.204	1597
298.261	2
298.317	603
298.374	4305
298.430	3998
298.486	-309
298.543	28
298.599	-650
298.656	-668
298.712	-270
298.768	1810
298.824	280
298.881	-266
298.937	-432
298.993	-993
299.050	160
299.106	-1097
299.162	-464
299.218	-438
299.275	39
299.331	531
299.387	1228
299.443	5513
299.500	11885
299.556	8362
299.612	3203
299.668	1604
299.724	6039
299.780	9525
299.837	2781
299.893	1659
299.949	6525
300.005	11926
300.061	7399
300.117	15002
300.173	6483
300.229	1115
300.285	1325
300.341	1427
300.397	996
300.453	24
300.510	605
300.566	-325
300.622	1465
300.678	9410
300.734	17637
300.790	8878
300.845	8021
300.901	7245
300.957	11930
301.013	6218
301.069	1930
301.125	1394
301.181	287
301.237	-575
301.293	-71
301.349	-195
301.405	-96
301.461	170
301.516	-626
301.572	-26
301.628	326
301.684	153
301.740	579
301.796	2313
301.851	1438
301.907	2153
301.963	2003
302.019	3605
302.074	15224
302.130	18418
302.186	8151
302.242	2083
302.297	918
302.353	958
302.409	2682
302.464	2079
302.520	1550
302.576	3914
302.631	6822
302.687	2233
302.743	-136
302.798	-608
302.854	59
302.910	113
302.965	-1076
303.021	259
303.076	-10
303.132	14
303.187	717
303.243	-493
303.299	-544
303.354	-1131
303.410	-181
303.465	-671
303.521	-835
303.576	-1413
303.632	-846
303.687	-69
303.743	3417
303.798	4534
303.853	810
303.909	-11
303.964	-951
304.020	-562
304.075	-373
304.130	787
304.186	887
304.241	2288
304.297	874
304.352	96
304.358	-10
304.407	-867
304.449	-456
304.463	-316
304.518	-628
304.539	-846
304.573	-1215
304.629	-204
304.630	-194
304.684	231
304.720	1480
304.739	2103
304.794	5589
304.811	4866
304.850	3134
304.902	589
304.905	419
304.960	-364
304.992	-434
305.015	-468
305.071	-566
305.083	-616
305.126	-765
305.173	-718
305.181	-714
305.236	-541
305.264	-642
305.292	-771
305.347	-579
305.354	-583
305.402	-497
305.445	-249
305.457	-206
305.512	-456
305.535	-76
305.567	476
305.622	-306
305.626	-244
305.678	1068
305.716	2735
305.733	3312
305.788	5252
305.807	4667
305.843	3702
305.897	4389
305.898	4393
305.953	5081
305.988	3093
306.008	1982
306.063	474
306.078	263
306.118	-122
306.168	-129
306.173	-132
306.228	89
306.259	236
306.283	384
306.338	-396
306.349	-299
306.393	-84
306.440	-442
306.448	-463
306.503	502
306.530	312
306.558	78
306.613	297
306.620	357
306.668	1448
306.711	3381
306.723	3581
306.778	3881
306.801	2746
306.833	1546
306.888	22
306.892	38
306.943	338
306.982	-92
306.997	-198
307.052	21
307.072	-49
307.107	-160
307.162	376
307.163	378
307.217	755
307.253	215
307.272	-116
307.327	191
307.343	75
307.381	39
307.434	447
307.436	490
307.491	1100
307.524	1870
307.546	2230
307.600	3521
307.614	3246
307.655	1764
307.704	704
307.710	665
307.765	336
307.795	365
307.819	387
307.874	532
307.885	473
307.929	381
307.975	658
307.984	666
308.038	807
308.065	599
308.093	781
308.148	1306
308.156	1526
308.202	2612
308.246	3806
308.257	4025
308.312	2831
308.336	2854
308.366	2805
308.421	2781
308.426	2638
308.475	1241
308.517	973
308.530	979
308.585	396
308.607	404
308.639	553
308.694	724
308.697	716
308.748	782
308.787	1223
308.803	1248
308.857	164
308.877	305
308.912	991
308.967	1233
308.967	1237
309.021	2182
309.058	2843
309.076	3318
309.130	5260
309.148	5875
309.185	7586
309.238	10279
309.239	10327
309.293	12983
309.328	13801
309.348	12856
309.402	7745
309.418	6348
309.457	5077
309.508	4620
309.511	4641
309.566	5314
309.598	5911
309.620	6964
309.674	10563
309.688	11679
309.729	12169
309.778	10204
309.783	9951
309.837	6554
309.868	5004
309.892	5437
309.946	6762
309.959	7362
310.001	9312
310.049	10957
310.055	10560
310.109	6211
310.139	3666
310.163	2882
310.218	1547
310.229	1326
310.272	1714
310.319	2337
310.326	2216
310.381	1053
310.409	559
310.435	729
310.489	870
310.499	918
310.543	1328
310.589	1698
310.598	1716
310.652	1866
310.679	1882
310.706	1631
310.760	945
310.769	869
310.814	1154
310.859	1264
310.868	1271
310.923	1314
310.948	1286
310.977	1486
311.031	1946
311.038	2009
311.085	1799
311.128	1407
311.139	1466
311.193	1937
311.218	2032
311.247	1742
311.301	1269
311.308	1202
311.356	1574
311.398	1879
311.410	1867
311.464	1691
311.488	1663
311.518	1745
311.572	1759
311.578	1757
311.626	2142
311.668	2437
311.680	2430
311.734	2330
311.758	2259
311.788	2053
311.842	1699
311.847	1652
311.896	2055
311.937	2408
311.950	2453
312.004	2573
312.027	2615
312.058	2514
312.112	2334
312.117	2308
312.165	1931
312.207	1599
312.297	826
312.386	1882
312.476	2897
312.566	2944
312.656	2566
312.745	1917
312.835	2454
312.925	2314
313.015	2645
313.104	2285
313.194	3022
313.284	2781
313.374	3137
313.463	2932
313.553	2213
313.643	2186
313.732	2466
313.822	2071
313.912	4134
314.001	3288
314.091	3831
314.180	3561
314.270	3961
314.360	3064
314.449	3554
314.539	3929
314.628	3840
314.718	3043
314.808	3884
314.897	3689
314.987	4580
315.076	4880
315.166	4682
315.255	4559
315.345	4270
315.434	3297
315.524	3546
315.613	3340
315.703	4344
315.792	5983
315.881	15682
315.971	6053
316.060	4422
316.150	3424
316.239	3755
316.328	3252
316.418	3223
316.507	3135
316.597	5218
316.686	4186
316.775	3913
316.865	3956
316.954	3591
317.043	3083
317.133	2749
317.222	3438
317.311	3060
317.400	2394
317.490	4105
317.579	3457
317.668	3077
317.757	3164
317.847	8776
317.936	24346
318.025	10065
318.114	7927
318.203	4892
318.293	3887
318.382	5733
318.471	6453
318.560	5208
318.649	3446
318.738	3076
318.828	3389
318.917	3167
319.006	2855
319.095	3363
319.184	3910
319.273	5087
319.362	5154
319.451	2745
319.540	2578
319.629	3851
319.718	5298
319.807	3741
319.896	2880
319.985	4975
320.074	3908
320.163	2678
320.252	2499
320.341	3552
320.430	3228
320.519	3587
320.608	4296
320.697	5531
320.786	4328
320.875	5631
320.964	5972
321.053	7630
321.142	8108
321.230	9160
321.319	9434
321.408	12395
321.497	10100
321.586	8751
321.675	6900
321.764	6937
321.852	6828
321.941	8403
322.030	7186
322.119	7916
322.207	11727
322.296	10288
322.385	10221
322.474	13846
322.562	18019
322.651	11695
322.740	8702
322.829	8643
322.917	6022
323.006	6200
323.095	6550
323.183	4950
323.272	5145
323.361	5717
323.449	5199
323.538	4545
323.626	5010
323.715	4027
323.804	3692
323.892	3883
323.981	4114
324.069	4432
324.158	3493
324.246	4242
324.335	3882
324.424	5325
324.512	4398
324.601	4966
324.689	5599
324.778	8434
324.866	4026
324.954	3382
325.043	3510
325.131	3054
325.220	3826
325.308	3769
325.397	3628
325.485	4110
325.574	3260
325.662	3654
325.750	3524
325.839	4087
325.927	3140
326.015	3400
326.104	3707
326.192	3524
326.280	3653
326.369	3434
326.457	3845
326.545	4196
326.634	3153
326.722	4482
326.810	3715
326.898	4515
326.987	4289
327.075	4262
327.163	4529
327.251	3831
327.340	5551
327.428	7802
327.516	5032
327.604	5366
327.692	3937
327.781	3283
327.869	2783
327.957	3630
328.045	3455
328.133	4024
328.221	3072
328.309	3817
328.397	3098
328.485	4687
328.574	6132
328.662	10095
328.750	6202
328.838	4576
328.926	4656
329.014	3911
329.102	3585
329.190	4602
329.278	3888
329.366	4681
329.454	2938
329.542	4489
329.630	3152
329.718	3449
329.806	2434
329.893	3795
329.981	2565
330.069	3821
330.157	4465
330.245	5500
330.333	4287
330.421	3643
330.509	4128
330.597	7145
330.684	5048
330.772	4212
330.860	3750
330.948	3947
331.036	3988
331.123	4108
331.211	3708
331.299	4392
331.387	4057
331.475	4187
331.562	3364
331.650	3505
331.738	3652
331.825	3605
331.913	3611
332.001	4029
332.089	3945
332.176	4527
332.264	3685
332.352	4140
332.439	3525
332.527	3644
332.614	4418
332.702	3888
332.790	4098
332.877	3405
332.965	4305
333.052	4594
333.140	4774
333.228	7010
333.315	4082
333.403	3779
333.490	4303
333.578	4024
333.665	8638
333.753	6193
333.840	4095
333.928	5777
334.015	5931
334.103	5758
334.190	8137
334.278	10607
334.365	14249
334.452	14647
334.540	8817
334.627	8693
334.715	10957
334.802	14155
334.889	22848
334.977	32890
335.064	23640
335.151	12507
335.239	8523
335.326	7339
335.413	6608
335.501	7026
335.588	7828
335.675	7802
335.762	9208
335.850	12383
335.937	17275
336.024	28125
336.111	44859
336.199	44448
336.286	19972
336.373	12196
336.460	8027
336.547	6864
336.635	6005
336.722	5232
336.809	4456
336.896	4307
336.983	5188
337.070	5021
337.157	4956
337.245	4245
337.332	4426
337.419	4507
337.506	3688
337.593	4084
337.680	3955
337.767	4647
337.854	3796
337.941	4855
338.028	4157
338.115	3425
338.202	4394
338.289	4759
338.376	4780
338.463	4328
338.550	3308
338.637	3107
338.724	4265
338.811	4764
338.898	5095
338.984	4357
339.071	2884
339.158	4181
339.245	5416
339.332	4437
339.419	3726
339.506	3888
339.593	3041
339.679	4381
339.766	3443
339.853	4494
339.940	4415
340.027	4233
340.113	4246
340.200	3932
340.287	3240
340.374	3570
340.460	4378
340.547	3273
340.634	4442
340.720	8060
340.807	5389
340.894	4712
340.980	3667
341.067	3996
341.154	4654
341.240	4783
341.327	6304
341.414	4506
341.500	3863
341.587	3979
341.674	3990
341.760	4755
341.847	5639
341.933	4120
342.020	3405
342.106	3517
342.193	3288
342.279	4290
342.366	3445
342.452	4937
342.539	3627
342.625	4898
342.712	8201
342.798	5276
342.885	3804
342.971	3273
343.058	3193
343.144	4312
343.230	4023
343.317	3922
343.403	3011
343.490	3649
343.576	3715
343.662	3560
343.749	2791
343.835	3780
343.921	4821
344.008	14086
344.094	25529
344.180	8239
344.267	4619
344.353	9577
344.439	8106
344.525	5009
344.612	4111
344.698	3797
344.784	2031
344.870	3886
344.957	2956
345.043	4304
345.129	2515
345.215	4559
345.301	3828
345.387	3250
345.474	2512
345.560	3451
345.646	2663
345.732	3571
345.818	3424
345.904	3549
345.990	3440
346.076	4054
346.162	2728
346.249	3550
346.335	2800
346.421	3562
346.507	5235
346.593	11819
346.679	3901
346.765	5381
346.851	5804
346.937	4923
347.023	4114
347.108	3641
347.194	3075
347.280	4151
347.366	4438
347.452	12227
347.538	19470
347.624	14159
347.710	9610
347.796	5042
347.882	3930
347.967	4698
348.053	3336
348.139	3778
348.225	3119
348.311	3236
348.397	3140
348.482	4077
348.568	4646
348.654	5336
348.740	14700
348.825	14272
348.911	7860
348.997	8613
349.083	13775
349.168	5675
349.254	4076
349.340	4686
349.425	3374
349.511	4553
349.597	3988
349.682	4856
349.768	11346
349.854	7104
349.939	4921
350.025	4184
350.110	4738
350.196	3504
350.282	3451
350.367	3574
350.453	3917
350.538	2918
350.624	2982
350.709	4916
350.795	3935
350.880	3001
350.966	5014
351.051	3769
351.137	3296
351.222	3863
351.308	5210
351.393	9229
351.479	4541
351.564	3704
351.649	3348
351.735	3534
351.820	3888
351.906	4040
351.991	2951
352.076	7225
352.162	9880
352.247	3962
352.332	3788
352.418	3735
352.503	4241
352.588	12861
352.673	8698
352.759	3897
352.844	3503
352.929	2878
353.014	3280
353.100	4895
353.185	4234
353.270	4475
353.355	3891
353.441	3460
353.526	2924
353.611	3893
353.696	3863
353.781	4960
353.866	2840
353.952	4803
354.037	3659
354.122	6257
354.207	5356
354.292	4505
354.377	3252
354.462	3333
354.547	3170
354.632	3990
354.717	4377
354.802	5274
354.887	3714
354.972	3332
355.057	3827
355.142	3381
355.227	3603
355.312	4160
355.397	5128
355.482	8586
355.567	4944
355.652	5594
355.737	5240
355.822	12268
355.907	8674
355.991	6069
356.076	3494
356.161	5136
356.246	3714
356.331	4025
356.416	4948
356.501	16954
356.585	15297
356.670	4598
356.755	6531
356.840	6395
356.924	12284
357.009	30843
357.094	14880
357.179	6397
357.263	5462
357.348	6565
357.433	5485
357.517	5638
357.602	4429
357.687	4748
357.771	5555
357.856	5961
357.941	6153
358.025	10812
358.110	32172
358.195	17355
358.279	6827
358.364	6156
358.448	9299
358.533	19714
358.617	14812
358.702	15748
358.787	8079
358.871	6606
358.956	5182
359.040	5139
359.125	4502
359.209	4901
359.294	5187
359.378	5832
359.462	5247
359.547	4999
359.631	3268
359.716	3648
359.800	3620
359.885	3899
359.969	2896
360.053	4474
360.138	3286
360.222	3558
360.306	4641
360.391	5661
360.475	4461
360.559	5679
360.644	7152
360.728	6206
360.812	10387
360.896	22636
360.981	9601
361.065	5415
361.149	4903
361.233	4712
361.318	3973
361.402	4820
361.486	4827
361.570	4535
361.654	4318
361.739	6487
361.823	14801
361.907	23084
361.991	7300
362.075	7440
362.159	10076
362.243	16123
362.327	33924
362.411	54106
362.495	22330
362.580	11093
362.664	9579
362.748	10822
362.832	15214
362.916	30676
363.000	82182
363.084	121463
363.168	60107
363.252	18737
363.336	11544
363.420	9282
363.503	7523
363.587	6810
363.671	6645
363.755	6282
363.839	9568
363.923	7387
364.007	10899
364.091	13609
364.175	16891
364.258	36462
364.342	89922
364.426	160393
364.510	90406
364.594	31816
364.677	16356
364.761	22959
364.845	17821
364.929	9161
365.013	6776
365.096	6829
365.180	5366
365.264	4895
365.347	5407
365.431	4026
365.515	3454
365.598	4409
365.682	6071
365.766	4188
365.849	4896
365.933	4735
366.017	6297
366.100	5241
366.184	3850
366.267	5354
366.351	5059
366.435	3590
366.518	4692
366.602	5203
366.685	4596
366.769	4639
366.852	4898
366.936	5200
367.019	5064
367.103	3399
367.186	5627
367.270	4192
367.353	4394
367.436	5898
367.520	5118
367.603	6150
367.687	5456
367.770	6192
367.853	6178
367.937	9793
368.020	12046
368.104	5277
368.187	5669
368.270	7142
368.353	5973
368.437	5150
368.520	4889
368.603	5305
368.687	7750
368.770	14552
368.853	5546
368.936	6113
369.020	4882
369.103	3908
369.186	3838
369.269	3661
369.352	5149
369.436	5044
369.519	4047
369.602	2064
369.685	5865
369.768	3313
369.851	4659
369.934	3917
370.018	3655
370.101	4386
370.184	6623
370.267	4103
370.350	4744
370.433	5676
370.516	13163
370.599	19349
370.682	6592
370.765	10495
370.848	11609
370.931	16096
371.014	8792
371.097	3955
371.180	4448
371.263	5426
371.346	2793
371.429	5279
371.511	4054
371.594	5050
371.677	6076
371.760	6720
371.843	5897
371.926	17001
372.009	31267
372.091	17272
372.174	9969
372.257	17941
372.340	9759
372.423	7241
372.505	8273
372.588	6192
372.671	7865
372.754	16662
372.836	10400
372.919	5582
373.002	6155
373.085	4956
373.167	6815
373.250	9133
373.332	16937
373.415	21053
373.498	37412
373.580	16994
373.663	25574
373.746	30885
373.828	9084
373.911	6935
373.993	5149
374.076	5292
374.159	5268
374.241	7264
374.324	15391
374.406	12945
374.489	12487
374.571	33517
374.654	15601
374.736	9491
374.819	20006
374.901	29006
374.983	27668
375.066	10020
375.148	6178
375.231	6050
375.313	6584
375.395	7301
375.478	6214
375.560	6407
375.643	5913
375.725	9749
375.807	23617
375.890	18102
375.972	5008
376.054	8003
376.136	5130
376.219	5251
376.301	9978
376.383	21660
376.465	10755
376.548	6516
376.630	8034
376.712	19911
376.794	10074
376.877	5634
376.959	4151
377.041	4522
377.123	3383
377.205	4473
377.287	2625
377.369	5143
377.452	4651
377.534	5067
377.616	4881
377.698	4833
377.780	4174
377.862	4526
377.944	5349
378.026	3727
378.108	4534
378.190	4410
378.272	4629
378.354	4496
378.436	3283
378.518	3796
378.600	5227
378.682	6440
378.764	12259
378.846	10264
378.928	4716
379.010	4924
379.091	5818
379.173	5106
379.255	2933
379.337	3888
379.419	6929
379.501	14850
379.583	6660
379.664	5697
379.746	4857
379.828	12049
379.910	14231
379.991	14273
380.073	4209
380.155	5314
380.237	3884
380.318	3821
380.400	3668
380.482	4813
380.564	5132
380.645	5963
380.727	5717
380.809	5021
380.890	4247
380.972	3574
381.053	4360
381.135	5308
381.217	5524
381.298	13355
381.380	7085
381.461	6634
381.543	17848
381.624	21891
381.706	6903
381.787	5124
381.869	6119
381.951	8851
382.032	26962
382.113	20774
382.195	4789
382.276	7139
382.358	9270
382.439	18759
382.521	19325
382.602	28729
382.684	15601
382.765	25269
382.846	30682
382.928	51075
383.009	29225
383.090	22723
383.172	69188
383.253	94788
383.334	34860
383.416	29554
383.497	18004
383.578	12768
383.659	18839
383.741	59548
383.822	132329
383.903	68351
383.984	23925
384.066	35529
384.147	21651
384.228	10088
384.309	8819
384.390	8023
384.471	6423
384.553	6600
384.634	6716
384.715	7186
384.796	5801
384.877	5539
384.958	13052
385.039	12823
385.120	7402
385.201	6512
385.282	5693
385.363	6724
385.444	5716
385.525	8240
385.606	15740
385.687	14516
385.768	7154
385.849	6990
385.930	18409
386.011	27993
386.092	11401
386.173	6232
386.254	6770
386.335	6371
386.416	6126
386.496	10621
386.577	13428
386.658	7779
386.739	5929
386.820	7590
386.901	6112
386.981	7274
387.062	7267
387.143	9124
387.224	16171
387.304	17251
387.385	11605
387.466	9096
387.547	11179
387.627	11052
387.708	12990
387.789	23685
387.869	24506
387.950	13785
388.031	7844
388.111	4266
388.192	7505
388.273	8037
388.353	6642
388.434	6331
388.514	6781
388.595	18160
388.676	21962
388.756	14255
388.837	12926
388.917	8526
388.998	3812
389.078	7066
389.159	5656
389.239	4013
389.320	6739
389.400	4045
389.480	7467
389.561	13236
389.641	10013
389.722	5983
389.802	6470
389.883	8106
389.963	16015
390.043	9953
390.124	4145
390.204	7102
390.284	13369
390.365	9168
390.445	5338
390.525	7412
390.605	9599
390.686	8692
390.766	6274
390.846	5962
390.927	4597
391.007	4645
391.087	5332
391.167	5243
391.247	3391
391.328	5803
391.408	6053
391.488	6364
391.568	3825
391.648	5845
391.728	6823
391.808	7505
391.888	6608
391.969	11147
392.049	13677
392.129	9101
392.209	9075
392.289	18127
392.369	11146
392.449	8312
392.529	7617
392.609	10689
392.689	11962
392.769	19337
392.849	20491
392.929	19484
393.009	28985
393.089	38137
393.169	57641
393.248	129007
393.328	265289
393.408	271566
393.488	138250
393.568	57076
393.648	30674
393.728	20010
393.807	14377
393.887	12961
393.967	10711
394.047	9024
394.127	6972
394.206	8163
394.286	7559
394.366	12677
394.446	13951
394.525	7030
394.605	5443
394.685	6454
394.764	7827
394.844	12814
394.924	18212
395.003	8730
395.083	6187
395.163	6391
395.242	4948
395.322	6169
395.402	3485
395.481	6726
395.561	6184
395.640	21045
395.720	44334
395.799	20543
395.879	7150
395.958	5956
396.038	6882
396.117	16923
396.197	18037
396.276	10681
396.356	9003
396.435	11171
396.515	15120
396.594	21947
396.673	43199
396.753	116917
396.832	243338
396.912	193705
396.991	70681
397.070	31132
397.150	17187
397.229	16980
397.308	32494
397.388	65336
397.467	31301
397.546	12299
397.625	5724
397.705	9132
397.784	6992
397.863	6019
397.942	6182
398.022	5675
398.101	4675
398.180	5688
398.259	4608
398.338	6390
398.417	4577
398.497	4305
398.576	5688
398.655	4142
398.734	5219
398.813	5430
398.892	4411
398.971	5213
399.050	3447
399.129	3349
399.208	4074
399.287	5351
399.366	3487
399.445	3783
399.524	4674
399.603	2869
399.682	4527
399.761	4555
399.840	5167
399.919	4088
399.998	2722
400.077	2929
400.156	3104
400.235	5989
400.313	2703
400.392	2827
400.471	7799
400.550	10976
400.629	3552
400.708	4170
400.786	2500
400.865	3764
400.944	2858
401.023	5924
401.102	2479
401.180	3767
401.259	2854
401.338	3308
401.416	3419
401.495	3147
401.574	4063
401.652	3089
401.731	4186
401.810	2938
401.888	2735
401.967	2621
402.046	3207
402.124	3887
402.203	2341
402.281	3677
402.360	2670
402.438	2415
402.517	2457
402.596	4090
402.674	2543
402.753	3158
402.831	4304
402.910	4035
402.988	5911
403.066	17871
403.145	11969
403.223	8341
403.302	16454
403.380	13576
403.459	14508
403.537	7143
403.615	4167
403.694	2261
403.772	3106
403.850	3722
403.929	2187
404.007	2630
404.085	5618
404.164	3982
404.242	2965
404.320	4192
404.398	3815
404.477	6287
404.555	22341
404.633	19982
404.711	5726
404.789	3791
404.868	3843
404.946	2466
405.024	3072
405.102	3443
405.180	2580
405.258	1425
405.336	3374
405.415	2445
405.493	2806
405.571	4413
405.649	3111
405.727	2682
405.805	4113
405.883	4165
405.961	3876
406.039	2952
406.117	1544
406.195	3296
406.273	6518
406.351	20511
406.429	12798
406.507	2454
406.585	1468
406.663	3538
406.740	1902
406.818	2040
406.896	2023
406.974	3161
407.052	2766
407.130	12781
407.208	16334
407.285	5075
407.363	1681
407.441	3004
407.519	3029
407.596	3772
407.674	8283
407.752	34389
407.830	26770
407.907	5550
407.985	2413
408.063	3021
408.141	1575
408.218	3448
408.296	2372
408.373	4122
408.451	4521
408.529	4200
408.606	2978
408.684	3973
408.762	4301
408.839	3854
408.917	3578
408.994	3881
409.072	4421
409.149	5642
409.227	9897
409.304	13807
409.382	14198
409.459	15880
409.537	20809
409.614	18385
409.692	13565
409.769	13599
409.846	20320
409.924	24421
410.001	16506
410.079	13117
410.156	9874
410.233	7624
410.311	5331
410.388	5544
410.465	5228
410.543	5642
410.620	6396
410.697	5596
410.775	5364
410.852	4398
410.929	6493
411.006	6846
411.083	4795
411.161	5063
411.238	4177
411.315	4963
411.392	4484
411.469	5970
411.547	4762
411.624	2340
411.701	3246
411.778	4055
411.855	4282
411.932	3902
412.009	3267
412.086	4112
412.163	3503
412.240	2991
412.317	3145
412.394	3414
412.471	3697
412.548	3952
412.625	3610
412.702	3508
412.779	3762
412.856	2942
412.933	2160
413.010	2994
413.087	3538
413.164	5635
413.241	7486
413.318	4242
413.395	3459
413.471	3093
413.548	2933
413.625	3596
413.702	2367
413.779	3186
413.855	1656
413.932	2010
414.009	1372
414.086	2377
414.162	2499
414.239	3097
414.316	5735
414.393	11659
414.469	3717
414.546	2460
414.623	2755
414.699	2600
414.776	2779
414.853	2333
414.929	2335
415.006	2166
415.082	2397
415.159	3345
415.236	1830
415.312	2869
415.389	2575
415.465	3021
415.542	2399
415.618	1821
415.695	2441
415.771	2323
415.848	1616
415.924	2221
416.000	2063
416.077	3600
416.153	1061
416.230	1815
416.306	1301
416.383	1883
416.459	2586
416.535	1554
416.612	1462
416.688	2297
416.764	1417
416.841	1138
416.917	1991
416.993	2538
417.069	2159
417.146	1747
417.222	1401
417.298	2400
417.374	1783
417.451	3352
417.527	1754
417.603	2082
417.679	2591
417.755	2022
417.831	1373
417.908	2248
417.984	1744
418.060	1514
418.136	2610
418.212	2871
418.288	2160
418.364	2871
418.440	2234
418.516	2976
418.592	2019
418.668	3237
418.744	3984
418.820	4902
418.896	2858
418.972	2643
419.048	2689
419.124	4067
419.200	2933
419.276	3351
419.352	1950
419.428	2844
419.504	2184
419.579	3565
419.655	3007
419.731	3385
419.807	4131
419.883	5035
419.959	5093
420.034	4429
420.110	4512
420.186	8608
420.262	8901
420.337	4679
420.413	4971
420.489	5083
420.565	5772
420.640	5261
420.716	6506
420.792	4901
420.867	7351
420.943	7276
421.019	7134
421.094	7293
421.170	9974
421.245	9659
421.321	10000
421.397	10537
421.472	17577
421.548	34178
421.623	26939
421.699	17940
421.774	18132
421.850	19757
421.925	23881
422.001	28771
422.076	35020
422.152	43536
422.227	54570
422.302	75392
422.378	101874
422.453	141693
422.529	173997
422.604	146544
422.679	95426
422.755	137014
422.830	175505
422.905	150845
422.981	111268
423.056	82127
423.131	62861
423.207	48734
423.282	39331
423.357	33315
423.432	27643
423.508	25236
423.583	21640
423.658	18733
423.733	16328
423.808	14259
423.883	13776
423.959	14160
424.034	16011
424.109	14823
424.184	10510
424.259	10304
424.334	8892
424.409	7517
424.484	7022
424.559	7545
424.634	6965
424.709	5532
424.784	5353
424.859	5552
424.934	4935
425.009	8666
425.084	11570
425.159	6259
425.234	5726
425.309	3934
425.384	5131
425.459	3865
425.534	4278
425.609	2786
425.683	3967
425.758	4273
425.833	4019
425.908	4037
425.983	4448
426.058	8889
426.132	5543
426.207	3767
426.282	4245
426.357	2562
426.431	2827
426.506	3611
426.581	3376
426.655	3301
426.730	3119
426.805	2102
426.879	3551
426.954	3080
427.029	3473
427.103	7859
427.178	18311
427.253	8823
427.327	3107
427.402	2189
427.476	2622
427.551	2386
427.625	2078
427.700	3022
427.774	1699
427.849	3311
427.923	1663
427.998	3367
428.072	3335
428.147	7296
428.221	23229
428.296	71828
428.370	42559
428.444	7278
428.519	3349
428.593	2825
428.667	2842
428.742	4518
428.816	9112
428.890	41694
428.965	66083
429.039	18744
429.113	4126
429.188	2501
429.262	2308
429.336	3564
429.410	5074
429.485	3803
429.559	2978
429.633	3022
429.707	3873
429.781	7745
429.855	38887
429.930	60865
430.004	18650
430.078	10813
430.152	27042
430.226	92878
430.300	94631
430.374	25455
430.448	8754
430.522	5336
430.596	5704
430.670	13844
430.744	56519
430.818	67734
430.892	14969
430.966	4186
431.040	2914
431.114	2501
431.188	605
431.262	1602
431.336	1077
431.410	1983
431.484	1682
431.557	3486
431.631	2304
431.705	4616
431.779	18516
431.853	67992
431.927	49055
432.000	9503
432.074	3473
432.148	1441
432.222	1654
432.295	2188
432.369	648
432.443	1458
432.516	5920
432.590	16503
432.664	6233
432.737	1068
432.811	750
432.885	712
432.958	1167
433.032	708
433.106	913
433.179	1327
433.253	842
433.326	536
433.400	-11
433.473	2036
433.547	368
433.620	1665
433.694	770
433.767	1890
433.841	806
433.914	973
433.988	568
434.061	880
434.134	125
434.208	279
434.281	206
434.355	688
434.428	922
434.501	813
434.575	-98
434.648	-86
434.721	320
434.795	904
434.868	-343
434.941	1337
435.014	1037
435.088	1152
435.161	1903
435.234	2538
435.307	1837
435.381	3188
435.454	4990
435.527	9509
435.600	10537
435.673	8398
435.746	6149
435.819	4739
435.892	2901
435.966	2711
436.039	1968
436.112	2565
436.185	821
436.258	392
436.331	388
436.404	1216
436.477	902
436.550	1305
436.623	1080
436.696	609
436.769	633
436.842	921
436.915	670
436.987	1005
437.060	1091
437.133	688
437.206	-158
437.279	1378
437.352	915
437.425	866
437.498	344
437.570	1664
437.643	1588
437.716	478
437.789	429
437.861	1166
437.934	268
438.007	535
438.080	635
438.152	1173
438.225	1761
438.298	9043
438.370	23259
438.443	9777
438.516	1762
438.588	794
438.661	393
438.734	1562
438.806	720
438.879	955
438.951	484
439.024	1466
439.096	197
439.169	309
439.241	99
439.314	116
439.386	-144
439.459	1420
439.531	925
439.604	690
439.676	400
439.749	991
439.821	689
439.893	388
439.966	613
440.038	590
440.110	1136
440.183	151
440.255	33
440.327	1828
440.400	4067
440.472	14348
440.544	9961
440.617	2738
440.689	2135
440.761	2035
440.833	1008
440.905	851
440.978	378
441.050	875
441.122	850
441.194	1390
441.266	1093
441.338	1406
441.411	1674
441.483	5294
441.555	7337
441.627	1985
441.699	1027
441.771	1048
441.843	842
441.915	1210
441.987	1393
442.059	2347
442.131	1612
442.203	2659
442.275	3336
442.347	6232
442.419	13171
442.491	55240
442.563	115850
442.635	52105
442.706	12416
442.778	6930
442.850	2783
442.922	3656
442.994	2761
443.066	3751
443.137	4870
443.209	6059
443.281	9790
443.353	21343
443.425	64814
443.496	164207
443.568	180258
443.640	83809
443.711	20947
443.783	8616
443.855	5592
443.926	4410
443.998	3165
444.070	2668
444.141	2077
444.213	2864
444.285	2497
444.356	2114
444.428	1899
444.499	1424
444.571	2258
444.642	2378
444.714	1697
444.785	2186
444.857	2806
444.928	3151
445.000	3426
445.071	5299
445.143	5682
445.214	9991
445.285	15901
445.357	38864
445.428	115086
445.500	196577
445.571	171986
445.642	118404
445.714	43470
445.785	14923
445.856	6444
445.928	5643
445.999	3776
446.070	2397
446.141	3239
446.213	4139
446.284	1638
446.355	1554
446.426	753
446.497	996
446.569	817
446.640	1721
446.711	1124
446.782	1533
446.853	1039
446.924	1200
446.995	248
447.066	954
447.138	925
447.209	728
447.280	118
447.351	725
447.422	855
447.493	865
447.564	328
447.635	339
447.706	663
447.777	661
447.847	294
447.918	-705
447.989	739
448.060	822
448.131	-236
448.202	718
448.273	-211
448.344	838
448.414	751
448.485	-126
448.556	666
448.627	511
448.698	548
448.768	206
448.839	547
448.910	-514
448.981	294
449.051	463
449.122	558
449.193	12
449.263	69
449.334	-135
449.405	484
449.475	1046
449.546	219
449.616	1440
449.687	816
449.758	909
449.828	-580
449.899	104
449.969	86
450.040	767
450.110	235
450.181	666
450.251	-259
450.322	280
450.392	635
450.463	518
450.533	163
450.604	-170
450.674	751
450.744	662
450.815	-93
450.885	767
450.955	811
451.026	1523
451.096	-269
451.166	614
451.237	515
451.307	1606
451.377	1103
451.447	24
451.518	-292
451.588	-443
451.658	-394
451.728	-738
451.799	-299
451.869	-243
451.939	-264
452.009	345
452.079	-282
452.149	999
452.219	216
452.289	1263
452.360	656
452.430	1108
452.500	942
452.570	3040
452.640	7099
452.710	20005
452.780	21379
452.850	11071
452.920	5430
452.990	2779
453.060	1899
453.129	1402
453.199	807
453.269	1206
453.339	654
453.409	107
453.479	-123
453.549	320
453.619	-176
453.688	-41
453.758	818
453.828	421
453.898	6
453.968	456
454.037	-624
454.087	-202
454.107	-33
454.168	-261
454.177	-307
454.247	180
454.249	172
454.316	-195
454.330	-98
454.386	263
454.411	167
454.456	-33
454.492	46
454.525	100
454.574	436
454.595	589
454.655	-8
454.665	-122
454.734	-110
454.736	-83
454.804	754
454.817	534
454.873	-488
454.898	-215
454.943	308
454.979	-54
455.013	-409
455.060	258
455.082	532
455.141	-83
455.152	-201
455.221	1041
455.222	1035
455.291	-110
455.303	81
455.360	836
455.384	1019
455.430	1182
455.465	929
455.499	775
455.546	247
455.569	-33
455.627	563
455.638	683
455.707	220
455.708	228
455.777	-6
455.789	67
455.846	358
455.869	392
455.916	440
455.950	176
455.985	-137
456.031	56
456.054	164
456.112	287
456.124	329
456.193	796
456.193	787
456.262	498
456.274	614
456.332	1163
456.355	905
456.401	490
456.436	663
456.470	753
456.516	602
456.540	536
456.597	582
456.609	568
456.678	727
456.678	720
456.747	-76
456.759	27
456.817	626
456.840	625
456.886	525
456.920	813
456.955	1263
457.001	1477
457.024	1414
457.082	997
457.093	946
457.162	1287
457.163	1296
457.232	1027
457.243	1077
457.301	1133
457.324	1018
457.370	1053
457.405	1549
457.439	1923
457.485	2206
457.508	2354
457.566	2303
457.577	2398
457.646	3121
457.647	3160
457.715	9409
457.727	10708
457.784	19594
457.808	27247
457.853	37247
457.889	43579
457.922	43539
457.969	28017
457.991	26922
458.050	31064
458.060	32050
458.129	59436
458.130	60180
458.198	65196
458.211	58824
458.267	30955
458.292	20891
458.336	12128
458.372	11405
458.405	15355
458.453	23137
458.474	29662
458.533	55699
458.543	57993
458.611	98054
458.614	98520
458.680	64937
458.694	51929
458.749	21837
458.775	15150
458.818	8094
458.855	6065
458.887	4987
458.936	3743
458.955	3353
459.016	3137
459.024	3106
459.093	3548
459.097	3500
459.162	2064
459.177	1992
459.230	2355
459.257	2465
459.299	2473
459.338	2367
459.368	2148
459.418	1627
459.437	1508
459.499	2039
459.505	2090
459.574	1962
459.579	1947
459.643	1658
459.659	1590
459.711	1353
459.740	1695
459.780	2010
459.820	1719
459.849	1664
459.900	2005
459.917	2166
459.981	2119
459.986	2058
460.054	1426
460.061	1416
460.123	2021
460.141	2130
460.191	2277
460.222	2135
460.260	2044
460.302	2731
460.328	2990
460.382	2759
460.397	2889
460.462	4112
460.465	4247
460.534	6857
460.543	7290
460.602	22454
460.623	28456
460.671	44413
460.703	61136
460.739	59564
460.783	48970
460.808	41625
460.864	10608
460.876	7634
460.944	3283
460.945	3231
461.013	2385
461.024	2201
461.081	2175
461.104	2412
461.150	2322
461.184	2194
461.218	2358
461.264	2187
461.286	2075
461.345	2124
461.355	2055
461.423	1504
461.425	1480
461.491	1054
461.505	1229
461.559	2012
461.585	2038
461.628	1992
461.665	2206
461.696	2210
461.745	2042
461.764	2109
461.825	1884
461.832	1903
461.901	2651
461.905	2698
461.969	2188
461.985	1966
462.037	2443
462.065	2888
462.105	2636
462.145	2399
462.173	2384
462.225	2103
462.241	1966
462.305	1581
462.310	1634
462.378	2411
462.385	2449
462.446	1655
462.465	1746
462.514	2626
462.545	2712
462.582	2477
462.625	2609
462.650	2611
462.705	1961
462.718	1860
462.785	1790
462.786	1798
462.854	1875
462.865	1964
462.922	2078
462.945	2039
462.990	1918
463.025	1922
463.058	2192
463.104	2588
463.126	2515
463.184	2140
463.194	2148
463.262	2321
463.264	2319
463.330	1751
463.344	1652
463.398	2329
463.424	2670
463.466	2208
463.504	1776
463.533	2089
463.583	2610
463.601	2643
463.663	2204
463.669	2108
463.737	2043
463.743	1972
463.805	2255
463.823	2358
463.873	2333
463.903	2459
463.940	2512
463.982	2293
464.008	2482
464.062	3080
464.076	3037
464.142	2635
464.144	2640
464.211	2841
464.221	2851
464.279	2966
464.301	3019
464.347	2638
464.381	2274
464.414	2177
464.461	2246
464.482	2300
464.540	2222
464.550	2225
464.617	2241
464.620	2243
464.685	2940
464.699	3057
464.753	2245
464.779	1867
464.820	2147
464.859	2327
464.888	2187
464.938	2018
464.956	2369
465.018	3534
465.023	3507
465.091	3042
465.098	3009
465.158	2182
465.177	1908
465.226	2506
465.257	2803
465.293	2707
465.336	2687
465.361	2676
465.416	2625
465.428	2593
465.495	2388
465.496	2394
465.563	2535
465.575	2620
465.631	2645
465.654	2529
465.698	2568
465.734	2669
465.765	2629
465.813	2560
465.833	2635
465.893	2847
465.900	2863
465.968	2837
465.972	2835
466.035	2476
466.052	2398
466.102	2968
466.131	3238
466.170	2605
466.210	1873
466.237	2036
466.290	2444
466.304	2547
466.369	2898
466.372	2886
466.439	2417
466.449	2339
466.506	2682
466.528	2806
466.573	3134
466.607	3287
466.641	2913
466.687	2539
466.708	2872
466.766	3673
466.775	3703
466.842	3922
466.845	3923
466.909	3122
466.925	2928
466.977	3329
467.004	3544
467.044	3643
467.083	3721
467.111	3363
467.163	2656
467.178	2828
467.242	3536
467.245	3552
467.312	3750
467.321	3772
467.379	3450
467.400	3320
467.446	3366
467.480	3392
467.559	4311
467.638	3447
467.717	3664
467.796	4854
467.875	3298
467.955	3321
468.034	4141
468.113	5147
468.192	5077
468.271	7196
468.350	11306
468.429	16234
468.508	16641
468.588	10221
468.667	6068
468.746	5044
468.825	3957
468.904	3578
468.983	4586
469.062	4266
469.141	4046
469.220	3274
469.299	3791
469.378	2892
469.456	3526
469.535	4039
469.614	2999
469.693	3763
469.772	3643
469.851	3701
469.930	3616
470.009	3937
470.088	3401
470.166	5141
470.245	7507
470.324	9329
470.403	5910
470.482	4095
470.560	4174
470.639	3608
470.718	4228
470.797	2555
470.875	3772
470.954	3906
471.033	3721
471.111	2748
471.190	3518
471.269	2900
471.347	2927
471.426	3247
471.505	2932
471.583	2768
471.662	3893
471.740	3900
471.819	3708
471.898	3323
471.976	3824
472.055	3338
472.133	4789
472.212	5692
472.290	3511
472.369	2904
472.447	3377
472.526	2995
472.604	4308
472.683	3552
472.761	3522
472.839	3876
472.918	3000
472.996	3079
473.075	3109
473.153	4121
473.231	3882
473.310	4231
473.388	4796
473.466	3374
473.545	4148
473.623	3446
473.701	3930
473.780	4504
473.858	3386
473.936	5426
474.014	4005
474.093	5251
474.171	5995
474.249	4686
474.327	3934
474.405	3241
474.484	4131
474.562	2812
474.640	3912
474.718	3535
474.796	3421
474.874	3937
474.952	3913
475.030	3674
475.108	3967
475.187	3550
475.265	4941
475.343	6104
475.421	6096
475.499	3572
475.577	3696
475.655	3116
475.733	3561
475.811	3427
475.889	3277
475.966	3965
476.044	3649
476.122	4232
476.200	5309
476.278	4366
476.356	4463
476.434	3800
476.512	4391
476.590	5537
476.667	4400
476.745	3345
476.823	2396
476.901	3413
476.979	3217
477.056	3809
477.134	2812
477.212	4415
477.290	3438
477.367	3784
477.445	3503
477.523	4233
477.601	4435
477.678	3914
477.756	4470
477.834	3815
477.911	4210
477.989	3973
478.066	3419
478.144	3265
478.222	4757
478.299	7548
478.377	7198
478.454	5116
478.532	3627
478.609	3281
478.687	4656
478.764	3461
478.842	3443
478.919	3166
478.997	4085
479.074	3486
479.152	4204
479.229	3801
479.307	3169
479.384	3149
479.461	3557
479.539	3570
479.616	3982
479.694	4147
479.771	3670
479.848	4179
479.926	2316
480.003	5103
480.080	3641
480.157	4625
480.235	3963
480.312	3805
480.389	3372
480.467	3094
480.544	4328
480.621	4432
480.698	4248
480.775	4525
480.853	4486
480.930	4016
481.007	4373
481.084	6755
481.161	11288
481.238	8287
481.315	4359
481.392	3962
481.470	4952
481.547	3799
481.624	3999
481.701	4061
481.778	4236
481.855	3999
481.932	4934
482.009	4688
482.086	5333
482.163	6381
482.240	7683
482.317	11150
482.393	9424
482.470	5725
482.547	6252
482.624	4658
482.701	4570
482.778	5545
482.855	4236
482.932	5526
483.009	4518
483.085	7068
483.162	9747
483.239	10008
483.316	5575
483.393	7397
483.469	5799
483.546	5480
483.623	5817
483.699	4522
483.776	4294
483.853	4313
483.930	3465
484.006	4035
484.083	5229
484.160	3938
484.236	5392
484.313	5108
484.389	4979
484.466	6059
484.543	6586
484.619	9322
484.696	11785
484.772	7078
484.849	5681
484.925	4420
485.002	5063
485.078	5008
485.155	4171
485.231	4353
485.308	3344
485.384	4429
485.461	4384
485.537	4328
485.614	3973
485.690	3695
485.766	3424
485.843	3955
485.919	4969
485.995	5333
486.072	4043
486.148	3563
486.224	3660
486.301	4727
486.377	3908
486.453	2952
486.530	4705
486.606	4295
486.682	4277
486.758	4719
486.835	4615
486.911	4580
486.987	5948
487.063	8582
487.139	12843
487.215	14188
487.292	12550
487.368	9619
487.444	11486
487.520	17012
487.596	27070
487.672	56269
487.748	183752
487.824	304754
487.900	107335
487.976	26376
488.052	13471
488.128	10072
488.204	7066
488.280	6999
488.356	5527
488.432	5930
488.508	5376
488.584	4685
488.660	4845
488.736	5745
488.812	4333
488.888	4510
488.964	6754
489.039	9860
489.115	14228
489.191	11282
489.267	5421
489.343	3905
489.418	5098
489.494	4676
489.570	3372
489.646	5344
489.722	4571
489.797	4363
489.873	4652
489.949	5224
490.024	3859
490.100	4672
490.176	4201
490.251	3708
490.327	5365
490.403	4451
490.478	4402
490.554	4601
490.629	2885
490.705	3911
490.781	3688
490.856	3714
490.932	3941
491.007	4555
491.083	4128
491.158	4017
491.234	3993
491.309	4974
491.385	3115
491.460	3819
491.536	5324
491.611	3017
491.686	5228
491.762	4934
491.837	7841
491.913	9817
491.988	12673
492.063	16100
492.139	5572
492.214	4916
492.289	3936
492.365	3583
492.440	4153
492.515	3115
492.590	3562
492.666	4189
492.741	3910
492.816	4146
492.891	2714
492.967	3468
493.042	4352
493.117	3592
493.192	4606
493.267	4650
493.342	5883
493.418	7806
493.493	5152
493.568	4237
493.643	3075
493.718	4019
493.793	4859
493.868	4647
493.943	4852
494.018	4105
494.093	4651
494.168	4537
494.243	3475
494.318	4018
494.393	3471
494.468	4274
494.543	4085
494.618	4612
494.693	3556
494.768	4308
494.842	4066
494.917	4554
494.992	3523
495.067	3558
495.142	4276
495.217	4442
495.292	4123
495.366	3827
495.441	3906
495.516	5030
495.591	5613
495.665	12620
495.740	27880
495.815	13377
495.890	4404
495.964	1871
496.039	6338
496.114	6233
496.188	12739
496.263	10799
496.338	4446
496.412	3415
496.487	3808
496.561	5190
496.636	4703
496.710	5284
496.785	5490
496.860	4567
496.934	3483
497.009	4919
497.083	3736
497.158	3471
497.232	4828
497.307	5160
497.381	4958
497.455	4574
497.530	4762
497.604	4633
497.679	4511
497.753	3973
497.827	3334
497.902	3577
497.976	5247
498.050	5070
498.125	4739
498.199	5742
498.273	5652
498.348	5404
498.422	5030
498.496	5720
498.570	6207
498.645	4669
498.719	3203
498.793	4122
498.867	3821
498.941	3802
499.016	4107
499.090	4606
499.164	4416
499.238	4867
499.312	4375
499.386	5527
499.460	5689
499.534	5000
499.609	6096
499.683	4712
499.757	4240
499.831	3859
499.905	4246
499.979	3871
500.053	5042
500.127	4048
500.201	5087
500.275	5445
500.349	5103
500.422	5303
500.496	5448
500.570	7875
500.644	9599
500.718	7049
500.792	4430
500.866	5554
500.940	4097
501.013	3793
501.087	3566
501.161	6073
501.235	4239
501.309	5943
501.382	3834
501.456	5747
501.530	3682
501.603	3673
501.677	3545
501.751	1602
501.825	4840
501.898	3749
501.972	3539
502.046	2712
502.119	2749
502.193	4248
502.266	3390
502.340	4061
502.413	4357
502.487	3191
502.561	3154
502.634	4337
502.708	4482
502.781	3422
502.855	5436
502.928	2787
503.002	4189
503.075	3814
503.149	3999
503.222	4129
503.295	3714
503.369	4656
503.442	3983
503.516	5174
503.589	4647
503.662	4864
503.736	7080
503.809	9379
503.882	10722
503.956	17438
504.029	33395
504.102	105019
504.175	175995
504.249	70178
504.322	22841
504.395	11850
504.468	8885
504.542	5033
504.615	4857
504.688	5990
504.761	3224
504.834	6158
504.907	4266
504.980	6263
505.053	3964
505.127	2472
505.200	6963
505.273	3651
505.346	3722
505.419	1834
505.492	4380
505.565	2980
505.638	3862
505.711	2389
505.784	2577
505.857	2647
505.930	4552
506.003	1955
506.076	4581
506.149	1832
506.221	1815
506.294	4255
506.367	1955
506.440	3379
506.513	4058
506.586	3249
506.659	2934
506.731	3862
506.804	2386
506.877	2747
506.950	4212
507.022	4267
507.095	2431
507.168	3456
507.241	3718
507.313	3161
507.386	1377
507.459	4317
507.531	2943
507.604	2084
507.677	3842
507.749	1874
507.822	3686
507.894	3956
507.967	4991
508.040	2594
508.112	3573
508.185	2440
508.257	2619
508.330	5270
508.402	2733
508.475	3095
508.547	3258
508.620	3235
508.692	2656
508.765	3928
508.837	2481
508.909	3492
508.982	2885
509.054	4123
509.127	2806
509.199	2999
509.271	1699
509.344	2329
509.416	2790
509.488	2728
509.560	3501
509.633	2718
509.705	2355
509.777	2289
509.849	4085
509.922	2387
509.994	2035
510.066	3158
510.138	1226
510.210	4532
510.283	1579
510.355	2998
510.427	3470
510.499	3664
510.571	2795
510.643	2390
510.715	4490
510.787	2546
510.859	4420
510.931	2529
511.003	4723
511.076	3627
511.148	2486
511.219	2066
511.291	3215
511.363	3644
511.435	2743
511.507	2468
511.579	4144
511.651	3805
511.723	2885
511.795	3151
511.867	2725
511.939	3964
512.010	2450
512.082	3777
512.154	2235
512.226	2894
512.298	3534
512.369	2909
512.441	3700
512.513	3819
512.585	1529
512.656	3957
512.728	3527
512.800	3191
512.871	3638
512.943	2734
513.015	2337
513.086	4461
513.158	3524
513.230	2336
513.301	3667
513.373	4805
513.444	3442
513.516	2375
513.588	2267
513.659	3364
513.731	4189
513.802	2550
513.874	6271
513.945	7320
514.016	3486
514.088	3315
514.159	2476
514.231	4283
514.302	3588
514.374	4064
514.445	1899
514.516	5899
514.588	3500
514.659	4431
514.730	2640
514.802	5849
514.873	2440
514.944	5739
515.016	3336
515.087	2896
515.158	3996
515.229	6154
515.301	3224
515.372	4525
515.443	3509
515.514	4091
515.585	3752
515.656	5408
515.728	5576
515.799	3617
515.870	5849
515.941	5842
516.012	4136
516.083	5623
516.154	4768
516.225	6416
516.296	7969
516.367	5995
516.438	6983
516.509	9851
516.580	14147
516.651	41286
516.722	144597
516.793	64840
516.864	13078
516.935	12773
517.006	14687
517.077	16969
517.148	39447
517.219	173647
517.289	280223
517.360	40519
517.431	11759
517.502	8172
517.573	8293
517.643	7556
517.714	7310
517.785	9108
517.856	9588
517.926	13805
517.997	15597
518.068	17600
518.138	23564
518.209	31253
518.280	113732
518.350	423555
518.421	175156
518.492	28692
518.562	22279
518.633	26019
518.703	33402
518.774	74538
518.845	201888
518.915	214098
518.986	62586
519.056	25533
519.127	17700
519.197	15235
519.268	11608
519.338	11113
519.408	8868
519.479	9279
519.549	7941
519.620	8374
519.690	6881
519.760	6028
519.831	6042
519.901	5175
519.971	7109
520.042	7488
520.112	6072
520.182	6963
520.253	6680
520.323	5739
520.393	4661
520.463	7610
520.534	2816
520.604	6957
520.674	5726
520.744	6177
520.814	6445
520.885	7319
520.955	5573
521.025	4321
521.095	5194
521.165	7298
521.235	5312
521.305	5655
521.375	6464
521.445	6626
521.515	6271
521.585	7388
521.655	5579
521.725	7118
521.795	6438
521.865	3057
521.935	7166
522.005	4814
522.075	4145
522.145	7262
522.215	6480
522.285	8181
522.355	6138
522.424	5759
522.494	6516
522.564	6626
522.634	9199
522.704	18075
522.774	9625
522.843	6619
522.913	6734
522.983	7372
523.053	6552
523.122	6522
523.192	6159
523.262	10849
523.331	10870
523.401	6378
523.471	6046
523.540	6468
523.610	4808
523.680	6752
523.749	7922
523.819	8402
523.888	6920
523.958	6345
524.027	7145
524.097	6538
524.166	6126
524.236	5591
524.305	7317
524.375	5476
524.444	5095
524.514	8307
524.583	6511
524.653	6264
524.722	6161
524.791	5263
524.861	7546
524.930	5489
524.999	6031
525.069	7378
525.138	6020
525.207	6026
525.277	8164
525.346	7642
525.415	9406
525.484	8653
525.554	9273
525.623	11736
525.692	16765
525.761	16638
525.830	19619
525.900	23728
525.969	34708
526.038	66202
526.107	126983
526.176	387115
526.245	338446
526.314	96246
526.383	182536
526.452	276476
526.522	354686
526.591	368208
526.660	68067
526.729	37109
526.797	39632
526.867	53642
526.935	166314
527.004	543569
527.073	384937
527.142	55490
527.211	22512
527.280	15295
527.349	13221
527.418	10165
527.487	10346
527.555	6895
527.624	7383
527.693	7603
527.762	9354
527.831	6467
527.899	8929
527.968	7304
528.037	5298
528.106	8360
528.174	7753
528.243	7231
528.312	7470
528.380	7967
528.449	6103
528.518	8931
528.586	5433
528.655	8702
528.723	7877
528.792	6906
528.861	6895
528.929	7603
528.998	9843
529.066	14914
529.135	33710
529.203	31371
529.272	39361
529.340	58596
529.409	50656
529.477	45470
529.545	43973
529.614	48327
529.682	54761
529.751	64629
529.819	64128
529.887	78718
529.956	73474
530.024	68997
530.092	64078
530.161	62531
530.229	64214
530.297	71783
530.365	72595
530.434	71572
530.502	79153
530.570	70471
530.638	60325
530.707	56798
530.775	53643
530.843	52090
530.911	63483
530.979	60513
531.047	70045
531.115	70937
531.183	61937
531.252	59962
531.320	57051
531.388	55053
531.456	62231
531.524	69223
531.592	69674
531.660	82105
531.728	75335
531.796	71433
531.864	69788
531.932	68060
532.000	67512
532.067	74376
532.135	80583
532.203	81513
532.271	87750
532.339	83887
532.407	81217
532.475	79552
532.542	76337
532.610	74556
532.678	79262
532.746	93073
532.814	113524
532.881	94984
532.949	83527
533.017	77314
533.084	74893
533.152	72510
533.220	71044
533.287	71049
533.355	77981
533.423	76265
533.490	80659
533.558	76104
533.625	72957
533.693	68663
533.761	66010
533.828	63782
533.896	62420
533.963	70100
534.031	70662
534.098	75727
534.166	71676
534.233	64286
534.300	63910
534.368	62532
534.435	59482
534.503	59156
534.570	62801
534.637	65767
534.705	69672
534.772	70912
534.840	81821
534.907	199743
534.974	267504
535.041	72953
535.109	52520
535.176	51150
535.243	52570
535.310	52597
535.378	53255
535.445	49100
535.512	47018
535.579	44487
535.646	41856
535.714	42532
535.781	42801
535.848	43760
535.915	44610
535.982	43790
536.049	44419
536.116	41079
536.183	38024
536.250	37279
536.317	36606
536.384	37589
536.451	36022
536.518	38828
536.585	36577
536.652	40752
536.719	39241
536.786	34605
536.853	33979
536.920	34732
536.987	33423
537.053	31254
537.120	44022
537.187	47046
537.254	33850
537.321	33156
537.388	34738
537.454	30193
537.521	29849
537.588	27755
537.654	28910
537.721	28526
537.788	28801
537.855	26607
537.921	28869
537.988	30156
538.055	29556
538.121	24508
538.188	24469
538.254	25082
538.321	25925
538.388	24537
538.454	26072
538.521	25675
538.587	26970
538.654	25571
538.720	26308
538.787	25254
538.853	24682
538.920	22977
538.986	21201
539.053	20637
539.119	22073
539.185	21001
539.252	23158
539.318	24361
539.385	26981
539.451	22275
539.517	22939
539.583	22315
539.650	23203
539.716	30034
539.782	22465
539.849	19030
539.915	20318
539.981	19672
540.047	20353
540.114	21135
540.180	21229
540.246	20384
540.312	21505
540.378	21353
540.444	22699
540.510	22581
540.576	30542
540.643	22204
540.709	17653
540.775	19456
540.841	18224
540.907	17775
540.973	18076
541.039	17676
541.105	18296
541.171	17995
541.237	17934
541.303	19469
541.369	19942
541.435	19359
541.500	20933
541.566	16569
541.632	17003
541.698	16623
541.764	18762
541.830	17408
541.896	15361
541.961	17734
542.027	16295
542.093	18089
542.159	19740
542.224	16734
542.290	18926
542.356	17438
542.421	18044
542.487	17938
542.553	14867
542.618	14705
542.684	15090
542.750	16875
542.815	17623
542.881	17345
542.947	25968
543.012	26505
543.078	16204
543.143	15224
543.209	16245
543.274	14905
543.340	15934
543.405	17482
543.471	22225
543.536	16300
543.602	16076
543.667	14593
543.732	17677
543.798	15868
543.863	16056
543.928	14684
543.994	14753
544.059	15963
544.124	16544
544.190	15578
544.255	17072
544.320	17117
544.386	15883
544.451	18558
544.516	17163
544.581	18114
544.646	20776
544.712	28421
544.777	19510
544.842	17675
544.907	17026
544.972	16708
545.037	17220
545.102	18984
545.168	17989
545.233	19952
545.298	19625
545.363	18323
545.428	19833
545.493	22343
545.558	26360
545.623	22579
545.688	19189
545.753	19517
545.818	21599
545.883	22882
545.947	22726
546.012	23401
546.077	23186
546.142	25894
546.207	24162
546.272	28171
546.337	27779
546.401	29406
546.466	29929
546.531	30230
546.596	33427
546.661	33358
546.725	36213
546.790	37666
546.855	41593
546.919	44466
546.984	50501
547.049	53142
547.113	59970
547.178	66435
547.243	74144
547.307	86579
547.372	97679
547.436	97856
547.501	102224
547.565	111166
547.630	103315
547.695	98177
547.759	98367
547.823	100312
547.888	100920
547.952	104881
548.017	108069
548.081	116101
548.146	111321
548.210	111259
548.274	119821
548.339	120621
548.403	110921
548.468	103557
548.532	100188
548.596	104064
548.660	104546
548.725	111117
548.789	122282
548.853	121032
548.917	115461
548.982	111189
549.046	102501
549.110	91483
549.174	93541
549.238	106557
549.303	118177
549.367	123454
549.431	117725
549.495	109513
549.559	108818
549.623	124348
549.687	139320
549.751	134546
549.815	156096
549.879	164090
549.943	157341
550.007	162747
550.071	165287
550.135	151433
550.199	141550
550.263	139246
550.327	129638
550.391	132285
550.455	147183
550.519	154670
550.582	162404
550.646	182414
550.710	188458
550.774	184529
550.838	184828
550.901	188818
550.965	200110
551.029	204133
551.093	218071
551.156	233360
551.220	250272
551.284	270228
551.347	225581
551.411	199573
551.475	190047
551.538	198296
551.602	190017
551.666	178201
551.729	170607
551.793	165673
551.856	162719
551.920	158830
551.983	159847
552.047	156441
552.110	158926
552.174	159489
552.237	165480
552.301	154310
552.364	147967
552.428	143943
552.491	145655
552.554	149544
552.618	147703
552.681	152251
552.745	146323
552.808	152843
552.871	162775
552.934	154781
552.998	151576
553.061	148184
553.124	142385
553.187	140902
553.251	144798
553.314	144253
553.377	146332
553.440	153680
553.503	160502
553.567	162342
553.630	157587
553.693	155638
553.756	156878
553.819	154709
553.882	148221
553.945	148189
554.008	152218
554.071	149256
554.134	152605
554.197	144312
554.260	140404
554.323	142746
554.386	143099
554.449	149465
554.512	151224
554.575	145216
554.638	144460
554.701	142254
554.764	141998
554.827	136182
554.889	133291
554.952	124514
555.015	122111
555.078	125864
555.141	126024
555.203	122594
555.266	122347
555.329	123103
555.391	118083
555.454	117475
555.517	111520
555.580	107930
555.642	105258
555.705	104255
555.768	102437
555.830	100725
555.893	93974
555.955	92885
556.018	90729
556.080	90716
556.143	92452
556.206	93402
556.268	89673
556.330	89266
556.393	85619
556.455	84371
556.518	81184
556.580	79967
556.643	75597
556.705	74393
556.767	73433
556.830	72458
556.892	72689
556.955	71919
557.017	68885
557.079	68431
557.142	67133
557.204	65517
557.266	65915
557.328	62744
557.391	57072
557.453	56498
557.515	56381
557.577	56851
557.639	57967
557.701	57210
557.764	56425
557.826	56488
557.888	57848
557.950	58268
558.012	63216
558.074	72605
558.136	131374
558.198	302673
558.260	138114
558.322	59564
558.384	58783
558.446	60642
558.508	64566
558.570	71028
558.632	77124
558.694	95407
558.756	138953
558.818	338409
558.880	721341
558.942	345511
559.003	318187
559.065	181853
559.127	73274
559.189	66207
559.251	72644
559.312	94641
559.374	190694
559.436	540579
559.498	328878
559.559	83543
559.621	67069
559.683	73228
559.744	106094
559.806	285774
559.868	453076
559.929	125143
559.991	71196
560.052	104555
560.114	278527
560.176	204377
560.237	158646
560.299	274068
560.360	78088
560.422	33556
560.483	30009
560.545	27474
560.606	27379
560.667	25315
560.729	24263
560.790	24677
560.852	23339
560.913	23315
560.974	22354
561.036	21840
561.097	22205
561.158	21833
561.220	21624
561.281	20811
561.342	20388
561.403	21233
561.465	19826
561.526	22825
561.587	23407
561.648	19091
561.709	18461
561.771	18516
561.832	18961
561.893	18016
561.954	17937
562.015	18024
562.076	16995
562.137	16676
562.198	17672
562.259	18138
562.320	16927
562.381	17707
562.442	18008
562.503	17689
562.564	16124
562.625	15962
562.686	15443
562.747	15393
562.808	16121
562.869	16021
562.930	15826
562.991	15049
563.051	15104
563.112	14601
563.173	14946
563.234	15005
563.294	14961
563.355	14795
563.416	14273
563.477	13977
563.537	15054
563.598	13857
563.659	13879
563.720	13577
563.780	13924
563.841	14994
563.901	14893
563.962	13728
564.023	13712
564.083	13879
564.144	13945
564.204	13328
564.265	13721
564.325	13492
564.386	13223
564.446	12929
564.507	12487
564.567	13071
564.628	13256
564.688	12607
564.749	12416
564.809	12494
564.869	12815
564.930	12198
564.990	13796
565.050	13135
565.111	13755
565.171	12809
565.231	13070
565.292	14022
565.352	12430
565.412	12246
565.472	12469
565.532	13576
565.593	12404
565.653	12723
565.713	12423
565.773	13030
565.833	12779
565.893	14560
565.953	12215
566.013	12366
566.074	12143
566.134	12990
566.194	11358
566.254	12614
566.314	11814
566.374	11580
566.434	11299
566.494	12083
566.554	11993
566.614	12143
566.673	11555
566.733	12824
566.793	13575
566.853	12580
566.913	12082
566.973	12626
567.033	13561
567.092	11922
567.152	12374
567.212	12477
567.272	13241
567.331	13381
567.391	12667
567.451	13915
567.511	13460
567.570	13385
567.630	12690
567.690	13770
567.749	12761
567.809	12517
567.868	12981
567.928	12764
567.988	12030
568.047	13107
568.107	12410
568.166	13159
568.226	12400
568.285	13051
568.345	12477
568.404	13098
568.464	12746
568.523	13260
568.582	13405
568.642	13151
568.701	13610
568.761	11688
568.820	12439
568.879	12944
568.939	12679
568.998	13068
569.057	11442
569.116	12313
569.176	12125
569.235	12055
569.294	13007
569.353	11576
569.413	11870
569.472	11907
569.531	11007
569.590	11701
569.649	11126
569.708	10808
569.767	12789
569.827	12421
569.886	11415
569.945	11881
570.004	12334
570.063	11393
570.122	12642
570.181	12352
570.240	12195
570.299	12525
570.358	12654
570.417	12908
570.475	12401
570.534	13257
570.593	12742
570.652	12671
570.711	12963
570.770	12064
570.829	12649
570.887	12639
570.946	13061
571.005	12575
571.064	13224
571.122	13419
571.181	12479
571.240	12396
571.299	12489
571.357	12858
571.416	11611
571.475	11462
571.533	12338
571.592	12945
571.650	13124
571.709	12303
571.768	14676
571.826	14823
571.885	13820
571.943	12886
572.002	12150
572.060	12040
572.119	11958
572.177	12378
572.236	12789
572.294	12446
572.352	13307
572.411	12926
572.469	11882
572.528	12320
572.586	11904
572.644	11481
572.703	12029
572.761	11785
572.819	10706
572.877	10776
572.936	10758
572.994	11133
573.052	11147
573.110	10483
573.169	10897
573.227	11414
573.285	11841
573.343	11926
573.401	10936
573.459	10828
573.517	10667
573.576	11318
573.634	11495
573.692	11075
573.750	10726
573.808	10451
573.866	10908
573.924	10385
573.982	11073
574.040	10053
574.098	10657
574.155	10441
574.213	10319
574.271	10145
574.329	11291
574.387	9779
574.445	9526
574.503	10539
574.560	9514
574.618	9905
574.676	10348
574.734	9863
574.792	9965
574.849	9510
574.907	9735
574.965	9028
575.022	7316
575.080	8912
575.138	9615
575.195	8931
575.253	8524
575.311	8735
575.368	9510
575.426	8040
575.483	9260
575.541	9520
575.598	9210
575.656	8858
575.713	8573
575.771	9692
575.828	9233
575.886	8773
575.943	8515
576.001	8411
576.058	7690
576.115	7152
576.173	8124
576.230	9329
576.287	8904
576.345	8003
576.402	8643
576.459	8689
576.517	8158
576.574	8334
576.631	7777
576.688	7476
576.746	7945
576.803	7938
576.860	7296
576.917	7872
576.974	9101
577.031	8164
577.089	7807
577.146	7812
577.203	7693
577.260	7886
577.317	7527
577.374	8707
577.431	8605
577.488	7601
577.545	6434
577.602	8733
577.659	7574
577.716	7197
577.773	8481
577.830	7605
577.886	7446
577.943	7990
578.000	7195
578.057	7907
578.114	9150
578.171	8493
578.227	7461
578.284	7402
578.341	8095
578.398	8197
578.454	9055
578.511	8347
578.568	8273
578.625	7468
578.681	8625
578.738	8840
578.794	9029
578.851	8428
578.908	9155
578.964	8039
579.021	9158
579.077	9087
579.134	9443
579.190	10157
579.247	9808
579.303	8399
579.360	8636
579.416	9698
579.473	9764
579.529	9406
579.586	9974
579.642	10294
579.698	10117
579.755	10656
579.811	10076
579.867	10815
579.924	10816
579.980	11143
580.036	11135
580.093	11931
580.149	11273
580.205	11704
580.261	12080
580.317	12310
580.374	12396
580.430	13371
580.486	13229
580.542	13612
580.598	13555
580.619	13721
580.654	14011
580.692	14291
580.710	14429
580.765	14997
580.767	15012
580.823	14568
580.838	14757
580.879	15235
580.911	15846
580.935	16289
580.984	16364
580.991	16373
581.047	16891
581.057	16762
581.103	16185
581.130	16492
581.159	16776
581.203	16919
581.215	16952
581.270	17775
581.276	17781
581.326	17825
581.349	18065
581.382	18331
581.422	18571
581.438	18688
581.494	18479
581.494	18496
581.550	19406
581.567	19647
581.606	20101
581.640	20212
581.661	20251
581.713	21161
581.717	21230
581.773	21386
581.786	21536
581.829	21975
581.859	22466
581.885	22938
581.932	22920
581.940	22876
581.996	25087
582.004	25017
582.052	24515
582.077	24865
582.107	25298
582.150	25485
582.163	25541
582.219	27003
582.223	27013
582.274	26954
582.296	27043
582.330	27088
582.368	28353
582.386	29010
582.441	29584
582.441	29571
582.497	29873
582.514	30255
582.552	31128
582.587	31564
582.608	31852
582.659	33085
582.663	33181
582.719	34571
582.732	35063
582.774	36598
582.805	37181
582.830	37826
582.877	41015
582.885	41652
582.941	46400
582.950	47453
582.996	53820
583.023	58441
583.052	62677
583.095	63198
583.107	62662
583.162	57198
583.168	56751
583.218	52546
583.240	51131
583.273	49346
583.313	47561
583.328	46976
583.384	45169
583.385	45067
583.439	42098
583.458	41433
583.494	40703
583.531	40762
583.549	40740
583.603	39920
583.605	39900
583.660	39427
583.676	39506
583.715	39928
583.748	39865
583.770	39932
583.820	40338
583.825	40383
583.881	41356
583.893	40973
583.936	39519
583.965	40300
583.991	41473
584.038	42606
584.046	42689
584.101	42253
584.110	42399
584.156	43992
584.183	44399
584.211	44554
584.255	45209
584.266	45654
584.321	48929
584.328	49143
584.376	50500
584.400	50648
584.431	50449
584.472	50242
584.486	50752
584.541	54262
584.545	54419
584.596	56274
584.617	56171
584.651	56402
584.689	57364
584.706	57859
584.761	58971
584.762	58928
584.816	60673
584.834	60823
584.871	60767
584.906	60707
584.926	61133
584.978	62696
584.980	62777
585.035	62047
585.051	62068
585.090	63131
585.123	63932
585.145	64466
585.195	64743
585.200	64908
585.254	67424
585.267	67815
585.309	70401
585.340	72258
585.364	74530
585.412	80827
585.419	82123
585.473	93853
585.484	96399
585.528	114833
585.556	131369
585.583	168172
585.628	246412
585.637	277973
585.692	514750
585.700	556442
585.747	690844
585.772	642076
585.801	456227
585.845	212359
585.856	183878
585.910	117635
585.917	110742
585.965	98267
585.989	92625
586.019	90010
586.061	87408
586.074	86760
586.128	82829
586.133	82321
586.183	77995
586.205	75806
586.237	73259
586.277	70391
586.292	69813
586.346	67423
586.349	67168
586.401	65281
586.421	64210
586.455	62666
586.493	60743
586.509	60328
586.564	58286
586.565	58132
586.618	58770
586.637	59180
586.672	62635
586.709	65940
586.727	67177
586.781	70463
586.781	70596
586.835	61459
586.853	59013
586.889	56108
586.925	53244
586.944	53032
586.996	52954
586.998	53086
587.052	52446
587.068	52195
587.106	51801
587.140	51646
587.161	51771
587.212	50627
587.215	50774
587.269	51805
587.284	52107
587.323	53176
587.356	53287
587.377	53397
587.427	54248
587.431	54497
587.485	54752
587.499	54740
587.539	55187
587.571	55649
587.593	56761
587.643	58621
587.648	58844
587.702	58937
587.715	58832
587.755	58918
587.786	58744
587.810	58921
587.858	59094
587.864	59386
587.917	60365
587.930	60304
587.971	60337
588.001	60264
588.025	60100
588.073	59143
588.079	59400
588.133	60412
588.145	60455
588.187	61292
588.217	61422
588.241	62124
588.288	63077
588.295	63370
588.348	64514
588.360	64441
588.402	65215
588.431	65716
588.456	66531
588.503	67739
588.510	68427
588.564	72112
588.575	72700
588.617	76275
588.646	78540
588.671	80573
588.718	83593
588.725	85336
588.778	98887
588.789	101773
588.832	141988
588.861	171546
588.886	238210
588.932	373092
588.939	385609
588.993	475858
589.004	480283
589.047	288878
589.075	167554
589.100	136424
589.147	90844
589.154	89982
589.207	83139
589.218	81385
589.261	82223
589.290	82854
589.314	84629
589.361	87981
589.368	90695
589.421	112032
589.433	116733
589.475	183254
589.504	231763
589.528	299051
589.576	438217
589.582	424678
589.635	251280
589.647	213515
589.689	133748
589.718	83693
589.742	80049
589.790	72635
589.795	72616
589.849	70276
589.861	69517
589.902	69663
589.932	69582
589.955	69424
590.004	67924
590.009	68123
590.062	67786
590.075	67376
590.115	67871
590.146	67943
590.168	68155
590.218	67912
590.222	68266
590.275	69681
590.289	69743
590.328	71823
590.360	72982
590.381	73641
590.431	74283
590.435	74584
590.488	74793
590.503	74581
590.541	75339
590.574	75500
590.594	76726
590.645	78942
590.647	79367
590.700	82417
590.716	83013
590.753	84337
590.787	84896
590.806	86338
590.859	89291
590.859	89658
590.912	90400
590.930	90363
590.965	91643
591.001	92110
591.018	92291
591.071	91734
591.072	91368
591.124	91661
591.143	91268
591.177	91779
591.214	91723
591.230	92885
591.283	95486
591.285	95201
591.336	94299
591.356	93426
591.389	94244
591.427	94358
591.442	94624
591.495	94069
591.498	93650
591.547	94579
591.569	94476
591.600	96254
591.640	97604
591.653	98008
591.706	98071
591.711	97669
591.759	101069
591.782	102237
591.811	105074
591.853	108102
591.864	108637
591.917	109022
591.924	108625
591.969	109570
591.995	109401
592.022	109977
592.066	109756
592.075	110867
592.127	114842
592.137	115098
592.180	116749
592.208	117025
592.233	119351
592.279	122332
592.285	123188
592.338	125983
592.350	126089
592.390	125858
592.421	124747
592.443	127059
592.491	130447
592.495	131135
592.548	132957
592.562	132900
592.600	132881
592.633	131823
592.653	132737
592.704	132909
592.705	133729
592.775	136283
592.846	139728
592.916	141176
592.987	142008
593.058	144637
593.128	145634
593.199	146858
593.270	148617
593.341	151432
593.411	154979
593.482	162289
593.553	167738
593.623	168052
593.694	173888
593.764	175675
593.835	176228
593.906	176398
593.976	182011
594.047	187182
594.117	194852
594.188	200453
594.258	201381
594.329	201647
594.399	207366
594.470	211538
594.540	221165
594.611	223667
594.681	224326
594.751	224210
594.822	232754
594.892	241182
594.963	248069
595.033	255518
595.103	261526
595.174	264717
595.244	270213
595.314	278883
595.384	285618
595.455	292406
595.525	302180
595.595	314794
595.665	315406
595.736	310156
595.806	316389
595.876	321591
595.946	326047
596.016	338837
596.087	350474
596.157	350481
596.227	355108
596.297	370517
596.367	395351
596.437	414466
596.507	414239
596.577	410414
596.647	428226
596.717	449758
596.787	457815
596.857	455927
596.927	461851
596.997	464021
597.067	473897
597.137	481158
597.207	484756
597.277	490160
597.347	475997
597.417	467169
597.487	469427
597.557	480744
597.626	493107
597.696	500438
597.766	500671
597.836	482311
597.906	469306
597.975	464860
598.045	474290
598.115	494795
598.185	521250
598.254	568851
598.324	608701
598.394	620093
598.464	609819
598.533	606212
598.603	579242
598.672	571815
598.742	586057
598.812	593073
598.881	607631
598.951	609757
599.020	622397
599.090	641343
599.159	651272
599.229	641351
599.299	644231
599.368	654998
599.437	657414
599.507	625999
599.576	624675
599.646	622849
599.715	628354
599.785	631055
599.854	626384
599.924	629485
599.993	638170
600.062	651211
600.132	666737
600.201	695564
600.270	760939
600.340	790083
600.409	788326
600.478	794306
600.547	810984
600.617	782800
600.686	716801
600.755	698918
600.824	696288
600.894	699364
600.963	713755
601.032	720776
601.101	725515
601.170	721929
601.239	728071
601.308	740708
601.378	759057
601.447	770357
601.516	785373
601.585	800819
601.654	821542
601.723	836082
601.792	857700
601.861	879394
601.930	916290
601.999	943573
602.068	939515
602.137	940972
602.206	950151
602.275	957046
602.343	962072
602.412	970119
602.481	978579
602.550	980118
602.619	999561
602.688	990540
602.756	1009149
602.825	998259
602.894	1026254
602.963	1014136
603.032	1030525
603.100	1030440
603.169	1004565
603.238	1043165
603.307	1000369
603.375	1008316
603.444	1048860
603.513	979691
603.581	1014311
603.650	1049032
603.719	911482
603.787	886371
603.856	903284
603.924	911890
603.993	935921
604.061	960370
604.130	979994
604.198	996747
604.267	1003231
604.335	1026302
604.404	1027314
604.472	1056947
604.541	1056598
604.609	1087394
604.678	1105885
604.746	1119264
604.815	1161725
604.883	1118431
604.951	1097441
605.020	1117156
605.088	1053527
605.156	1017782
605.225	1020925
605.293	1012728
605.361	1026724
605.429	1008786
605.498	1038274
605.566	1018294
605.634	1062058
605.702	1055204
605.771	1072555
605.839	1088504
605.907	1028047
605.975	1057554
606.043	1012146
606.111	987796
606.180	1056484
606.248	959698
606.316	947697
606.384	1006054
606.452	815701
606.520	728267
606.588	744940
606.656	746867
606.724	733927
606.792	696621
606.860	642180
606.928	596203
606.996	574910
607.064	567048
607.132	583200
607.200	609622
607.267	631973
607.335	639308
607.403	654985
607.471	632919
607.539	619980
607.607	619299
607.674	556036
607.742	553608
607.810	548113
607.878	547788
607.946	556367
608.013	578486
608.081	586052
608.149	588458
608.216	606240
608.284	620467
608.352	614495
608.419	610190
608.487	592733
608.555	577778
608.622	594061
608.690	623454
608.757	666007
608.825	675378
608.893	662907
608.960	624106
609.028	600694
609.095	598812
609.163	597545
609.230	536540
609.298	495284
609.365	526196
609.432	563023
609.500	608543
609.567	688008
609.635	773883
609.702	805160
609.769	765143
609.837	602155
609.904	525156
609.971	535372
610.039	558041
610.106	634301
610.173	901571
610.241	1525213
610.308	1101707
610.375	644819
610.442	571943
610.509	549584
610.577	549799
610.644	559371
610.711	576704
610.778	593130
610.845	614993
610.912	651279
610.980	674219
611.047	674310
611.114	659058
611.181	646971
611.248	642669
611.315	675992
611.382	686664
611.449	712663
611.516	723500
611.583	712395
611.650	712145
611.717	722564
611.784	725492
611.851	744316
611.918	765284
611.984	825693
612.051	957366
612.118	1324136
612.185	2047918
612.252	1686683
612.319	1002328
612.386	897879
612.452	837233
612.519	798831
612.586	783373
612.653	799344
612.719	828223
612.786	795688
612.853	749193
612.919	735324
612.986	747096
613.053	705363
613.120	668628
613.186	646756
613.253	649963
613.319	652399
613.386	654668
613.453	665431
613.519	669000
613.586	656532
613.652	664043
613.719	656453
613.785	669002
613.852	675731
613.918	670028
613.985	676111
614.051	700852
614.118	693821
614.184	669532
614.250	666109
614.317	682985
614.383	674157
614.449	688768
614.516	681292
614.582	686358
614.648	673204
614.715	665546
614.781	655149
614.847	656726
614.914	651940
614.980	635679
615.046	635522
615.112	655574
615.179	655369
615.245	667152
615.311	652434
615.377	666377
615.443	671289
615.509	673669
615.575	692257
615.642	688243
615.708	698305
615.774	720124
615.840	741691
615.906	754631
615.972	816045
616.038	997655
616.104	1488224
616.170	2188952
616.236	2004257
616.302	1207576
616.368	1028824
616.434	836014
616.500	778640
616.565	815998
616.631	952516
616.697	847244
616.763	838140
616.829	1053190
616.895	1570129
616.961	1515661
617.026	906916
617.092	724278
617.158	692280
617.224	680395
617.289	635292
617.355	611248
617.421	604929
617.487	605240
617.552	576673
617.618	573117
617.684	575886
617.749	575340
617.815	553878
617.880	546785
617.946	547692
618.012	557848
618.077	569742
618.143	544534
618.208	548734
618.274	589994
618.339	592545
618.405	501135
618.470	499790
618.536	499377
618.601	491879
618.667	460367
618.732	440560
618.798	437206
618.863	435434
618.928	433930
618.994	439671
619.059	435918
619.124	442070
619.190	438365
619.255	433043
619.320	436225
619.386	441096
619.451	437420
619.516	423115
619.581	428678
619.647	443686
619.712	441536
619.777	422359
619.842	427037
619.907	435156
619.972	443386
620.038	440434
620.103	432575
620.168	433431
620.233	437741
620.298	439243
620.363	444134
620.428	457803
620.493	467302
620.558	471862
620.623	478630
620.688	477041
620.753	475831
620.818	482597
620.883	485607
620.948	485260
621.013	480692
621.078	476622
621.143	480233
621.207	485411
621.272	479687
621.337	465472
621.402	461149
621.467	459461
621.532	456593
621.596	463439
621.661	449541
621.726	446256
621.791	451761
621.855	454218
621.920	450899
621.985	457380
622.049	462699
622.114	466989
622.179	473939
622.243	481169
622.308	493888
622.373	510083
622.437	500165
622.502	480173
622.566	472843
622.631	475717
622.695	481731
622.760	479667
622.824	481084
622.889	483886
622.953	480985
623.018	502760
623.082	509124
623.147	504663
623.211	496500
623.276	493537
623.340	477171
623.404	466873
623.469	467749
623.533	475216
623.597	462873
623.662	458288
623.726	432025
623.790	410646
623.854	405186
623.919	414793
623.983	413360
624.047	416864
624.111	419536
624.176	430798
624.240	433255
624.304	439373
624.368	426830
624.432	424762
624.496	431808
624.560	451628
624.625	456400
624.689	451151
624.753	470338
624.817	447105
624.881	436752
624.945	405805
625.009	395652
625.073	395663
625.137	407939
625.201	424525
625.265	420956
625.329	410178
625.393	413278
625.456	408968
625.520	420297
625.584	428576
625.648	436573
625.712	447337
625.776	437580
625.839	409943
625.903	360919
625.967	340126
626.031	361888
626.095	414455
626.158	387372
626.222	317233
626.286	297809
626.349	288209
626.413	274889
626.477	265455
626.540	269994
626.604	269103
626.668	267283
626.731	262705
626.795	264151
626.858	260158
626.922	252325
626.986	250300
627.049	253189
627.113	263740
627.176	259878
627.240	247020
627.303	244714
627.366	239366
627.430	246907
627.493	242640
627.557	241478
627.620	246811
627.684	248574
627.747	246937
627.810	226806
627.874	209978
627.937	202681
628.000	211236
628.064	204942
628.127	181051
628.190	176992
628.253	172461
628.317	167914
628.380	161687
628.443	157271
628.506	157517
628.569	147492
628.632	140505
628.696	140568
628.759	140126
628.822	132973
628.885	130740
628.948	128336
629.011	127732
629.074	122316
629.137	120919
629.200	118411
629.263	116654
629.326	114536
629.389	114398
629.452	114272
629.515	112050
629.578	111368
629.641	112321
629.704	112307
629.767	109389
629.830	106778
629.892	105149
629.955	104279
630.018	107426
630.081	105113
630.144	105164
630.207	102578
630.269	103272
630.332	99448
630.395	99393
630.458	96604
630.520	92363
630.583	93831
630.646	96824
630.708	95913
630.771	98229
630.834	104858
630.896	100934
630.959	98540
631.021	96477
631.084	97111
631.146	96207
631.209	99429
631.272	97090
631.334	98352
631.397	99494
631.459	97644
631.522	102055
631.584	101784
631.646	107893
631.709	107846
631.771	107799
631.834	103792
631.896	102451
631.958	99080
632.021	97798
632.083	96154
632.145	94532
632.208	93506
632.270	94055
632.332	93179
632.395	92033
632.457	93007
632.519	92605
632.581	92126
632.643	90745
632.706	91399
632.768	89747
632.830	92070
632.892	94879
632.954	93352
633.016	94889
633.078	93711
633.141	94253
633.203	91493
633.265	92223
633.327	91159
633.389	93186
633.451	92753
633.513	92628
633.575	94700
633.637	93075
633.698	94113
633.760	99281
633.822	101046
633.884	100750
633.946	102733
634.008	102760
634.070	104016
634.132	105571
634.193	111423
634.255	119090
634.317	118299
634.379	117305
634.441	110698
634.502	104427
634.564	99606
634.626	93080
634.687	91168
634.749	88321
634.811	88240
634.873	86655
634.934	89074
634.996	90280
635.057	87517
635.119	90529
635.181	91649
635.242	90717
635.304	88788
635.365	94204
635.427	91098
635.488	90722
635.550	88887
635.611	89346
635.673	88200
635.734	92796
635.796	95002
635.857	101274
635.918	102917
635.980	111280
636.041	113699
636.102	120401
636.164	119410
636.225	118085
636.286	104229
636.348	98686
636.409	92082
636.470	89675
636.531	88809
636.593	88100
636.654	84449
636.715	84257
636.776	85323
636.838	82634
636.899	83091
636.960	80848
637.021	81078
637.082	80399
637.143	78524
637.204	76928
637.265	75905
637.326	77572
637.387	80717
637.448	78240
637.509	78926
637.570	78180
637.631	78512
637.692	76368
637.753	75703
637.814	75094
637.875	74621
637.936	76764
637.997	75274
638.058	75566
638.119	74821
638.179	75535
638.240	75506
638.301	77051
638.362	74300
638.423	70954
638.483	71716
638.544	69582
638.605	72466
638.666	72378
638.726	71805
638.787	72553
638.848	72770
638.908	71037
638.969	67692
639.030	67914
639.090	67701
639.151	68800
639.211	68899
639.272	70165
639.332	70074
639.393	70577
639.453	71687
639.514	73597
639.574	68690
639.635	65884
639.695	65075
639.756	62906
639.816	63085
639.877	63902
639.937	65818
639.997	67036
640.058	62513
640.118	64109
640.178	64060
640.239	63202
640.299	63571
640.359	64474
640.420	66802
640.480	71472
640.540	75375
640.600	77920
640.661	73230
640.721	73614
640.781	81190
640.841	82849
640.901	66631
640.961	65331
641.021	66062
641.082	69004
641.142	65667
641.202	65631
641.262	61028
641.322	62961
641.382	61063
641.442	61779
641.502	60658
641.562	62393
641.622	62232
641.682	66094
641.742	68820
641.802	65823
641.861	62131
641.921	60436
641.981	58832
642.041	58335
642.101	57682
642.161	56361
642.221	58583
642.280	58103
642.340	57175
642.400	57021
642.460	59510
642.519	60425
642.579	60518
642.639	60122
642.698	57292
642.758	63373
642.818	60211
642.877	59248
642.937	59219
642.997	60704
643.056	61751
643.116	59453
643.175	61043
643.235	61492
643.294	62581
643.354	64110
643.414	67184
643.473	70463
643.532	78888
643.592	90893
643.651	121782
643.711	178834
643.770	306275
643.830	651906
643.889	1067071
643.948	414602
644.008	133631
644.067	92819
644.126	75995
644.186	68066
644.245	63408
644.304	58289
644.363	61793
644.423	56216
644.482	57637
644.541	60277
644.600	60184
644.659	68251
644.719	77270
644.778	99342
644.837	147988
644.896	275711
644.955	560121
645.014	213842
645.073	81004
645.132	67268
645.191	63791
645.250	61963
645.309	64375
645.368	66628
645.427	82115
645.486	123889
645.545	199615
645.604	76930
645.663	58721
645.722	56836
645.781	59704
645.840	62216
645.898	69744
645.957	84106
646.016	111245
646.075	168952
646.134	292543
646.192	667737
646.251	859129
646.310	239184
646.369	101249
646.427	86705
646.486	70489
646.545	60639
646.603	56721
646.662	53681
646.721	51236
646.779	51004
646.838	53357
646.896	59633
646.955	70810
647.014	99297
647.072	170874
647.131	416787
647.189	210458
647.248	60394
647.306	49913
647.365	47678
647.423	44325
647.481	45946
647.540	42981
647.598	45041
647.657	43434
647.715	44502
647.773	41085
647.832	42564
647.890	39310
647.948	38804
648.007	39117
648.065	38005
648.123	36376
648.181	38199
648.240	36384
648.298	36352
648.356	36413
648.414	36391
648.472	35141
648.531	34986
648.589	33920
648.647	34392
648.705	35607
648.763	34217
648.821	35477
648.879	35804
648.937	38126
648.995	41965
649.053	46392
649.111	59980
649.169	86336
649.227	137969
649.285	267757
649.343	646521
649.401	337908
649.459	78266
649.516	51979
649.574	41772
649.632	43012
649.690	46643
649.748	52541
649.806	70173
649.863	121271
649.921	311957
649.979	207671
650.037	46519
650.094	33953
650.152	33241
650.210	30339
650.268	33178
650.325	34366
650.383	40328
650.440	29299
650.498	28271
650.556	26631
650.613	26199
650.671	27543
650.728	25881
650.786	28760
650.843	35408
650.901	28162
650.958	24446
651.016	23381
651.073	24553
651.131	23994
651.188	23774
651.246	23206
651.303	21980
651.360	22560
651.418	22602
651.475	22128
651.532	20781
651.590	22169
651.647	21275
651.704	21775
651.762	22123
651.819	21283
651.876	21656
651.933	19792
651.990	22074
652.048	20485
652.105	20651
652.162	20409
652.219	19342
652.276	20589
652.333	20271
652.390	18068
652.448	18763
652.505	18605
652.562	19120
652.619	18788
652.676	18892
652.733	19340
652.790	18473
652.847	16901
652.904	19265
652.961	17166
653.017	17154
653.074	17960
653.131	18881
653.188	18269
653.245	18393
653.302	17541
653.359	18409
653.415	17815
653.472	16877
653.529	17734
653.586	17548
653.642	16958
653.699	17946
653.756	16220
653.813	17294
653.869	17967
653.926	17609
653.983	16488
654.039	18051
654.096	17703
654.152	18699
654.209	16191
654.266	17927
654.322	17057
654.379	17357
654.435	17651
654.492	17557
654.548	16884
654.605	18844
654.661	19234
654.717	17132
654.774	17395
654.830	17335
654.887	17327
654.943	18720
655.000	21090
655.056	18884
655.112	16765
655.168	15993
655.225	17448
655.281	17470
655.337	16210
655.394	15659
655.450	16116
655.506	16772
655.562	16638
655.618	16912
655.675	14064
655.731	16980
655.787	15997
655.843	17427
655.899	15411
655.955	17298
656.011	17331
656.067	15969
656.123	15929
656.179	16015
656.235	17357
656.291	16297
656.347	18615
656.403	15967
656.459	16004
656.515	17159
656.571	15625
656.627	15751
656.683	16428
656.739	16826
656.795	16107
656.850	16482
656.906	16752
656.962	18346
657.018	18235
657.074	21513
657.129	25513
657.185	37977
657.241	80192
657.297	47568
657.352	19269
657.408	16498
657.464	17358
657.519	16136
657.575	15680
657.630	15584
657.686	15413
657.742	15084
657.797	15602
657.853	16205
657.908	16651
657.964	14883
658.019	16094
658.075	15238
658.130	15660
658.186	14695
658.241	16187
658.297	14137
658.352	14359
658.407	15184
658.463	13829
658.518	16147
658.573	15684
658.629	14084
658.684	14670
658.739	15375
658.795	14396
658.850	14762
658.905	14699
658.960	15946
659.016	13876
659.071	15448
659.126	14583
659.181	14809
659.236	15009
659.291	16301
659.346	13983
659.401	15899
659.457	15091
659.512	14345
659.567	15528
659.622	15433
659.677	13702
659.732	13318
659.787	14894
659.842	15131
659.897	14817
659.952	14279
660.007	15152
660.061	15018
660.116	12734
660.171	13360
660.226	13522
660.281	15665
660.336	14189
660.391	15297
660.445	13995
660.500	14702
660.555	14180
660.610	14518
660.664	14782
660.719	13484
660.774	14009
660.828	14866
660.883	13891
660.938	14128
660.992	13421
661.047	13945
661.101	12785
661.156	13877
661.211	13165
661.265	14109
661.320	12819
661.374	14828
661.429	13784
661.483	14529
661.538	13021
661.592	15195
661.647	15828
661.701	20693
661.755	15493
661.810	14343
661.864	12810
661.919	13438
661.973	13961
662.027	13616
662.081	13263
662.136	13255
662.190	13549
662.244	14100
662.299	13319
662.353	14602
662.407	12990
662.461	13284
662.515	12948
662.569	12973
662.624	12735
662.678	12548
662.732	12659
662.786	13235
662.840	13085
662.894	13390
662.948	13350
663.002	12619
663.056	13741
663.110	12693
663.164	12850
663.218	13394
663.272	12847
663.326	14268
663.380	12223
663.434	12235
663.488	12336
663.542	12959
663.595	11870
663.649	12391
663.703	12058
663.757	12251
663.811	11363
663.864	12302
663.918	11832
663.972	11734
664.026	11539
664.079	12167
664.133	12833
664.187	13618
664.240	13161
664.294	13819
664.348	12991
664.401	12803
664.455	11944
664.508	11960
664.562	11603
664.615	12728
664.669	11792
664.722	11820
664.776	10877
664.829	12617
664.883	12259
664.936	12363
664.990	12972
665.043	12614
665.097	11339
665.150	12655
665.203	11099
665.257	11579
665.310	12197
665.363	12001
665.417	13154
665.470	13080
665.523	12063
665.576	13286
665.630	11795
665.683	12503
665.736	13288
665.789	12088
665.842	11310
665.895	12121
665.949	11775
666.002	12871
666.055	13245
666.108	13188
666.161	12791
666.214	12841
666.267	12998
666.320	12895
666.373	13581
666.426	13980
666.479	12392
666.532	13902
666.585	12727
666.638	13767
666.691	12752
666.744	13106
666.796	13095
666.849	12852
666.902	13424
666.955	13769
667.008	12371
667.060	13425
667.113	12725
667.166	14243
667.219	14102
667.271	14923
667.324	14418
667.377	13942
667.430	13436
667.482	13880
667.535	13012
667.587	12626
667.640	13439
667.693	13385
667.745	13269
667.798	14965
667.850	12448
667.903	13927
667.955	13442
668.008	12750
668.060	12936
668.113	13492
668.165	12391
668.218	13087
668.270	13384
668.322	12430
668.375	11763
668.427	13238
668.479	12199
668.532	12506
668.584	12353
668.636	12236
668.689	12394
668.741	12096
668.793	12581
668.845	12525
668.898	12799
668.950	12994
669.002	12651
669.054	12676
669.106	11899
669.158	12260
669.211	11653
669.263	11732
669.315	12473
669.367	12087
669.419	10672
669.471	13163
669.523	11236
669.575	12428
669.627	11819
669.679	11629
669.731	12227
669.783	12301
669.835	11590
669.886	11537
669.938	11457
669.990	12343
670.042	11857
670.094	12123
670.146	11788
670.197	12749
670.249	12945
670.301	13011
670.353	15315
670.404	17973
670.456	22051
670.508	28706
670.560	38586
670.611	58308
670.663	91499
670.715	205110
670.766	328858
670.818	110149
670.869	25597
670.921	18148
670.972	15921
671.024	15096
671.075	13540
671.127	12603
671.178	12914
671.230	13926
671.281	13745
671.333	14190
671.384	15422
671.436	19305
671.487	25296
671.538	33130
671.590	48400
671.641	78075
671.692	137059
671.744	248675
671.795	176129
671.846	66724
671.897	34382
671.949	23924
672.000	19447
672.051	16374
672.102	13576
672.153	13201
672.204	11770
672.256	12490
672.307	11110
672.358	11872
672.409	10382
672.460	10946
672.511	9962
672.562	9698
672.613	8832
672.664	9040
672.715	9693
672.766	9109
672.817	8287
672.868	9975
672.919	8820
672.970	8171
673.021	8485
673.071	8477
673.122	8619
673.173	8218
673.224	9122
673.275	9270
673.326	8250
673.376	8758
673.427	8153
673.478	8754
673.528	8780
673.579	8854
673.630	8132
673.680	8650
673.731	7584
673.782	8668
673.832	8435
673.883	8069
673.934	8135
673.984	8562
674.035	8715
674.085	8916
674.136	8714
674.186	8333
674.237	8262
674.287	7947
674.338	8093
674.388	9549
674.438	8064
674.489	8580
674.539	9549
674.589	9056
674.640	7912
674.690	8819
674.740	8868
674.791	8764
674.841	8692
674.891	7746
674.942	8031
674.992	7211
675.042	7313
675.092	6611
675.142	6278
675.193	7399
675.243	7368
675.293	7734
675.343	7492
675.393	8279
675.443	7524
675.493	7533
675.543	7369
675.593	7407
675.643	7550
675.693	7612
675.743	7350
675.793	7162
675.843	6094
675.893	6822
675.943	7537
675.993	6810
676.043	6111
676.093	6315
676.142	6677
676.192	7368
676.242	6375
676.292	7438
676.341	6467
676.391	6992
676.441	6619
676.491	6583
676.540	5578
676.590	6195
676.640	5932
676.689	6279
676.739	5387
676.789	6121
676.838	5857
676.888	7186
676.937	6054
676.987	6318
677.037	6551
677.086	6494
677.136	6155
677.185	6372
677.235	5837
677.284	6533
677.333	5988
677.383	6101
677.432	6033
677.482	5931
677.531	5671
677.580	5898
677.630	5486
677.679	6374
677.728	5807
677.778	6063
677.827	4644
677.876	5635
677.925	5978
677.975	6799
678.024	6947
678.073	6601
678.122	5757
678.171	6786
678.220	7213
678.269	8353
678.319	7363
678.368	8218
678.417	6484
678.466	6476
678.515	6170
678.564	5219
678.613	6098
678.662	5499
678.711	5893
678.760	6977
678.809	6205
678.857	5993
678.906	6206
678.955	6090
679.004	6663
679.053	7403
679.102	7578
679.151	5781
679.199	5874
679.248	6485
679.297	5222
679.346	5786
679.394	4903
679.443	5973
679.492	5449
679.540	6439
679.589	5068
679.638	5737
679.686	5678
679.735	7449
679.784	7224
679.832	8085
679.881	5958
679.929	5896
679.978	6337
680.026	5655
680.075	6548
680.123	5745
680.172	4960
680.220	5682
680.268	5309
680.317	5313
680.365	4297
680.414	5102
680.462	5330
680.510	5729
680.559	5373
680.607	6030
680.655	5019
680.703	6072
680.752	5185
680.800	5529
680.848	4737
680.896	5617
680.945	5191
680.993	4080
681.041	4560
681.089	4905
681.137	4880
681.185	5278
681.233	4637
681.258	4713
681.281	4774
681.329	5310
681.377	5139
681.380	5131
681.425	4788
681.473	6050
681.502	5350
681.521	4844
681.569	6146
681.617	6042
681.624	6019
681.665	5780
681.713	5541
681.745	5547
681.761	5535
681.809	5450
681.857	5215
681.867	5246
681.904	5306
681.952	5967
681.989	5785
682.000	5722
682.048	5303
682.096	5053
682.111	5218
682.143	5497
682.191	5676
682.233	6402
682.239	6504
682.286	5306
682.334	5588
682.354	5698
682.382	5805
682.430	5617
682.476	5128
682.477	5106
682.525	5517
682.572	5751
682.598	6014
682.620	6245
682.667	5937
682.715	6238
682.720	6242
682.763	6093
682.810	5993
682.841	5719
682.857	5572
682.905	5595
682.952	5620
682.963	5641
683.000	5640
683.047	5415
683.085	6199
683.095	6405
683.142	5762
683.190	6271
683.206	5946
683.237	5313
683.284	6195
683.328	5901
683.332	5867
683.379	5620
683.426	5672
683.449	5749
683.473	5835
683.521	6180
683.568	6267
683.571	6254
683.615	5872
683.662	6608
683.693	5848
683.709	5420
683.757	6191
683.804	5937
683.814	5859
683.851	5556
683.898	5786
683.936	6129
683.945	6207
683.992	5448
684.039	6547
684.057	6200
684.086	5606
684.133	6361
684.179	5422
684.180	5382
684.227	5774
684.274	5902
684.300	6149
684.321	6357
684.368	5774
684.415	6497
684.422	6316
684.462	5255
684.509	5806
684.543	6077
684.556	6161
684.603	6624
684.649	6058
684.665	6507
684.696	7376
684.743	6719
684.786	7046
684.790	7056
684.837	6277
684.883	6011
684.908	6164
684.930	6422
684.977	7420
685.023	6430
685.029	6549
685.070	7191
685.117	6956
685.150	7238
685.164	7360
685.210	6029
685.257	7227
685.272	7003
685.303	6468
685.350	6998
685.393	6946
685.396	6949
685.443	5981
685.490	6203
685.514	6734
685.536	7136
685.583	6512
685.629	6606
685.636	6630
685.675	6732
685.722	6935
685.757	6494
685.768	6333
685.815	6801
685.861	6741
685.878	6607
685.908	6537
685.954	6342
686.000	7111
686.000	7117
686.047	7471
686.093	7258
686.121	7245
686.139	7202
686.185	7551
686.232	6790
686.242	6856
686.278	7089
686.324	7179
686.363	7167
686.370	7172
686.416	7146
686.463	7788
686.484	7694
686.509	7577
686.555	6843
686.601	6867
686.606	6920
686.647	7359
686.693	7556
686.727	7375
686.739	7266
686.785	7085
686.831	6566
686.848	6627
686.877	6901
686.923	7108
686.969	7130
686.969	7129
687.015	8034
687.061	7657
687.090	8144
687.107	8395
687.153	8600
687.199	8388
687.211	8095
687.245	7261
687.291	7568
687.332	7744
687.336	7778
687.382	7772
687.428	8240
687.453	8024
687.474	7826
687.520	8309
687.565	8642
687.574	8628
687.611	9021
687.657	10026
687.695	11281
687.702	11554
687.748	13293
687.794	15794
687.816	15217
687.839	13544
687.885	11136
687.931	9475
687.937	9329
687.976	9291
688.022	8323
688.058	8627
688.067	8751
688.113	8454
688.158	8439
688.179	8323
688.204	8289
688.249	8516
688.295	8721
688.300	8730
688.340	8692
688.386	8710
688.421	7835
688.431	7609
688.477	8461
688.522	7986
688.542	8237
688.567	8701
688.613	9074
688.658	9187
688.663	9232
688.703	9284
688.749	8912
688.784	8554
688.794	8542
688.839	9398
688.884	9162
688.905	9358
688.930	9381
688.975	8899
689.020	8745
689.026	8686
689.065	8753
689.110	9118
689.146	9701
689.155	9797
689.201	10707
689.246	10055
689.267	9938
689.291	9540
689.336	9160
689.381	8797
689.388	8585
689.426	8097
689.471	9197
689.509	8796
689.516	8736
689.561	9185
689.606	9237
689.630	9516
689.651	9588
689.696	9125
689.741	9085
689.750	9091
689.785	9536
689.830	9682
689.871	9874
689.875	9856
689.920	9822
689.965	9951
689.992	9755
690.010	9709
690.054	9405
690.099	9633
690.112	9545
690.144	9486
690.189	9767
690.233	9607
690.233	9614
690.278	9829
690.323	9157
690.354	9330
690.367	9526
690.412	10262
690.457	9522
690.474	9675
690.501	9663
690.546	9510
690.590	9553
690.595	9499
690.635	9224
690.680	8793
690.716	8635
690.724	8674
690.769	8559
690.813	9078
690.836	9296
690.857	9600
690.902	10349
690.946	10437
690.957	10526
690.991	10566
691.035	10228
691.077	10160
691.080	10167
691.124	10276
691.168	10428
691.198	10037
691.213	9785
691.257	9699
691.301	9466
691.318	9359
691.346	9460
691.390	9262
691.434	9662
691.439	9606
691.478	9480
691.522	10506
691.559	10111
691.567	10000
691.611	10448
691.655	10483
691.680	10626
691.699	10845
691.743	10688
691.787	10716
691.800	10792
691.831	10832
691.875	10726
691.919	10822
691.921	10801
691.964	10570
692.008	10445
692.041	10284
692.052	10322
692.096	10270
692.139	10579
692.162	10457
692.183	10230
692.227	10278
692.271	10088
692.282	10036
692.315	10036
692.359	10053
692.402	10088
692.403	10104
692.447	9945
692.490	10068
692.523	10165
692.534	10261
692.578	10494
692.622	10027
692.643	10385
692.666	10623
692.709	10414
692.753	10060
692.763	10034
692.797	10274
692.840	10337
692.884	10433
692.884	10452
692.928	10839
692.971	11098
693.004	11241
693.015	11172
693.059	10390
693.102	10325
693.124	10008
693.146	10058
693.189	10571
693.233	10486
693.245	10654
693.276	10854
693.320	10527
693.363	10462
693.365	10431
693.407	10511
693.450	11036
693.485	10947
693.493	10897
693.537	11352
693.580	11035
693.605	11048
693.624	11092
693.667	10846
693.710	11007
693.725	10940
693.753	11023
693.797	11401
693.840	11609
693.845	11596
693.883	11361
693.926	11255
693.966	11419
693.970	11464
694.013	11085
694.056	11062
694.086	10954
694.099	10968
694.142	11124
694.185	11190
694.206	11207
694.229	11416
694.272	11580
694.315	12048
694.326	12126
694.358	12141
694.401	12052
694.444	11923
694.446	11899
694.487	11997
694.530	11779
694.566	11938
694.573	11979
694.616	11738
694.659	11698
694.686	11648
694.702	11671
694.745	11848
694.787	11651
694.806	11668
694.830	11764
694.873	11708
694.916	11670
694.926	11576
694.959	11677
695.002	12489
695.044	12692
695.046	12691
695.087	13046
695.130	13021
695.166	13122
695.172	13194
695.215	13623
695.258	13901
695.286	14115
695.301	14107
695.343	14037
695.386	13662
695.406	13676
695.428	14386
695.471	15320
695.514	16585
695.526	16918
695.556	17761
695.599	18867
695.641	19674
695.646	19737
695.684	18947
695.726	17926
695.766	17062
695.769	17062
695.811	16506
695.854	16084
695.886	15652
695.896	15760
695.938	16065
695.981	16490
696.005	16695
696.023	17235
696.065	18381
696.108	19658
696.125	20136
696.150	20177
696.192	20255
696.235	19939
696.245	19883
696.277	20088
696.319	20369
696.361	20598
696.365	20560
696.404	20238
696.446	20076
696.485	19724
696.488	19777
696.530	20195
696.572	20439
696.604	20587
696.614	20562
696.656	20233
696.698	19877
696.724	19698
696.740	19960
696.783	20353
696.825	20925
696.844	21133
696.867	21078
696.909	20760
696.951	20590
696.964	20501
696.992	21166
697.034	21869
697.076	22727
697.083	22824
697.118	22908
697.160	23029
697.202	22944
697.203	22896
697.244	22649
697.286	22366
697.323	21935
697.327	21992
697.369	22238
697.411	22538
697.442	22602
697.453	22640
697.494	22603
697.536	22648
697.562	22567
697.578	22798
697.620	23364
697.661	23868
697.682	24148
697.703	24590
697.744	25267
697.786	25883
697.801	26060
697.828	25922
697.869	25628
697.911	25243
697.921	25132
697.952	24954
697.994	24485
698.035	24160
698.040	24053
698.077	24431
698.118	24957
698.160	25332
698.160	25277
698.201	26017
698.243	26718
698.279	27305
698.284	27414
698.325	27816
698.367	28250
698.399	28507
698.408	28493
698.449	28152
698.491	27828
698.518	27525
698.532	27718
698.573	28144
698.614	28589
698.638	28766
698.656	28965
698.697	29312
698.738	29612
698.757	29700
698.779	29490
698.820	28966
698.862	28434
698.877	28174
698.903	28545
698.944	29047
698.985	29543
698.996	29618
699.026	29588
699.067	29455
699.116	29234
699.235	29252
699.354	28566
699.474	26648
699.593	27068
699.713	26756
699.832	28189
699.951	29805
700.070	27967
700.190	27505
700.309	24868
700.428	25905
700.547	24522
700.667	25919
700.786	24368
700.905	24879
701.024	25466
701.143	24742
701.262	25976
701.381	26937
701.500	26739
701.619	25732
701.738	26921
701.857	27225
701.976	24241
702.095	25819
702.214	25776
702.333	26523
702.452	26003
702.571	26820
702.690	26209
702.809	26517
702.928	24577
703.047	23797
703.165	25681
703.284	23048
703.403	25813
703.522	24326
703.640	22567
703.759	21903
703.878	21675
703.997	23574
704.115	23911
704.234	24615
704.353	23828
704.471	21399
704.590	22507
704.708	21115
704.827	21737
704.946	20963
705.064	22008
705.183	21805
705.301	22714
705.420	22003
705.538	21695
705.656	19537
705.775	18986
705.893	21260
706.012	20288
706.130	21324
706.249	22599
706.367	19185
706.485	20391
706.604	19776
706.722	21040
706.840	25791
706.958	38994
707.077	23739
707.195	19966
707.313	19382
707.431	19300
707.549	19127
707.668	18635
707.786	20065
707.904	17839
708.022	20680
708.140	18398
708.258	17946
708.376	20023
708.494	17812
708.612	19203
708.730	18977
708.848	18285
708.966	19234
709.084	19119
709.202	19330
709.320	16997
709.438	18145
709.556	17802
709.674	16782
709.791	17203
709.909	17815
710.027	18139
710.145	16480
710.263	16521
710.380	17112
710.498	16728
710.616	16354
710.733	16057
710.851	16180
710.969	17023
711.086	16257
711.204	16107
711.322	17329
711.439	15951
711.557	15218
711.674	16012
711.792	15360
711.909	15697
712.027	15845
712.144	15260
712.262	15338
712.379	16864
712.497	15914
712.614	15385
712.732	16294
712.849	14856
712.966	16252
713.084	16046
713.201	14034
713.318	17231
713.436	16799
713.553	14791
713.670	15595
713.787	15781
713.905	15937
714.022	17094
714.139	16806
714.256	19351
714.373	28402
714.490	52901
714.608	142940
714.725	563258
714.842	382378
714.959	39317
715.076	22281
715.193	20577
715.310	18309
715.427	15530
715.544	16246
715.661	15450
715.778	14169
715.895	15227
716.011	14428
716.128	15005
716.245	14045
716.362	13752
716.479	12635
716.596	14489
716.713	14660
716.829	14022
716.946	13537
717.063	12411
717.180	12944
717.296	13462
717.413	13296
717.530	13115
717.646	11836
717.763	12445
717.880	12499
717.996	11445
718.113	13260
718.229	12257
718.346	11202
718.462	11339
718.579	12957
718.695	12284
718.812	12149
718.928	12666
719.045	11965
719.161	11282
719.277	12649
719.394	13161
719.510	13395
719.626	13097
719.743	17031
719.859	25751
719.975	56584
720.092	230247
720.208	357449
720.324	37337
720.440	15915
720.557	13605
720.673	14164
720.789	11890
720.905	12132
721.021	11851
721.137	10419
721.253	10694
721.369	10115
721.486	11653
721.602	9600
721.718	11197
721.834	10400
721.950	11084
722.066	10866
722.181	10366
722.297	11039
722.413	10598
722.529	11052
722.645	10244
722.761	9861
722.877	10441
722.993	12213
723.108	12580
723.224	11968
723.340	11061
723.456	9656
723.571	10071
723.687	9794
723.803	10548
723.918	10849
724.034	9908
724.150	9813
724.265	10056
724.381	9736
724.497	8880
724.612	10798
724.728	10440
724.843	8898
724.959	9538
725.074	10027
725.190	9811
725.305	9710
725.421	9815
725.536	10034
725.651	9901
725.767	9824
725.882	10114
725.997	8891
726.113	10249
726.228	9512
726.343	9050
726.459	8995
726.574	9490
726.689	9386
726.804	9073
726.920	8977
727.035	9509
727.150	9739
727.265	9678
727.380	10207
727.495	11124
727.610	9568
727.725	9263
727.841	10063
727.956	9666
728.071	8876
728.186	9003
728.301	9186
728.416	9744
728.531	9799
728.645	8235
728.760	9491
728.875	9605
728.990	9285
729.105	7946
729.220	9297
729.335	9560
729.449	9034
729.564	9893
729.679	10273
729.794	9851
729.908	8769
730.023	10041
730.138	10403
730.253	10214
730.367	9532
730.482	9368
730.596	10608
730.711	12560
730.826	18335
730.940	18044
731.055	12647
731.169	12981
731.284	12334
731.398	12330
731.513	12937
731.627	14591
731.742	19467
731.856	21777
731.970	20845
732.085	23968
732.199	31564
732.313	53615
732.428	142211
732.542	390018
732.656	160921
732.771	38871
732.885	28530
732.999	30531
733.113	32925
733.227	30992
733.342	31274
733.456	30000
733.570	28826
733.684	28090
733.798	26607
733.912	28609
734.026	27787
734.140	27855
734.254	25416
734.368	26520
734.482	26239
734.596	26149
734.710	25434
734.824	25786
734.938	26252
735.052	24716
735.166	25497
735.280	24410
735.393	24205
735.507	24292
735.621	23369
735.735	23442
735.849	24436
735.962	22957
736.076	24485
736.190	23146
736.303	23640
736.417	23063
736.531	22138
736.644	22930
736.758	23644
736.872	22073
736.985	23397
737.099	21685
737.212	22369
737.326	20411
737.439	22780
737.553	20490
737.666	20888
737.780	20492
737.893	21278
738.007	21861
738.120	21036
738.233	21009
738.347	20313
738.460	20774
738.573	21164
738.687	20398
738.800	20608
738.913	21064
739.026	19993
739.140	20148
739.253	20114
739.366	20139
739.479	19826
739.592	19183
739.705	17995
739.818	20646
739.932	17142
740.045	20543
740.158	18466
740.271	20276
740.384	17329
740.497	17321
740.610	18875
740.723	17019
740.836	17477
740.949	18144
741.062	19458
741.174	17399
741.287	18607
741.400	17516
741.513	16988
741.626	18960
741.739	16311
741.851	17622
741.964	18579
742.077	16045
742.189	15933
742.302	17668
742.415	16268
742.527	16846
742.640	15871
742.753	13982
742.865	17123
742.978	15557
743.090	14656
743.203	16562
743.316	14601
743.428	16065
743.541	15634
743.653	13930
743.766	17148
743.878	14874
743.990	13892
744.103	16429
744.215	13860
744.327	14380
744.440	18092
744.552	14086
744.664	13848
744.777	17209
744.889	13322
745.001	13723
745.113	15692
745.226	13218
745.338	13596
745.450	15814
745.562	12731
745.674	13929
745.786	15131
745.898	13743
746.010	13547
746.122	15323
746.234	14720
746.347	14598
746.459	12415
746.570	11565
746.682	15209
746.794	14470
746.906	10808
747.018	13350
747.130	14501
747.242	12199
747.354	13711
747.466	13321
747.577	11824
747.689	13288
747.801	13438
747.913	11942
748.024	12386
748.136	12377
748.248	12126
748.359	12226
748.471	13401
748.583	10768
748.694	10980
748.806	13333
748.918	11359
749.029	11697
749.141	12736
749.252	12027
749.364	11784
749.475	11777
749.587	10684
749.698	10919
749.809	11454
749.921	12394
750.032	11006
750.144	11465
750.255	10536
750.366	10642
750.478	11195
750.589	10693
750.700	10495
750.811	11892
750.923	9983
751.034	10424
751.145	12119
751.256	10292
751.367	10494
751.479	10189
751.590	10212
751.701	9762
751.812	9220
751.923	9235
752.034	12078
752.145	10067
752.256	10440
752.367	10058
752.478	9842
752.589	11259
752.700	10045
752.811	9400
752.922	10663
753.032	10675
753.143	11030
753.254	9397
753.365	9609
753.476	11215
753.586	10038
753.697	10375
753.808	8909
753.919	9722
754.029	9577
754.140	8874
754.251	10552
754.361	9883
754.472	11071
754.582	8867
754.693	8764
754.804	9730
754.914	7752
755.025	7989
755.135	10912
755.246	11200
755.356	8467
755.466	8286
755.577	9407
755.687	9558
755.798	9175
755.908	9211
756.018	8958
756.129	9118
756.239	9817
756.349	9030
756.460	8977
756.570	9685
756.680	10033
756.790	9266
756.900	9294
757.011	8999
757.121	8576
757.231	9309
757.341	8460
757.451	8123
757.561	6859
757.671	8680
757.781	8337
757.891	8086
758.001	7598
758.111	8955
758.221	9714
758.331	8160
758.441	7717
758.551	7905
758.661	9141
758.771	8114
758.880	8274
758.990	8296
759.100	8338
759.210	8007
759.320	8548
759.429	8420
759.539	7891
759.649	7749
759.758	10226
759.868	10105
759.978	9373
760.087	10100
760.197	9991
760.307	8809
760.416	9527
760.526	8480
760.635	9971
760.745	10152
760.854	10161
760.964	11045
761.073	10520
761.182	10575
761.292	8728
761.401	9105
761.511	8623
761.620	8279
761.729	8253
761.839	8072
761.948	7539
762.057	7749
762.166	7443
762.276	6550
762.385	8083
762.494	6580
762.603	7533
762.712	8116
762.822	7692
762.931	7371
763.040	6083
763.149	7093
763.258	7490
763.367	6786
763.476	7349
763.585	6732
763.694	6074
763.803	7483
763.912	6997
764.021	6871
764.130	6703
764.238	8263
764.347	7637
764.456	7604
764.565	5884
764.674	6481
764.783	6565
764.891	7197
765.000	7682
765.109	6539
765.217	6275
765.326	6846
765.435	7810
765.543	8837
765.652	7720
765.761	7815
765.869	10767
765.978	13742
766.086	21021
766.195	41008
766.303	120060
766.412	339937
766.520	172217
766.629	30612
766.737	15325
766.846	12145
766.954	9992
767.062	9366
767.171	8254
767.279	8543
767.387	7318
767.496	7268
767.604	7055
767.712	7330
767.820	6680
767.928	6962
768.037	5903
768.145	6781
768.253	7543
768.361	6772
768.469	6047
768.577	6077
768.685	7403
768.793	7532
768.901	6688
769.009	6830
769.117	7435
769.225	8114
769.333	9909
769.441	13255
769.549	20878
769.657	45481
769.765	160069
769.873	242874
769.981	42565
770.088	14310
770.196	11321
770.304	11575
770.412	11140
770.519	9555
770.627	10252
770.735	8643
770.842	9629
770.950	9622
771.058	10636
771.165	13511
771.273	13704
771.380	13557
771.488	21698
771.595	20656
771.703	18498
771.810	18050
771.918	19929
772.025	24440
772.133	26015
772.240	24814
772.348	28981
772.455	26059
772.562	24398
772.670	23976
772.777	24853
772.884	22688
772.991	23154
773.099	23539
773.206	22711
773.313	22276
773.420	22228
773.528	22848
773.635	20961
773.742	22933
773.849	21092
773.956	21514
774.063	21224
774.170	21056
774.277	22424
774.384	20158
774.491	20144
774.598	20699
774.705	20476
774.812	20630
774.919	20455
775.026	19905
775.133	20885
775.239	19054
775.346	18855
775.453	20476
775.560	17236
775.667	21538
775.773	17248
775.880	19125
775.987	18174
776.093	21215
776.200	19065
776.307	15855
776.413	17806
776.520	21714
776.627	16069
776.733	16578
776.840	16611
776.946	22001
777.053	16563
777.159	16898
777.266	14959
777.372	17257
777.478	19752
777.585	15945
777.691	15299
777.798	18073
777.904	14079
778.010	16697
778.117	16849
778.223	16423
778.329	16295
778.435	15597
778.542	16827
778.648	14843
778.754	14574
778.860	17341
778.966	15283
779.072	14698
779.178	14384
779.284	12132
779.391	16026
779.497	14291
779.603	16129
779.708	12564
779.815	14085
779.920	17204
780.026	15473
780.132	15793
780.238	12881
780.344	13976
780.450	17425
780.556	10466
780.661	13683
780.767	13726
780.873	10073
780.979	14864
781.085	14018
781.190	12452
781.296	11931
781.402	14478
781.507	12288
781.613	10573
781.719	14087
781.824	13923
781.930	11364
782.035	14358
782.141	12767
782.246	9051
782.352	12494
782.457	12908
782.563	13550
782.668	12139
782.773	10495
782.879	9879
782.984	13556
783.090	11593
783.195	12878
783.300	11731
783.405	10509
783.511	10137
783.616	11518
783.721	12492
783.826	9183
783.932	10518
784.037	11088
784.142	12149
784.247	10264
784.352	11693
784.457	8409
784.562	12961
784.667	11717
784.772	8155
784.877	8884
784.982	12547
785.087	10482
785.192	8509
785.297	10262
785.402	10980
785.507	9926
785.611	9121
785.716	8727
785.821	11187
785.926	10642
786.031	8935
786.135	10283
786.240	10850
786.345	7263
786.450	9066
786.554	9567
786.659	8167
786.763	9019
786.868	9727
786.973	10833
787.077	8658
787.182	7232
787.286	11360
787.391	9918
787.495	6163
787.600	7086
787.704	8658
787.809	9462
787.913	8157
788.017	9762
788.122	9719
788.226	7334
788.330	5806
788.435	9597
788.539	9532
788.643	6681
788.747	6689
788.852	8442
788.956	7678
789.060	9788
789.164	9040
789.268	8967
789.372	8409
789.476	7534
789.580	5887
789.684	7667
789.788	9603
789.892	7515
789.996	5700
790.100	6198
790.204	8419
790.308	9599
790.412	5659
790.516	5468
790.620	7550
790.724	8735
790.828	6980
790.931	4764
791.035	8720
791.139	7223
791.242	6869
791.346	7508
791.450	8356
791.554	6512
791.657	4741
791.761	7245
791.864	8214
791.968	8789
792.072	6761
792.175	6063
792.279	5815
792.382	6516
792.486	6040
792.589	6284
792.693	7337
792.796	4770
792.899	7107
793.003	6933
793.106	5822
793.209	5489
793.313	5439
793.416	3592
793.519	6523
793.623	8663
793.726	6163
793.829	3952
793.932	4095
794.035	5790
794.138	8066
794.242	7381
794.345	4178
794.448	4512
794.551	4914
794.654	8528
794.757	7839
794.860	5648
794.963	6229
795.066	4805
795.169	7077
795.272	5807
795.375	6480
795.477	3973
795.580	4514
795.683	4427
795.786	6944
795.889	4123
795.991	5551
796.094	6108
796.197	4400
796.300	6810
796.402	4940
796.505	4123
796.608	3740
796.710	5283
796.813	6687
796.915	5361
797.018	4905
797.120	5205
797.223	4013
797.326	6683
797.428	4197
797.530	3925
797.633	4139
797.735	6221
797.838	5455
797.940	6320
798.042	4987
798.145	4368
798.247	3880
798.349	2945
798.452	5731
798.554	5342
798.656	4272
798.758	6150
798.860	4710
798.962	4054
799.065	4084
799.167	3648
799.269	5200
799.371	5589
799.473	6176
799.575	4589
799.677	3056
799.779	5489
799.881	3888
799.983	4971
800.085	4108
800.187	4896
800.289	2554
800.390	4072
800.492	4864
800.594	5003
800.696	3397
800.798	3713
800.899	4393
801.001	4652
801.103	4314
801.205	4183
801.306	4410
801.408	3153
801.509	4384
801.611	4754
801.713	5398
801.814	2454
801.916	3613
802.017	2740
802.119	2815
802.220	4386
802.322	3125
802.423	4823
802.525	1641
802.626	3629
802.727	4284
802.829	4482
802.930	1319
803.031	4772
803.133	3082
803.234	3552
803.335	3753
803.436	2591
803.538	3656
803.639	2016
803.740	4345
803.841	3507
803.942	4459
804.043	3359
804.144	1539
804.245	3797
804.346	3045
804.447	3206
804.548	3583
804.649	3385
804.750	2907
804.851	3339
804.952	2837
805.053	2896
805.154	2594
805.255	4053
805.355	3398
805.456	3112
805.557	2221
805.658	2936
805.758	3688
805.859	2990
805.960	2924
806.061	2424
806.161	2723
806.262	2895
806.362	2208
806.463	3053
806.564	3958
806.664	2556
806.765	2030
806.865	2683
806.966	2839
807.066	1329
807.166	3138
807.267	3194
807.367	2593
807.468	3389
807.568	1274
807.668	4273
807.769	2958
807.869	2075
807.969	3392
808.069	3660
808.170	3130
808.270	3209
808.370	3245
808.470	3176
808.570	2806
808.670	2037
808.770	3745
808.870	2067
808.970	3019
809.070	1964
809.170	2349
809.271	3986
809.370	2523
809.470	3042
809.570	1724
809.670	1828
809.770	2592
809.870	3269
809.970	3583
810.070	3022
810.169	3175
810.269	649
810.369	3893
810.469	2964
810.568	2337
810.668	2053
810.768	2299
810.867	2549
810.967	2857
811.066	2202
811.166	2578
811.265	4178
811.365	1884
811.464	2938
811.564	2685
811.663	3068
811.763	2000
811.862	3630
811.962	2630
812.061	3018
812.160	2071
812.260	2763
812.359	2742
812.458	3721
812.557	3423
812.657	2266
812.756	2268
812.855	2567
812.954	1409
813.053	3025
813.153	2616
813.252	1572
813.351	2715
813.450	3140
813.549	1666
813.648	2579
813.747	2667
813.846	3445
813.945	3180
814.044	3118
814.143	3100
814.242	3659
814.341	2449
814.439	3134
814.538	3448
814.637	3727
814.736	3140
814.835	4673
814.933	3813
815.032	6401
815.131	8409
815.229	16942
815.328	17689
815.427	12844
815.525	11998
815.624	10239
815.722	11512
815.821	11857
815.919	12497
816.018	11274
816.116	12015
816.215	11450
816.313	12955
816.412	15900
816.510	15421
816.609	17153
816.707	17413
816.805	14363
816.904	14706
817.002	13700
817.100	14756
817.198	16498
817.296	12760
817.395	14688
817.493	13588
817.591	13592
817.689	14064
817.787	14127
817.885	13210
817.983	13272
818.081	14048
818.179	16241
818.277	19080
818.375	15552
818.473	12329
818.571	11814
818.669	14597
818.767	13325
818.865	11945
818.963	11319
819.061	12909
819.158	13730
819.256	16129
819.354	16835
819.452	21728
819.549	14239
819.647	14044
819.745	10011
819.842	11812
819.940	11654
820.038	10762
820.135	10635
820.233	13631
820.330	9888
820.428	10390
820.525	12337
820.623	9824
820.720	9633
820.818	11129
820.915	10835
821.012	10099
821.110	8897
821.207	11250
821.304	9962
821.402	10272
821.499	9945
821.596	8514
821.693	10585
821.791	10833
821.888	10552
821.985	10577
822.082	7371
822.179	10351
822.276	9656
822.373	7407
822.470	9607
822.567	9275
822.664	7763
822.761	9892
822.858	9582
822.955	9206
823.052	7852
823.149	10032
823.246	9439
823.343	7031
823.440	7686
823.536	10161
823.633	8546
823.730	7642
823.827	9810
823.923	7326
824.020	9393
824.117	9344
824.213	7463
824.310	6757
824.407	6304
824.503	9608
824.600	6653
824.696	7541
824.793	8923
824.889	9641
824.986	7006
825.082	5881
825.179	6689
825.275	10020
825.371	8950
825.468	5423
825.564	4575
825.660	10562
825.757	9044
825.853	6584
825.949	5624
826.045	6644
826.142	8444
826.238	6806
826.334	8426
826.430	6318
826.526	4153
826.622	4759
826.718	9061
826.814	8385
826.910	5214
827.006	4122
827.102	4616
827.198	7640
827.294	8313
827.390	7146
827.486	4524
827.582	4076
827.678	5204
827.774	7984
827.869	3676
827.965	5449
828.061	5029
828.157	8266
828.252	7067
828.348	5678
828.444	4979
828.539	5542
828.635	5198
828.731	5797
828.826	5452
828.922	5530
829.017	7288
829.113	6463
829.208	4436
829.304	4420
829.399	8100
829.495	4928
829.590	5367
829.685	5773
829.781	7615
829.876	4954
829.971	2011
830.066	3713
830.162	6192
830.257	7132
830.352	4369
830.447	4293
830.543	4428
830.638	5597
830.733	6215
830.828	4308
830.923	4813
831.018	5840
831.113	6334
831.208	2441
831.303	3127
831.398	3126
831.493	5942
831.588	7738
831.683	2710
831.778	2265
831.873	4528
831.967	6557
832.062	6027
832.157	3904
832.252	4031
832.346	4111
832.441	5573
832.536	4677
832.631	5261
832.725	3320
832.820	4339
832.914	4724
833.009	3533
833.104	2661
833.198	4325
833.293	4478
833.387	5298
833.482	3894
833.576	4064
833.670	3429
833.765	4267
833.859	4889
833.954	5097
834.048	3887
834.142	3415
834.237	2966
834.331	4509
834.425	4342
834.519	4064
834.613	3676
834.708	2483
834.802	3411
834.896	3139
834.990	3919
835.084	2760
835.178	2862
835.272	4068
835.366	5705
835.460	4624
835.554	2595
835.648	2231
835.742	2079
835.836	2278
835.930	2829
836.024	4027
836.117	4122
836.211	2497
836.305	2275
836.399	2925
836.493	2589
836.586	3353
836.680	3225
836.774	3160
836.867	3119
836.961	1958
837.055	1648
837.148	2020
837.242	3563
837.335	3262
837.429	3291
837.522	3167
837.616	2651
837.709	2577
837.803	2911
837.896	4106
837.989	2508
838.083	2771
838.176	1526
838.269	1961
838.363	3244
838.456	1594
838.549	3830
838.642	2901
838.735	3366
838.829	4316
838.922	2382
839.015	2716
839.108	1810
839.201	3094
839.294	3227
839.387	2261
839.480	1751
839.573	1537
839.666	1923
839.759	2425
839.852	1642
839.945	4272
840.038	1553
840.131	1539
840.223	1944
840.316	2922
840.409	2795
840.502	2959
840.594	3755
840.687	822
840.780	1606
840.873	1109
840.965	969
841.058	3997
841.150	1898
841.243	689
841.336	2845
841.428	700
841.521	2161
841.613	601
841.706	2384
841.798	1611
841.890	2493
841.983	1034
842.075	1932
842.167	1672
842.260	2372
842.352	2542
842.444	1832
842.537	1274
842.629	961
842.721	1270
842.813	3069
842.905	1073
842.997	2577
843.090	2036
843.182	1979
843.274	589
843.366	1704
843.458	1883
843.550	2216
843.642	1633
843.734	2456
843.826	653
843.918	1560
844.009	2575
844.101	1703
844.193	1822
844.285	1868
844.377	1875
844.469	1122
844.560	9
844.652	1267
844.744	1561
844.835	1557
844.927	1777
845.019	1411
845.110	1934
845.202	2154
845.293	871
845.385	1438
845.476	1687
845.568	2969
845.659	778
845.751	1373
845.842	1320
845.934	1413
846.025	480
846.116	1686
846.208	1835
846.299	825
846.390	733
846.482	916
846.573	2788
846.664	1596
846.755	1164
846.846	1818
846.937	-857
847.029	1658
847.120	1502
847.211	821
847.302	2229
847.393	1150
847.484	1458
847.575	836
847.666	519
847.757	262
847.847	1186
847.938	2633
848.029	2162
848.120	608
848.211	121
848.302	705
848.392	1454
848.483	2037
848.574	1046
848.664	1161
848.755	535
848.846	1266
848.936	946
849.027	1442
849.118	703
849.208	898
849.299	2672
849.389	2486
849.480	5012
849.570	10971
849.661	19406
849.751	31616
849.841	9383
849.932	2364
850.022	1101
850.112	1294
850.203	1207
850.293	283
850.383	627
850.474	104
850.564	614
850.654	927
850.744	939
850.834	834
850.924	1046
851.014	1899
851.104	1068
851.194	562
851.284	537
851.374	1331
851.464	1125
851.554	371
851.644	1693
851.734	1960
851.824	1229
851.914	232
852.004	1842
852.094	185
852.183	-312
852.273	1476
852.363	1376
852.452	1833
852.542	1462
852.632	1288
852.721	1676
852.811	1140
852.901	1694
852.990	1676
853.080	1231
853.169	1580
853.259	1067
853.348	869
853.438	1180
853.527	2442
853.617	2865
853.706	6473
853.795	11473
853.885	24635
853.974	44777
854.063	80596
854.152	109999
854.242	38510
854.331	9168
854.420	4939
854.509	2947
854.598	2248
854.687	2790
854.777	1330
854.866	637
854.955	2094
855.044	1206
855.133	1390
855.222	1478
855.311	550
855.400	733
855.488	431
855.577	1093
855.666	111
855.755	1062
855.844	1364
855.933	617
856.021	593
856.110	615
856.199	-889
856.288	325
856.376	998
856.465	374
856.554	272
856.642	1086
856.731	1611
856.819	1060
856.908	430
856.996	481
857.085	687
857.173	205
857.262	-270
857.350	1390
857.438	659
857.527	634
857.615	184
857.703	1068
857.792	-81
857.880	771
857.968	203
858.056	252
858.145	612
858.233	433
858.321	341
858.409	856
858.497	809
858.585	-135
858.673	1085
858.761	297
858.849	872
858.937	-331
859.025	699
859.113	1766
859.201	393
859.289	882
859.377	736
859.465	1347
859.552	238
859.640	888
859.728	863
859.816	986
859.903	905
859.991	116
860.079	1061
860.166	625
860.254	71
860.342	1065
860.429	858
860.517	389
860.604	859
860.692	1037
860.779	187
860.867	699
860.954	776
861.042	1235
861.129	1582
861.216	1560
861.304	538
861.391	2077
861.478	696
861.565	941
861.653	1548
861.740	905
861.827	1067
861.914	674
862.001	1103
862.089	1157
862.176	477
862.263	241
862.350	903
862.437	813
862.524	580
862.611	796
862.698	228
862.785	761
862.871	1997
862.958	1509
863.045	949
863.132	1815
863.219	1553
863.306	676
863.392	676
863.479	1394
863.566	1603
863.652	1634
863.739	502
863.826	2283
863.912	1812
863.999	1507
864.086	1857
864.172	1863
864.259	2322
864.345	2819
864.432	1859
864.518	2098
864.604	2141
864.691	1852
864.777	3187
864.863	4056
864.950	5896
865.036	7881
865.122	13772
865.209	12112
865.295	10899
865.381	10542
865.467	9733
865.553	10265
865.639	10514
865.726	12671
865.812	20412
865.898	30668
865.984	41504
866.070	71584
866.156	68911
866.242	24059
866.328	12388
866.414	8847
866.499	9860
866.585	9090
866.671	8841
866.757	8952
866.843	9104
866.928	9055
867.014	7832
867.100	8713
867.186	8582
867.271	8069
867.357	8549
867.442	7531
867.528	7814
867.614	8227
867.699	7941
867.785	7491
867.870	7535
867.956	7833
868.041	6915
868.127	7588
868.212	7562
868.297	7841
868.383	7409
868.468	7093
868.553	8042
868.639	7777
868.724	8208
868.809	8571
868.894	6638
868.979	7822
869.065	7387
869.150	5812
869.235	6998
869.320	6580
869.405	5945
869.490	7371
869.575	6376
869.660	5148
869.745	8510
869.830	6311
869.915	6244
870.000	6646
870.085	5869
870.169	7779
870.254	7627
870.339	4606
870.424	6079
870.509	6523
870.593	7863
870.678	7262
870.763	5615
870.847	5615
870.932	6612
871.016	6341
871.101	3856
871.186	7278
871.270	7225
871.355	4302
871.439	6296
871.523	6796
871.608	4185
871.692	5750
871.777	6910
871.861	6433
871.945	5410
872.030	6008
872.114	5841
872.198	5174
872.282	5284
872.367	4583
872.451	4961
872.535	6450
872.619	5500
872.703	5121
872.787	5494
872.871	5457
872.955	4069
873.039	2743
873.123	5992
873.207	4845
873.291	3468
873.375	4452
873.459	5383
873.543	4979
873.627	4016
873.711	3411
873.794	5784
873.878	4113
873.962	3160
874.045	4755
874.129	4748
874.137	4746
874.213	4731
874.245	4163
874.296	3249
874.352	3599
874.380	3774
874.460	4040
874.464	4051
874.547	4325
874.568	4436
874.631	4777
874.676	4587
874.714	4434
874.784	4481
874.798	4492
874.881	4261
874.892	4093
874.965	2907
874.999	3754
875.048	4951
875.107	3992
875.131	3607
875.215	2792
875.215	2792
875.298	3510
875.323	3767
875.381	4378
875.430	5263
875.465	5897
875.538	4529
875.548	4331
875.631	2955
875.646	2941
875.714	2953
875.753	3095
875.798	3310
875.861	4111
875.881	4324
875.964	2684
875.968	2700
876.047	3133
876.076	3325
876.130	3581
876.183	3834
876.213	4004
876.291	3609
876.296	3579
876.379	3098
876.398	3028
876.462	2783
876.506	2486
876.545	2325
876.613	3330
876.628	3491
876.711	2929
876.721	3032
876.794	3876
876.828	3361
876.877	2722
876.935	2951
876.960	3007
877.043	3400
877.043	3402
877.125	3568
877.150	3719
877.208	4085
877.258	2948
877.291	2170
877.365	2113
877.374	2097
877.456	2034
877.472	2018
877.539	2032
877.579	2828
877.622	3585
877.687	3479
877.704	3462
877.787	2992
877.794	3012
877.869	3296
877.901	2939
877.952	2287
878.008	1846
878.034	1683
878.115	2125
878.117	2133
878.199	2275
878.222	2460
878.282	2875
878.329	3347
878.364	3626
878.437	2569
878.447	2425
878.529	1847
878.544	1738
878.611	1356
878.651	1848
878.694	2336
878.758	2481
878.776	2530
878.858	3198
878.865	3103
878.941	1798
878.972	1597
879.023	1284
879.078	1645
879.105	1951
879.185	2523
879.187	2525
879.269	2490
879.292	2441
879.351	2417
879.399	1992
879.433	1646
879.506	2118
879.516	2186
879.598	1271
879.613	1298
879.680	1509
879.720	2259
879.762	2855
879.827	1590
879.844	1337
879.926	1852
879.933	1897
880.007	2132
880.040	1876
880.089	1382
880.147	1983
880.171	2389
880.253	2758
880.254	2761
880.335	2225
880.360	2388
880.417	3128
880.467	3481
880.499	3790
880.574	4133
880.580	4102
880.662	2778
880.680	2537
880.744	1633
880.787	1494
880.825	1451
880.893	1330
880.907	1341
880.989	1716
881.000	1777
881.070	2210
881.106	2003
881.152	1485
881.213	1048
881.233	1009
881.315	1548
881.319	1556
881.396	1783
881.426	1993
881.478	2177
881.532	2188
881.559	2147
881.639	1148
881.641	1127
881.722	1888
881.745	1820
881.803	1711
881.852	1512
881.885	1233
881.958	1084
881.966	1101
882.047	1090
882.064	1068
882.129	965
882.171	969
882.210	791
882.277	767
882.291	916
882.372	2502
882.383	2517
882.454	1787
882.489	1515
882.535	1342
882.596	1716
882.616	1821
882.697	952
882.702	943
882.778	1199
882.808	1348
882.859	1141
882.914	1143
882.940	1286
883.020	1515
883.021	1511
883.102	1537
883.127	1396
883.183	1617
883.233	1654
883.264	1403
883.339	806
883.345	757
883.426	359
883.445	409
883.507	746
883.551	903
883.587	1186
883.657	1408
883.668	1400
883.749	1588
883.763	1508
883.830	1078
883.869	1187
883.910	1140
883.975	1117
883.991	1177
884.072	1239
884.081	1262
884.152	1486
884.187	1664
884.233	1872
884.292	1546
884.314	1264
884.394	63
884.398	44
884.475	142
884.504	94
884.555	209
884.610	601
884.636	729
884.716	1074
884.716	1074
884.797	1620
884.821	1574
884.877	1614
884.927	1735
884.958	1373
885.033	922
885.038	925
885.118	682
885.139	710
885.199	890
885.244	908
885.279	1026
885.350	1678
885.359	1698
885.439	1329
885.456	1193
885.520	768
885.561	602
885.600	469
885.667	729
885.680	804
885.760	767
885.773	800
885.840	839
885.878	822
885.920	787
885.984	758
886.000	730
886.080	527
886.089	538
886.160	973
886.195	1006
886.240	656
886.300	366
886.320	521
886.400	1135
886.406	1175
886.480	937
886.511	837
886.560	1004
886.616	1106
886.640	978
886.720	809
886.722	805
886.800	805
886.827	798
886.879	825
886.932	720
886.959	978
887.038	1825
887.039	1819
887.119	1247
887.143	1053
887.198	966
887.248	919
887.278	813
887.354	672
887.358	675
887.437	513
887.459	561
887.517	673
887.564	598
887.596	467
887.669	288
887.676	295
887.755	480
887.774	532
887.835	443
887.880	322
887.914	233
887.985	154
887.994	242
888.073	943
888.090	1104
888.153	812
888.195	575
888.232	610
888.300	747
888.311	695
888.391	330
888.405	270
888.470	65
888.510	-82
888.549	179
888.615	752
888.628	703
888.708	286
888.720	227
888.787	180
888.825	128
888.866	43
888.930	49
888.945	131
889.024	576
889.035	629
889.103	609
889.140	593
889.182	679
889.245	900
889.261	906
889.340	910
889.349	912
889.419	349
889.454	68
889.498	60
889.559	93
889.577	248
889.656	942
889.664	1018
889.735	1198
889.768	1284
889.814	977
889.873	574
889.978	847
890.083	226
890.187	466
890.292	1031
890.397	161
890.501	711
890.606	205
890.710	625
890.815	229
890.919	579
891.024	359
891.128	-230
891.233	-117
891.337	1048
891.442	371
891.546	100
891.650	886
891.755	875
891.859	1261
891.963	877
892.068	276
892.172	325
892.276	94
892.380	-68
892.484	1024
892.589	1042
892.693	633
892.797	-23
892.901	228
893.005	130
893.109	528
893.213	1066
893.317	520
893.421	99
893.525	-470
893.629	-367
893.733	747
893.837	-507
893.941	24
894.045	212
894.148	137
894.252	247
894.356	757
894.460	1508
894.564	567
894.667	136
894.771	479
894.875	82
894.978	79
895.082	-99
895.186	806
895.289	479
895.393	757
895.496	908
895.600	438
895.703	-433
895.807	-296
895.910	881
896.014	-230
896.117	-135
896.221	229
896.324	199
896.427	-178
896.531	-287
896.634	-189
896.737	-5
896.840	332
896.944	547
897.047	157
897.150	715
897.253	-773
897.356	-462
897.460	162
897.563	-84
897.666	756
897.769	288
897.872	-59
897.975	-102
898.078	244
898.181	-523
898.284	-125
898.387	9
898.490	270
898.593	49
898.695	-53
898.798	-330
898.901	440
899.004	123
899.107	599
899.209	-26
899.312	874
899.415	-25
899.518	-86
899.620	-517
899.723	129
899.826	-75
899.928	-182
900.031	-10
900.133	457
900.236	-536
900.338	-142
900.441	742
900.543	221
900.646	-37
900.748	551
900.851	-684
900.953	58
901.055	-176
901.158	-203
901.260	-570
901.362	-641
901.465	-280
901.567	755
901.669	-196
901.771	-336
901.873	535
901.976	296
902.078	-47
902.180	-993
902.282	189
902.384	-622
902.486	-164
902.588	-198
902.690	-185
902.792	395
902.894	247
902.996	-891
903.098	-495
903.200	-203
903.302	-613
903.404	821
903.505	-348
903.607	-771
903.709	653
903.811	245
903.913	545
904.014	-396
904.116	-954
904.218	-948
904.319	315
904.421	320
904.523	-331
904.624	-901
904.726	-53
904.827	-229
904.929	-691
905.030	-923
905.132	-317
905.233	480
905.335	-842
905.436	94
905.537	-694
905.639	-280
905.740	-267
905.841	-6
905.943	454
906.044	-311
906.145	-454
906.247	-611
906.348	-301
906.449	107
906.550	-625
906.651	-18
906.752	7
906.854	-396
906.955	-139
907.056	-396
907.157	86
907.258	-250
907.359	-654
907.460	9
907.561	-349
907.662	-387
907.762	-854
907.863	310
907.964	-157
908.065	-228
908.166	-270
908.267	-652
908.367	-360
908.468	407
908.569	-256
908.670	783
908.770	274
908.871	157
908.971	-826
909.072	-599
909.173	-973
909.273	-311
909.374	42
909.474	-15
909.575	-230
909.675	139
909.776	183
909.876	-735
909.977	187
910.077	-237
910.177	-126
910.278	-798
910.378	-844
910.478	-755
910.579	292
910.679	119
910.779	34
910.879	-417
910.980	277
911.080	151
911.180	-273
911.280	-1005
911.380	-554
911.480	-269
911.580	-489
911.680	-732
911.780	-7
911.880	481
911.980	-902
912.080	-65
912.180	-38
912.280	-84
912.380	173
912.480	-837
912.580	-673
912.679	327
912.779	-42
912.879	19
912.979	-57
913.078	-771
913.178	-64
913.278	-455
913.377	-588
913.477	-382
913.577	-1139
913.676	710
913.776	-188
913.875	520
913.975	292
914.074	-722
914.174	-158
914.273	-1494
914.373	-233
914.472	-206
914.572	122
914.671	-483
914.770	-877
914.870	-94
914.969	-381
915.068	498
915.167	-134
915.267	813
915.366	-991
915.465	-354
915.564	-365
915.663	-244
915.763	198
915.862	90
915.961	-1214
916.060	-193
916.159	-812
916.258	-952
916.357	-494
916.456	414
916.555	-575
916.654	-892
916.752	274
916.851	-1074
916.950	-463
917.049	-1118
917.148	-1020
917.247	223
917.345	-424
917.444	-1094
917.543	-537
917.642	-484
917.740	-244
917.839	-263
917.937	-360
918.036	-59
918.135	-286
918.233	-395
918.332	-642
918.430	-536
918.529	209
918.627	-812
918.726	-591
918.824	-422
918.923	-390
919.021	-1003
919.119	-553
919.218	-126
919.316	-548
919.414	-568
919.512	538
919.611	-144
919.709	-252
919.807	-72
919.905	-86
920.003	-672
920.102	-178
920.200	-211
920.298	617
920.396	321
920.494	-81
920.592	548
920.690	466
920.788	76
920.886	-333
920.984	39
921.082	-638
921.180	314
921.277	117
921.375	564
921.473	717
921.571	651
921.669	-46
921.766	268
921.864	340
921.962	-76
922.060	272
922.157	554
922.255	394
922.352	455
922.450	1103
922.548	451
922.645	684
922.743	1327
922.840	2823
922.938	3651
923.035	2263
923.133	2257
923.230	2984
923.327	3907
923.425	3308
923.522	3056
923.619	2819
923.717	3032
923.814	2122
923.911	2041
924.008	2993
924.106	2300
924.203	2020
924.300	2072
924.397	2374
924.494	2971
924.591	1993
924.688	2287
924.786	2141
924.883	2396
924.979	2616
925.077	2737
925.173	2578
925.270	1994
925.367	2195
925.464	1918
925.561	2949
925.658	2388
925.755	2924
925.852	3190
925.948	2234
926.045	2134
926.142	1909
926.239	1918
926.335	1527
926.432	2307
926.529	2412
926.625	2599
926.722	1015
926.818	2897
926.915	1640
927.011	2445
927.108	2497
927.204	1360
927.301	1250
927.397	1996
927.494	1856
927.590	1166
927.687	1581
927.783	2729
927.879	1530
927.976	1935
928.072	1352
928.168	1520
928.264	1905
928.361	1778
928.457	1785
928.553	1656
928.649	1300
928.745	2246
928.841	1920
928.937	1477
929.033	1331
929.129	1362
929.225	2062
929.321	1234
929.417	1335
929.513	1631
929.609	1404
929.705	1446
929.801	1317
929.897	1399
929.993	1794
930.089	1216
930.184	1725
930.280	1732
930.376	1816
930.471	608
930.567	1029
930.663	331
930.758	1170
930.854	1417
930.950	878
931.045	507
931.141	1383
931.236	2552
931.332	893
931.427	569
931.523	1779
931.618	1197
931.714	526
931.809	1337
931.905	1482
932.000	1601
932.095	320
932.191	1363
932.286	1782
932.381	648
932.476	664
932.572	1315
932.667	401
932.762	1201
932.857	1322
932.952	1570
933.047	1207
933.142	1329
933.237	1000
933.332	1214
933.427	1912
933.522	380
933.617	393
933.712	1398
933.807	1511
933.902	1654
933.997	1763
934.092	-223
934.187	359
934.282	1351
934.376	1827
934.471	1388
934.566	393
934.661	1241
934.755	659
934.850	1413
934.945	435
935.039	117
935.134	-18
935.228	1023
935.323	1978
935.417	1497
935.512	905
935.606	-282
935.701	835
935.795	904
935.890	1247
935.984	1173
936.079	-673
936.173	300
936.267	367
936.362	154
936.456	-110
936.550	829
936.644	604
936.738	-556
936.833	865
936.927	326
937.021	184
937.115	738
937.209	-337
937.303	560
937.397	829
937.491	535
937.585	796
937.679	798
937.773	1216
937.867	113
937.961	983
938.055	1122
938.149	535
938.243	119
938.337	-316
938.430	505
938.524	482
938.618	142
938.712	376
938.805	154
938.899	264
938.993	746
939.086	-526
939.180	-213
939.274	-187
939.367	1586
939.461	871
939.554	-816
939.648	-548
939.741	-227
939.835	783
939.928	797
940.022	607
940.115	600
940.208	678
940.302	1226
940.395	520
940.488	-576
940.582	795
940.675	-504
940.768	1117
940.861	622
940.954	1372
941.048	10
941.141	-168
941.234	59
941.327	463
941.420	852
941.513	772
941.606	-353
941.699	306
941.792	1232
941.885	-15
941.978	899
942.071	22
942.164	245
942.257	179
942.349	769
942.442	262
942.535	-644
942.628	557
942.721	254
942.813	-145
942.906	829
942.999	468
943.091	-129
943.184	42
943.277	-109
943.369	-477
943.462	-164
943.554	43
943.647	330
943.739	286
943.832	460
943.924	-732
944.017	-131
944.109	-192
944.201	-512
944.294	316
944.386	-135
944.478	-767
944.571	43
944.663	-128
944.755	400
944.847	-43
944.940	134
945.032	-826
945.124	-308
945.216	957
945.308	191
945.400	382
945.492	38
945.584	324
945.676	717
945.768	-202
945.860	455
945.952	-70
946.044	445
946.136	-90
946.228	-646
946.320	-149
946.412	-325
946.503	249
946.595	919
946.687	-419
946.779	-589
946.870	-602
946.962	-338
947.054	62
947.145	559
947.237	-243
947.329	-283
947.420	-148
947.512	39
947.603	-475
947.695	-233
947.786	-650
947.878	-143
947.969	-167
948.061	1
948.152	-349
948.243	306
948.335	-624
948.426	-1061
948.517	-695
948.609	50
948.700	-594
948.791	84
948.882	-539
948.973	-213
949.065	-247
949.156	-533
949.247	-1077
949.338	-193
949.429	-1309
949.520	-162
949.611	-1252
949.702	247
949.793	71
949.884	316
949.975	-426
950.066	113
950.157	-626
950.247	47
950.338	-455
950.429	-24
950.520	107
950.611	-1446
950.701	-33
950.792	193
950.883	191
950.973	-525
951.064	-667
951.155	-974
951.245	226
951.336	-170
951.427	16
951.517	845
951.608	267
951.698	-1256
951.788	-539
951.879	-842
951.969	-269
952.060	-1120
952.150	-512
952.240	573
952.331	-828
952.421	450
952.511	-582
952.602	5
952.692	-993
952.782	-234
952.872	-285
952.962	-434
953.052	-1294
953.143	-349
953.233	41
953.323	73
953.413	-268
953.503	333
953.593	465
953.683	182
953.773	-1702
953.863	-455
953.953	91
954.042	-99
954.132	-962
954.222	-162
954.312	-434
954.402	-22
954.492	-397
954.581	-257
954.671	-375
954.761	-14
954.850	600
954.940	-1009
955.030	-1102
955.119	-910
955.209	-953
955.298	-961
955.388	-613
955.477	464
955.567	-992
955.656	-162
955.746	-411
955.835	-120
955.925	-1209
956.014	-543
956.103	-705
956.193	-151
956.282	-629
956.371	56
956.461	-737
956.550	-389
956.639	-417
956.728	-1063
956.817	213
956.906	-1292
956.995	54
957.085	-1420
957.174	-270
957.263	-767
957.352	-381
957.441	-23
957.530	-931
957.619	-349
957.708	-645
957.796	-626
957.885	-707
957.974	-986
958.063	-553
958.152	-1350
958.241	-152
958.329	-97
958.418	-1192
958.507	-1244
958.596	63
958.684	-1260
958.773	244
958.861	-337
958.950	-751
959.039	95
959.127	-492
959.216	257
959.304	-575
959.393	-1285
959.481	90
959.570	132
959.658	-192
959.746	-1017
959.835	-410
959.923	-1467
960.011	-967
960.100	125
960.188	-802
960.276	98
960.365	-990
960.453	-640
960.541	-2476
960.629	4
960.717	-1768
960.805	-1646
960.893	21
960.981	-661
961.069	1075
961.158	-996
961.245	210
961.333	-271
961.421	-777
961.509	-433
961.597	-311
961.685	-959
961.773	-694
961.861	-1407
961.949	466
962.036	-1005
962.124	399
962.212	-445
962.299	-1513
962.387	-496
962.475	-1258
962.562	-1218
962.650	-750
962.738	-1698
962.825	-1403
962.913	-917
963.000	-821
963.088	-413
963.175	-531
963.263	-396
963.350	-627
963.438	-533
963.525	-1364
963.612	-224
963.700	-1561
963.787	-752
963.874	-695
963.962	-93
964.049	-1374
964.136	-1199
964.223	-1136
964.310	-333
964.398	-689
964.485	-1591
964.572	-792
964.659	-510
964.746	-1119
964.833	-471
964.920	-1091
965.007	-364
965.094	-1296
965.181	-1545
965.268	-1128
965.355	-318
965.441	-442
965.528	-1899
965.615	348
965.702	-386
965.789	-965
965.875	156
965.962	-524
966.049	-1434
966.136	-149
966.222	-689
966.309	-304
966.395	-1339
966.482	-335
966.569	-449
966.655	-1422
966.742	-1449
966.828	-665
966.915	-977
967.001	-887
967.087	-1222
967.174	-1712
967.260	-1174
967.347	-1169
967.433	-909
967.519	-552
967.605	-860
967.692	-636
967.778	-418
967.864	-1138
967.950	-803
968.036	-1383
968.123	-1221
968.209	-1104
968.295	-1634
968.381	204
968.467	-817
968.553	-1809
968.639	-520
968.725	-1892
968.811	-695
968.897	-262
968.983	-399
969.069	-1439
969.154	-183
969.240	-269
969.326	-1237
969.412	-1990
969.497	-1669
969.583	-1557
969.669	-156
969.755	-504
969.840	-1143
969.926	-313
970.012	-257
970.097	485
970.183	-147
970.268	-733
970.354	-1047
970.439	-1837
970.525	290
970.610	-1589
970.696	-70
970.781	-1422
970.866	-1587
970.952	-4
971.037	-1211
971.122	-998
971.208	-1514
971.293	-1127
971.378	-1764
971.463	-1314
971.549	-838
971.634	-763
971.719	-280
971.804	-801
971.889	-755
971.974	-1550
972.059	-868
972.144	-1492
972.229	-574
972.314	-1102
972.399	-1297
972.484	-362
972.569	-807
972.654	-1440
972.739	40
972.824	-1086
972.908	-1537
972.993	-985
973.078	-830
973.163	-1142
973.247	-816
973.332	-2340
973.417	-459
973.501	-2735
973.586	246
973.671	-887
973.755	-862
973.840	-290
973.924	135
974.009	-667
974.093	-1554
974.178	-916
974.262	-601
974.346	-1358
974.431	-767
974.515	-757
974.600	-1046
974.684	-671
974.768	-1443
974.852	-237
974.937	-1846
975.021	-247
975.105	-1001
975.189	-344
975.273	-915
975.358	-1173
975.442	-1342
975.526	-268
975.610	-1839
975.694	-2198
975.778	-190
975.862	-771
975.946	-2604
976.030	-113
976.114	-1468
976.198	-1008
976.281	-1001
976.365	-256
976.449	-1234
976.533	-696
976.617	-1728
976.700	-419
976.784	-585
976.868	-986
976.951	-984
977.035	-1402
977.119	-712
977.202	-1814
977.286	-374
977.369	-973
977.453	58
977.536	-974
977.620	-1240
977.703	-582
977.787	-1462
977.870	-75
977.953	-173
978.037	-1780
978.120	398
978.203	-1272
978.287	-728
978.370	-1281
978.453	-718
978.536	-519
978.620	-177
978.703	-776
978.786	-901
978.869	-1831
978.952	-1612
979.035	94
979.118	-666
979.201	-1269
979.284	-760
979.367	-1108
979.450	-929
979.533	-1306
979.616	-1382
979.699	-1321
979.782	-51
979.865	-1534
979.948	-1413
980.030	-1925
980.113	-852
980.196	-2257
980.279	-888
980.361	-1077
980.444	-1684
980.526	-878
980.609	-586
980.692	-296
980.774	-484
980.857	-1557
980.939	-335
981.022	-1647
981.104	-1400
981.187	-864
981.269	-730
981.352	-1070
981.434	-2448
981.516	-1722
981.599	95
981.681	-1406
981.763	-790
981.846	-554
981.928	-1438
982.010	-1432
982.092	-973
982.174	-391
982.256	-893
982.339	-1104
982.421	-973
982.503	-824
982.585	-2788
982.667	-1185
982.749	-853
982.831	-545
982.913	-2049
982.995	-185
983.077	-1441
983.158	-80
983.240	-1680
983.322	-950
983.404	-215
983.486	-1582
983.568	174
983.649	-887
983.731	32
983.813	-1518
983.894	-363
983.976	-1613
984.058	-1317
984.139	-317
984.221	-1638
984.302	-463
984.384	-290
984.465	-1524
984.547	-339
984.628	-1561
984.710	-230
984.791	-236
984.872	-1304
984.954	-1485
985.035	-977
985.116	-1239
985.198	-1275
985.279	112
985.360	-784
985.441	-1524
985.522	-126
985.604	-1628
985.685	-1956
985.766	-449
985.847	-399
985.928	-1508
986.009	-1867
986.090	-746
986.171	-969
986.252	-1058
986.333	-1372
986.414	-1271
986.495	-486
986.576	-989
986.656	-907
986.737	-843
986.818	-605
986.899	-1463
986.980	-522
987.060	-933
987.141	-1601
987.222	-209
987.302	-54
987.383	-86
987.464	-700
987.544	-801
987.625	-541
987.705	-530
987.786	-1114
987.866	-1213
987.947	-1263
988.027	-1179
988.108	-1456
988.188	-1204
988.268	-850
988.349	-857
988.429	-878
988.509	-921
988.589	-656
988.670	-2156
988.750	-167
988.830	-550
988.910	-1062
988.990	-1021
989.070	-519
989.151	-469
989.231	-1779
989.311	-447
989.391	-509
989.471	-1108
989.551	-675
989.631	-1098
989.711	-843
989.791	-553
989.870	-2019
989.950	191
990.030	-1121
990.110	-359
990.190	-1456
990.269	-1607
990.349	-1041
990.429	-1108
990.509	-912
990.588	-1192
990.668	-560
990.747	-1396
990.827	-1635
990.907	-293
990.986	-1340
991.066	-422
991.145	-1240
991.225	-553
991.304	-1662
991.383	-815
991.463	-1043
991.542	-332
991.622	-1151
991.701	-1676
991.780	-1962
991.859	-1470
991.939	-1393
992.018	-1276
992.097	-784
992.176	-1184
992.256	-2493
992.335	-1469
992.414	-818
992.493	-1942
992.572	-1935
992.651	-301
992.730	-1056
992.809	-1613
992.888	-2383
992.967	-1307
993.046	-702
993.125	-1971
993.203	-1136
993.282	-1500
993.361	-582
993.440	-655
993.519	-1158
993.597	-939
993.676	-2267
993.755	-1206
993.834	-1296
993.912	-3143
993.991	-359
994.069	-1869
994.148	-1508
994.226	-1635
994.305	-944
994.384	-1935
994.462	-1110
994.540	-1330
994.619	-2020
994.697	-1105
994.776	-1915
994.854	-422
994.932	-1849
995.011	-932
995.089	-1547
995.167	-1205
995.245	-1192
995.324	-2517
995.402	-884
995.480	-1508
995.558	-1527
995.636	-1518
995.714	-1853
995.792	-377
995.870	-1733
995.948	-2084
996.026	-1413
996.104	-3179
996.182	-333
996.260	-1676
996.338	-1931
996.416	-1849
996.494	-1369
996.572	-912
996.649	-2252
996.727	-2431
996.805	-813
996.883	-2414
996.960	-1352
997.038	-1912
997.116	-981
997.193	-2408
997.271	-1642
997.348	-2966
997.426	-1837
997.504	-1462
997.581	-415
997.658	-1793
997.736	-2702
997.813	-1348
997.891	-777
997.968	-2073
998.046	-1788
998.123	-1336
998.200	-835
998.277	-2209
998.355	-2115
998.432	-2508
998.509	-2029
998.586	-864
998.663	-2039
998.741	-2155
998.818	-1365
998.895	-2604
998.972	-1064
999.049	-1279
999.126	-1733
999.203	-1232
999.280	-1679
999.357	-1996
999.434	-2064
999.511	-1561
999.587	-944
999.664	-1953
999.741	-1520
999.818	-835
999.895	-2754
999.971	-2283
1000.048	-1231
1000.125	-919
1000.202	-1276
1000.278	-2019
1000.355	-1275
1000.431	-1750
1000.508	-2135
1000.584	-1813
1000.661	-1797
1000.738	-2318
1000.814	-2319
1000.890	-1028
1000.967	-1448
1001.043	-1515
1001.120	-2126
1001.196	-1566
1001.272	-2688
1001.349	-1351
1001.425	-1129
1001.501	-1213
1001.577	-1793
1001.654	-773
1001.730	-2310
1001.806	-1147
1001.882	-2335
1001.958	-1726
1002.034	-1608
1002.110	-1666
1002.186	-2056
1002.262	-1060
1002.338	-2207
1002.414	-1055
1002.490	-1170
1002.566	-2305
1002.642	-2374
1002.718	-690
1002.794	-1698
1002.870	-2160
1002.945	-1809
1003.021	-2377
1003.097	-1753
1003.173	-969
1003.248	-1946
1003.324	-1610
1003.400	-1509
1003.475	-1808
1003.551	-1652
1003.626	-1540
1003.702	-1661
1003.777	-809
1003.853	-1854
1003.928	-1734
1004.004	-1923
1004.079	-1251
1004.155	-960
1004.230	-3060
1004.305	-889
1004.381	-2064
1004.456	-1183
1004.531	-1904
1004.607	-1985
1004.682	-1753
1004.757	-1397
1004.832	-1716
1004.907	-1919
1004.982	-1949
1005.057	-1380
1005.133	-2034
1005.208	-1908
1005.283	-2325
1005.358	-983
1005.433	-2227
1005.508	-994
1005.583	-2289
1005.657	-2026
1005.732	-1369
1005.807	-1598
1005.882	-1875
1005.957	-1668
1006.032	-1920
1006.106	-2161
1006.181	-1581
1006.256	-1765
1006.331	-1952
1006.405	-1897
1006.480	-2041
1006.554	-1290
1006.629	-1690
1006.704	-2218
1006.778	-747
1006.853	-1597
1006.927	-2085
1007.002	-2473
1007.076	-1465
1007.150	-1091
1007.225	-1768
1007.299	-1419
1007.373	-1815
1007.448	-2135
1007.522	-1693
1007.596	-1499
1007.671	-2844
1007.745	-1610
1007.819	-2515
1007.893	-2207
1007.967	-1441
1008.041	-2438
1008.115	-1934
1008.190	-2890
1008.264	-2237
1008.338	-2055
1008.412	-1891
1008.486	-1887
1008.560	-1819
1008.633	-2368
1008.707	-2382
1008.781	-1590
1008.855	-1575
1008.929	-1902
1009.003	-2570
1009.076	-2085
1009.150	-2102
1009.224	-2308
1009.298	-1611
1009.371	-1877
1009.445	-1528
1009.519	-1747
1009.592	-2519
1009.666	-2145
1009.739	-1041
1009.813	-2465
1009.886	-1737
1009.960	-2243
1010.033	-1321
1010.107	-1492
1010.180	-2544
1010.253	-2277
1010.327	-1995
1010.400	-1571
1010.473	-2335
1010.547	-1260
1010.620	-1524
1010.693	-1666
1010.766	-2504
1010.840	-1642
1010.913	-2582
1010.986	-2889
1011.059	-1560
1011.132	-2150
1011.205	-972
1011.278	-1953
1011.351	-1420
1011.424	-2304
1011.497	-1948
1011.570	-1794
1011.643	-1952
1011.716	-2033
1011.789	-2311
1011.862	-2032
1011.934	-1613
1012.007	-2421
1012.080	-1740
1012.153	-2361
1012.225	-1601
1012.298	-2211
1012.371	-2246
1012.443	-1054
1012.516	-1840
1012.588	-917
1012.661	-1340
1012.733	-2584
1012.806	-719
1012.879	-1873
1012.951	-1388
1013.023	-2352
1013.096	-2065
1013.168	-2530
1013.241	-1268
1013.313	-2445
1013.385	-2607
1013.458	-1992
1013.530	-1982
1013.602	-1980
1013.674	-1488
1013.746	-2870
1013.819	-2288
1013.891	-1985
1013.963	-1863
1014.035	-2583
1014.107	-2055
1014.179	-2513
1014.251	-1766
1014.323	-1958
1014.395	-1740
1014.467	-1819
1014.539	-1592
1014.611	-1865
1014.683	-1600
1014.754	-1312
1014.826	-2418
1014.898	-1578
1014.970	-2485
1015.042	-1586
1015.113	-2289
1015.185	-1889
1015.257	-3046
1015.328	-1516
1015.400	-2518
1015.471	-1259
1015.543	-2395
1015.615	-2143
1015.686	-1894
1015.757	-1700
1015.829	-2633
1015.901	-1681
1015.972	-1813
1016.043	-2223
1016.115	-980
1016.186	-2409
1016.257	-1153
1016.328	-1970
1016.400	-1049
1016.471	-3504
1016.542	-2477
1016.613	-1864
1016.685	-1331
1016.756	-1524
1016.827	-1806
1016.898	-2683
1016.969	-1371
1017.040	-1709
1017.111	-1941
1017.182	-2751
1017.253	-2103
1017.324	-1563
1017.395	-1862
1017.466	-1299
1017.537	-2163
1017.608	-1884
1017.678	-2237
1017.749	-2630
1017.820	-2008
1017.891	-2628
1017.961	-1676
1018.032	-2439
1018.103	-1411
1018.173	-2233
1018.244	-2243
1018.315	-2299
1018.385	-730
1018.456	-2414
1018.526	-2891
1018.597	-2685
1018.667	-1070
1018.738	-1988
1018.808	-1848
1018.878	-1834
1018.949	-2563
1019.019	-1816
1019.089	-1704
1019.160	-1866
1019.230	-2688
1019.300	-1783
1019.371	-2416
1019.441	-1347
1019.511	-1308
1019.581	-2077
1019.651	-2201
1019.721	-1561
1019.791	-2518
1019.861	-2376
1019.931	-2027
1020.001	-2413
1020.071	-2470
1020.141	-2297
1020.211	-1534
1020.281	-1925
1020.351	-2299
1020.421	-1730
1020.491	-2169
1020.560	-2380
1020.630	-2316
1020.700	-1185
1020.770	-2322
1020.839	-2295
1020.909	-2454
1020.979	-1965
1021.048	-2163
1021.118	-2019
1021.187	-2512
1021.257	-1961
1021.326	-1765
1021.396	-2893
1021.465	-1462
1021.535	-1551
1021.604	-2472
1021.674	-2662
1021.743	-1623
1021.812	-2121
1021.882	-2278
1021.951	-1786
1022.020	-2032
1022.089	-1945
1022.159	-2640
1022.228	-2182
1022.297	-2162
1022.366	-1805
1022.435	-1763
1022.504	-1805
1022.573	-3078
1022.642	-2697
1022.711	-2691
1022.781	-1648
1022.849	-1762
1022.918	-1853
1022.987	-2289
1023.056	-1854
1023.125	-2411
1023.194	-2492
1023.263	-1284
1023.331	-2149
1023.400	-2602
1023.469	-2545
1023.538	-2049
1023.606	-1643
1023.675	-2434
1023.744	-2300
1023.812	-1961
1023.881	-1559
1023.949	-2307
1024.018	-2593
1024.086	-1671
1024.155	-2310
1024.223	-2200
1024.292	-2374
1024.360	-1759
1024.429	-2272
1024.497	-2219
1024.565	-2396
1024.634	-2626
1024.702	-1737
1024.770	-1946
1024.838	-2878
1024.907	-2068
1024.975	-2147
1025.043	-2282
1025.111	-2861
1025.179	-2007
1025.247	-2107
1025.315	-2456
1025.383	-2867
1025.451	-2553
1025.519	-2384
1025.587	-2534
1025.655	-1849
1025.723	-2067
1025.791	-1843
1025.859	-2317
1025.927	-1616
1025.995	-2921
1026.062	-2175
1026.130	-2332
1026.198	-2584
1026.266	-2842
1026.333	-1966
1026.401	-1287
1026.469	-2785
1026.536	-1698
1026.604	-2361
1026.671	-2274
1026.739	-1985
1026.806	-2975
1026.874	-2728
1026.941	-2474
1027.009	-2810
1027.076	-2805
1027.144	-1404
1027.211	-2883
1027.278	-1857
1027.345	-2172
1027.413	-2545
1027.480	-2064
1027.547	-2532
1027.614	-2440
1027.682	-1503
1027.749	-1979
1027.816	-2098
1027.883	-2021
1027.950	-2259
1028.017	-2358
1028.084	-1812
1028.151	-2803
1028.218	-2697
1028.285	-2514
1028.352	-2718
1028.419	-2561
1028.486	-2611
1028.553	-2283
1028.619	-1920
1028.686	-1689
1028.753	-1626
1028.820	-2398
1028.886	-2316
1028.953	-1869
1029.020	-1764
1029.086	-2487
1029.153	-1765
1029.220	-2819
1029.286	-2066
1029.353	-1952
1029.419	-2184
1029.486	-2318
1029.552	-2401
1029.619	-2766
1029.685	-2105
1029.751	-2626
1029.818	-1883
1029.884	-2698
1029.951	-1173
1030.017	-1599
1030.083	-2483
1030.149	-2710
1030.216	-2595
1030.282	-2322
1030.348	-3085
1030.414	-2557
1030.480	-1900
1030.546	-3705
1030.612	-1330
1030.678	-1831
1030.744	-1979
1030.810	-2841
1030.876	-2135
1030.942	-2648
1031.008	-1887
1031.074	-2554
1031.140	-2263
1031.206	-2033
1031.272	-3019
1031.337	-1893
1031.403	-1909
1031.469	-2718
1031.534	-2063
1031.600	-2197
1031.666	-2812
1031.731	-2807
1031.797	-2565
1031.863	-2358
1031.928	-1714
1031.994	-1890
1032.059	-2125
1032.125	-2609
1032.190	-2542
1032.256	-2301
1032.321	-3262
1032.386	-2335
1032.452	-1676
1032.517	-1917
1032.582	-2539
1032.647	-2112
1032.713	-2193
1032.778	-2668
1032.843	-2116
1032.908	-2277
1032.974	-1988
1033.039	-2786
1033.104	-1898
1033.169	-2424
1033.234	-2306
1033.299	-2636
1033.364	-1755
1033.429	-2275
1033.494	-2125
1033.559	-1959
1033.624	-2700
1033.688	-1786
1033.753	-3071
1033.818	-2629
1033.883	-2689
1033.948	-1899
1034.013	-1536
1034.077	-2150
1034.142	-1206
1034.207	-1959
1034.271	-1294
1034.336	-1118
1034.400	-978
1034.465	-1912
1034.530	-1657
1034.594	-2478
1034.658	-2284
1034.723	-3740
1034.787	-1433
1034.852	-2371
1034.916	-2305
1034.981	-3474
1035.045	-2139
1035.109	-2785
1035.173	-1632
1035.238	-2653
1035.302	-2279
1035.366	-2366
1035.430	-2219
1035.495	-2245
1035.559	-2857
1035.623	-1847
1035.687	-2120
1035.751	-2658
1035.815	-2893
1035.879	-2406
1035.943	-2635
1036.007	-2304
1036.071	-2272
1036.135	-2601
1036.198	-2339
1036.262	-2233
1036.326	-2479
1036.390	-2617
1036.454	-2818
1036.517	-2150
1036.581	-2422
1036.645	-1716
1036.709	-2118
1036.772	-3030
1036.836	-2116
1036.900	-1910
1036.963	-1717
1037.026	-1772
1037.090	-2099
1037.154	-2279
1037.217	-1862
1037.280	-2972
1037.344	-2859
1037.407	-2129
1037.471	-2634
1037.534	-3012
1037.597	-2325
1037.661	-2483
1037.724	-1984
1037.787	-2368
1037.850	-2605
1037.913	-2793
1037.977	-1997
1038.040	-2454
1038.103	-2318
1038.166	-2888
1038.229	-1846
1038.292	-2074
1038.355	-1865
1038.418	-2136
1038.481	-1757
1038.544	-2428
1038.607	-2028
1038.670	-2479
1038.732	-2342
1038.795	-3221
1038.858	-1672
1038.921	-2059
1038.984	-1778
1039.046	-2523
1039.109	-2696
1039.172	-2525
1039.234	-1666
1039.297	-2309
1039.360	-2309
1039.422	-2487
1039.485	-2115
1039.547	-2087
1039.610	-2104
1039.672	-2190
1039.734	-2471
1039.797	-2546
1039.859	-1479
1039.922	-2719
1039.984	-2614
1040.046	-2336
1040.109	-2080
1040.171	-3311
1040.233	-2341
1040.295	-2221
1040.358	-2483
1040.420	-2251
1040.482	-1433
1040.544	-2761
1040.606	-1653
1040.668	-1783
1040.730	-1628
1040.792	-2523
1040.854	-2346
1040.916	-2280
1040.978	-2153
1041.040	-1525
1041.102	-2290
1041.164	-2010
1041.225	-2521
1041.287	-2688
1041.349	-2558
1041.411	-2215
1041.472	-2507
1041.534	-2403
1041.596	-1809
1041.657	-1293
1041.719	-2548
1041.781	-2528
1041.842	-2554
1041.904	-2470
1041.965	-2676
1042.027	-1986
1042.088	-1575
1042.150	-2280
1042.211	-2201
1042.272	-1868
1042.334	-1944
1042.395	-2147
1042.456	-3180
1042.518	-2267
1042.579	-2294
1042.640	-2344
1042.701	-2280
1042.763	-2320
1042.824	-2339
1042.885	-2455
1042.946	-2536
1043.007	-2286
1043.068	-1965
1043.129	-1851
1043.190	-2109
1043.251	-1776
1043.312	-2826
1043.373	-2680
1043.434	-2683
1043.495	-2054
1043.556	-1919
1043.616	-2185
1043.677	-2430
1043.738	-2360
1043.799	-1872
1043.859	-2285
1043.920	-1887
1043.981	-2214
1044.041	-1451
1044.102	-2164
1044.162	-2261
1044.223	-1597
1044.284	-2158
1044.344	-1781
1044.405	-2630
1044.465	-2257
1044.525	-1909
1044.586	-1785
1044.646	-2365
1044.707	-2199
1044.767	-1931
1044.827	-2614
1044.887	-2285
1044.948	-2398
1045.008	-2000
1045.068	-1887
1045.128	-1685
1045.188	-2025
1045.249	-931
1045.309	-2262
1045.369	-2012
1045.429	-1619
1045.489	-1925
1045.549	-2084
1045.609	-1454
1045.669	-2224
1045.729	-1855
1045.789	-2373
1045.848	-2018
1045.908	-2621
1045.968	-2590
1046.028	-2336
1046.088	-1934
1046.147	-1583
1046.207	-1682
1046.267	-867
1046.326	-1352
1046.386	-1544
1046.446	-1451
1046.505	-1809
1046.565	-1544
1046.624	-1671
1046.684	-1475
1046.743	-1754
1046.803	-853
1046.862	-380
1046.922	0
