'Start Wavelength	183.907
'End Wavelength	1046.922
'Gate Delay	5.000
'Gate Width (ms)	1.050
'Laser Output Level	0.000
'X Position	0.000
'Y Position	0.000
'Z Position	0.000
'Grid Point Number	1.000
'Shot Number	100.000
183.907	-93.000
183.977	-517.000
184.047	220
184.116	137
184.186	24
184.256	-131
184.325	-55
184.395	-1147
184.465	1066
184.534	362
184.604	-61
184.674	656
184.743	-380
184.813	-135
184.883	-103
184.952	984
185.022	143
185.092	124
185.161	184
185.231	-375
185.301	-286
185.370	800
185.440	68
185.509	41
185.579	-620
185.649	10
185.718	17
185.788	463
185.857	-386
185.927	-267
185.996	-117
186.066	-523
186.136	-198
186.205	-326
186.275	92
186.344	688
186.414	-601
186.483	-1000
186.553	1062
186.622	411
186.692	104
186.761	-168
186.831	-388
186.900	-694
186.970	233
187.039	-221
187.109	-28
187.178	-160
187.248	20
187.317	463
187.387	-2
187.456	184
187.526	266
187.595	217
187.664	-245
187.734	67
187.803	511
187.873	12
187.942	183
188.012	-20
188.081	-588
188.150	140
188.220	356
188.289	1150
188.358	399
188.428	330
188.497	-979
188.567	281
188.636	-902
188.705	-183
188.775	-445
188.844	-149
188.913	170
188.983	172
189.052	241
189.121	-345
189.191	-427
189.260	-87
189.329	-470
189.399	125
189.468	536
189.537	-683
189.606	50
189.676	575
189.745	-536
189.814	266
189.883	-581
189.953	186
190.022	-481
190.091	626
190.161	-2
190.230	190
190.299	14
190.368	-659
190.437	1
190.507	-507
190.576	-118
190.645	-153
190.714	103
190.783	-336
190.853	243
190.922	180
190.991	55
191.060	335
191.129	-381
191.198	103
191.268	525
191.337	188
191.406	-336
191.475	-152
191.544	-87
191.613	-997
191.682	-242
191.752	-359
191.821	-1290
191.890	507
191.959	75
192.028	197
192.097	-515
192.166	112
192.235	-688
192.304	454
192.373	-1000
192.442	23
192.511	-473
192.580	-470
192.650	-243
192.719	-542
192.788	4
192.857	253
192.926	-795
192.995	-219
193.064	-39
193.133	-433
193.202	-804
193.271	-514
193.340	221
193.409	631
193.478	-318
193.547	41
193.615	-86
193.684	-285
193.753	-319
193.822	-219
193.891	-122
193.960	-191
194.029	-573
194.098	0
194.167	-714
194.236	679
194.305	142
194.374	354
194.443	-249
194.512	-309
194.580	42
194.649	-82
194.718	249
194.787	283
194.856	-870
194.925	-367
194.994	-302
195.062	40
195.131	-487
195.200	-31
195.269	274
195.338	-85
195.407	-197
195.475	-630
195.544	-144
195.613	-8
195.682	-419
195.751	-182
195.819	-728
195.888	-388
195.957	292
196.026	129
196.094	-342
196.163	219
196.232	180
196.301	-147
196.369	476
196.438	-212
196.507	-745
196.576	-6
196.644	-418
196.713	-617
196.782	-556
196.850	194
196.919	-546
196.988	554
197.056	-339
197.125	651
197.194	41
197.262	538
197.331	-474
197.400	-489
197.468	-342
197.537	785
197.606	-292
197.674	-415
197.743	-563
197.812	-85
197.880	-603
197.949	-732
198.017	-366
198.086	-124
198.155	-378
198.223	78
198.292	-904
198.360	630
198.429	-361
198.497	218
198.566	-501
198.635	929
198.703	-503
198.772	-387
198.840	-109
198.909	-460
198.977	-374
199.046	-175
199.114	-685
199.183	121
199.251	-564
199.320	-601
199.388	-746
199.457	-119
199.525	-33
199.594	127
199.662	-48
199.731	252
199.799	-78
199.867	254
199.936	-609
200.004	670
200.073	-65
200.141	-752
200.210	-807
200.278	294
200.346	-12
200.415	375
200.483	-257
200.552	50
200.620	-219
200.688	-631
200.757	313
200.825	-598
200.893	419
200.962	159
201.030	-650
201.098	-1043
201.167	75
201.235	9
201.303	-545
201.372	140
201.440	17
201.508	-716
201.577	-1015
201.645	169
201.713	-807
201.781	43
201.850	-394
201.918	-340
201.986	-125
202.055	598
202.123	-418
202.191	-168
202.259	-695
202.327	-745
202.396	-1120
202.464	-906
202.532	-494
202.600	142
202.669	-264
202.737	-389
202.805	-62
202.873	151
202.941	-476
203.009	545
203.078	69
203.146	876
203.214	-611
203.282	-988
203.350	-485
203.418	-337
203.487	-644
203.555	-702
203.623	-318
203.691	647
203.759	-847
203.827	367
203.895	-172
203.963	-1245
204.031	-1221
204.099	-350
204.168	152
204.236	379
204.304	-172
204.372	-353
204.440	-517
204.508	-301
204.576	-758
204.644	72
204.712	-286
204.780	197
204.848	-773
204.916	-710
204.984	-834
205.052	-61
205.120	-319
205.188	-325
205.256	-1569
205.324	-305
205.392	-1005
205.460	364
205.528	-862
205.596	-476
205.664	49
205.732	-766
205.799	-1000
205.867	-555
205.935	-1038
206.003	-133
206.071	-175
206.139	-265
206.207	-439
206.275	-5
206.343	-583
206.411	-554
206.478	-103
206.546	4
206.614	-285
206.682	-41
206.750	-932
206.818	462
206.885	4
206.953	-697
207.021	135
207.089	-497
207.157	-1397
207.225	-268
207.292	-618
207.360	-544
207.428	-1148
207.496	-829
207.563	10
207.631	-935
207.699	-886
207.767	-82
207.834	-1640
207.902	-795
207.970	-886
208.038	-81
208.105	-895
208.173	-344
208.241	-230
208.309	-63
208.376	-957
208.444	-769
208.512	-869
208.579	-1035
208.647	-282
208.715	541
208.782	-343
208.850	-207
208.918	-1444
208.985	-401
209.053	-308
209.120	11
209.188	-277
209.256	-448
209.323	-895
209.391	-603
209.459	824
209.526	3
209.594	-312
209.661	-326
209.729	-357
209.796	-950
209.864	-21
209.932	-1225
209.999	324
210.067	-308
210.134	-203
210.202	396
210.269	432
210.337	475
210.404	-535
210.472	-298
210.539	-65
210.607	-347
210.674	-1102
210.742	-622
210.809	238
210.877	-234
210.944	-236
211.012	-1352
211.079	243
211.146	-444
211.214	-672
211.281	-64
211.349	1
211.416	-116
211.484	-92
211.551	-183
211.618	6
211.686	-362
211.753	-784
211.821	-222
211.888	-1073
211.955	-220
212.023	-504
212.090	162
212.157	-772
212.225	-747
212.292	309
212.359	-298
212.427	-624
212.494	-386
212.561	-131
212.629	-518
212.696	-1422
212.763	-353
212.831	-1181
212.898	60
212.965	-702
213.032	-652
213.100	-1126
213.167	-806
213.234	369
213.301	-478
213.369	-851
213.436	-64
213.503	-1472
213.570	415
213.638	-464
213.705	-623
213.772	-1085
213.839	-454
213.906	-445
213.973	-807
214.041	-971
214.108	-374
214.175	-400
214.242	-928
214.309	-767
214.376	-238
214.444	-1149
214.511	-787
214.578	-678
214.645	136
214.712	-473
214.779	-52
214.846	-943
214.913	343
214.980	-236
215.048	-54
215.115	260
215.182	23
215.249	-574
215.316	-582
215.383	-368
215.450	-294
215.517	-669
215.584	-747
215.651	-487
215.718	-637
215.785	-51
215.852	90
215.919	-503
215.986	-756
216.053	-150
216.120	-59
216.187	-426
216.254	-566
216.321	-535
216.388	-388
216.455	-936
216.522	-361
216.589	-573
216.656	-635
216.722	-522
216.789	210
216.856	-1123
216.923	-966
216.990	-347
217.057	-427
217.124	-913
217.191	-474
217.258	-326
217.324	-633
217.391	-1110
217.458	-711
217.525	-572
217.592	-470
217.659	-1314
217.725	18
217.792	-1514
217.859	142
217.926	-998
217.993	-1180
218.059	-633
218.126	153
218.193	-1665
218.260	-385
218.327	-1586
218.393	88
218.460	-751
218.527	-1244
218.594	-543
218.660	-541
218.727	221
218.794	-1022
218.860	-410
218.927	-545
218.994	-549
219.061	-506
219.127	-1013
219.194	92
219.261	-432
219.327	-118
219.394	256
219.461	-1002
219.527	-623
219.594	443
219.661	-521
219.727	-1016
219.794	-505
219.860	-557
219.927	-496
219.994	142
220.060	265
220.127	1712
220.193	727
220.260	-73
220.326	-601
220.393	-632
220.460	-871
220.526	-928
220.593	-1500
220.659	447
220.726	-1012
220.792	-295
220.859	-768
220.925	-66
220.992	-801
221.058	-103
221.125	-341
221.191	-1277
221.258	-1274
221.324	-568
221.391	-1670
221.457	-479
221.524	-794
221.590	248
221.657	-195
221.723	-626
221.789	-951
221.856	-481
221.922	-1064
221.989	-105
222.055	-1112
222.121	-830
222.188	1366
222.254	-475
222.321	-609
222.387	-930
222.453	-212
222.520	-879
222.586	-945
222.652	-186
222.719	-1555
222.785	-571
222.851	-1241
222.918	3
222.984	-436
223.050	-658
223.116	-1866
223.183	164
223.249	-735
223.315	-990
223.382	-76
223.448	-424
223.514	-1161
223.580	-362
223.647	-1043
223.713	-895
223.779	-679
223.845	-856
223.911	-563
223.978	-1172
224.044	-437
224.110	-956
224.176	-364
224.242	-58
224.309	-1517
224.375	128
224.441	-337
224.507	-731
224.573	-1637
224.639	174
224.705	-1203
224.772	146
224.838	-920
224.904	-317
224.970	-889
225.036	-956
225.102	-1453
225.168	14
225.234	377
225.300	15
225.366	-1400
225.432	-801
225.499	-761
225.565	-713
225.631	-792
225.697	-277
225.763	-943
225.829	-28
225.895	-645
225.961	-1046
226.027	-967
226.093	-873
226.159	44
226.225	-217
226.291	-162
226.357	-158
226.423	-499
226.489	298
226.554	-704
226.620	-223
226.686	-775
226.752	-338
226.818	-1468
226.884	224
226.950	506
227.016	-519
227.082	235
227.148	-348
227.214	-1058
227.279	-900
227.345	-290
227.411	-177
227.477	541
227.543	2410
227.609	1428
227.674	1134
227.740	-141
227.806	140
227.872	-792
227.938	162
228.003	-738
228.069	-888
228.135	-319
228.201	-40
228.267	-1471
228.332	-905
228.398	-1832
228.464	-11
228.530	-929
228.595	-106
228.661	-933
228.727	-1113
228.792	1148
228.858	-661
228.924	-2535
228.990	882
229.055	-1641
229.121	-921
229.187	-135
229.252	-1680
229.318	-934
229.384	37
229.449	-1176
229.515	-2832
229.581	-1611
229.646	1236
229.712	-27
229.777	-768
229.843	-1636
229.909	-268
229.974	-98
230.040	-764
230.105	-1020
230.171	-898
230.236	-426
230.302	-470
230.368	-910
230.433	-860
230.499	-202
230.564	44
230.630	-1983
230.695	-583
230.761	-223
230.826	-1506
230.892	-104
230.957	-1834
231.023	-994
231.088	-232
231.154	-1405
231.219	299
231.284	-2376
231.350	447
231.415	-1314
231.481	-158
231.546	-114
231.612	-934
231.677	-1352
231.742	-1748
231.808	740
231.873	-906
231.939	-2320
232.004	264
232.069	-147
232.135	-1095
232.200	-1783
232.265	997
232.331	-1065
232.396	-31
232.461	-1022
232.527	-298
232.592	-1699
232.657	-389
232.723	-644
232.788	-1116
232.853	-143
232.918	-438
232.984	-1347
233.049	-662
233.114	-2116
233.179	-948
233.245	-700
233.310	98
233.375	-1666
233.440	222
233.506	-1173
233.571	-915
233.636	-753
233.701	-608
233.766	-1650
233.832	-862
233.897	-1615
233.962	-1779
234.027	242
234.092	-317
234.157	-998
234.222	-931
234.288	-500
234.353	-1130
234.418	-757
234.483	-583
234.548	-260
234.613	-1229
234.678	-710
234.743	-1352
234.808	-142
234.873	-2086
234.938	-609
235.004	-909
235.069	-741
235.134	-617
235.199	-973
235.264	-15
235.329	-1645
235.394	65
235.459	6
235.524	-1710
235.589	-475
235.654	-651
235.719	-1549
235.784	160
235.849	-1148
235.913	-955
235.978	-1096
236.043	-862
236.108	-1459
236.173	-1612
236.238	-203
236.303	-1228
236.368	-1225
236.433	151
236.498	-1417
236.563	-1048
236.627	-916
236.692	126
236.757	528
236.822	-696
236.887	-927
236.952	271
237.017	-2342
237.081	187
237.146	-2515
237.211	113
237.276	-409
237.341	1436
237.405	-182
237.470	-884
237.535	-106
237.600	-796
237.664	-165
237.729	-1489
237.794	-2103
237.859	370
237.923	-785
237.988	-631
238.053	-613
238.118	-499
238.182	-1254
238.247	-2
238.312	-1769
238.376	-407
238.441	-3156
238.506	506
238.570	-1758
238.635	95
238.700	-1074
238.764	-677
238.829	-945
238.893	-1773
238.958	-304
239.023	-960
239.087	-1261
239.152	-463
239.216	-1931
239.281	103
239.346	-214
239.410	-1068
239.475	-791
239.539	82
239.604	-989
239.668	-181
239.733	508
239.797	2231
239.862	4220
239.926	4047
239.991	1191
240.055	873
240.120	-678
240.184	-177
240.249	-1610
240.313	-523
240.378	-501
240.442	-775
240.507	-784
240.571	-1087
240.635	-797
240.700	-172
240.764	-863
240.829	-807
240.893	-2238
240.957	410
241.022	-777
241.086	-482
241.151	-2148
241.215	-1076
241.279	-53
241.344	-1827
241.408	42
241.472	-983
241.537	-523
241.601	-450
241.665	-2661
241.730	-1211
241.794	-562
241.858	-1189
241.922	-931
241.987	-456
242.051	-1032
242.115	-1766
242.179	-124
242.244	-1192
242.308	414
242.372	-833
242.436	-1960
242.501	-278
242.565	-2132
242.629	-1067
242.693	-367
242.757	-1205
242.822	-1004
242.886	-270
242.950	200
243.014	-1480
243.078	-1266
243.142	-672
243.206	-822
243.271	-24
243.335	-1548
243.399	56
243.463	-1457
243.527	-193
243.591	-1858
243.655	-854
243.719	-676
243.783	415
243.847	-1022
243.911	-12
243.975	-1575
244.040	-2241
244.104	813
244.168	-663
244.232	-1063
244.296	-1007
244.360	-687
244.424	-1710
244.488	-288
244.552	-286
244.615	-2744
244.679	32
244.743	-1554
244.807	-1876
244.871	-279
244.935	-223
244.999	-1990
245.063	-1731
245.127	-219
245.191	-169
245.255	-1604
245.319	-482
245.383	-2376
245.446	255
245.510	-2017
245.574	-874
245.638	-706
245.702	-2750
245.766	-140
245.829	-47
245.893	-2215
245.957	-1273
246.021	-492
246.085	-642
246.149	-482
246.212	456
246.276	-1477
246.340	-1683
246.404	-1430
246.467	212
246.531	-2796
246.595	217
246.659	-771
246.722	-1895
246.786	-1363
246.850	-655
246.913	-1081
246.977	-2016
247.041	-741
247.104	-449
247.168	-628
247.232	-809
247.295	-1237
247.359	-455
247.423	-1681
247.486	-937
247.550	-185
247.614	-770
247.677	-1759
247.741	-813
247.804	-1510
247.868	119
247.932	-1929
247.995	-509
248.059	-1027
248.122	-1679
248.186	284
248.249	-186
248.313	18
248.376	879
248.440	-898
248.503	-2432
248.567	542
248.630	-1148
248.694	-626
248.757	573
248.821	-570
248.884	348
248.948	-1350
249.011	19
249.075	-30
249.138	-284
249.202	-698
249.265	-616
249.328	-88
249.392	-2033
249.455	-318
249.519	-846
249.582	-1027
249.645	-169
249.709	-481
249.772	-1205
249.835	-804
249.899	-856
249.962	-581
250.025	-876
250.089	-1146
250.152	95
250.215	-532
250.279	-1070
250.342	-61
250.405	-539
250.468	-1564
250.532	-828
250.595	-611
250.658	-932
250.721	910
250.785	-783
250.848	742
250.911	-800
250.974	-848
251.038	-1343
251.101	155
251.164	-1114
251.227	-1281
251.290	-1373
251.354	-50
251.417	-420
251.480	322
251.543	-102
251.606	1966
251.669	1152
251.732	-630
251.795	-305
251.859	-126
251.922	1045
251.985	700
252.048	570
252.111	-724
252.174	-1888
252.237	-764
252.300	560
252.363	-91
252.426	2525
252.489	-531
252.552	-374
252.615	-1426
252.678	34
252.741	-256
252.804	-603
252.867	2505
252.930	682
252.993	-586
253.056	-626
253.119	-1232
253.182	-871
253.245	-1788
253.308	-265
253.371	-1519
253.434	-1196
253.497	11
253.559	86
253.622	-1638
253.685	-1016
253.748	-861
253.811	-1099
253.874	-1199
253.937	-1735
254.000	-811
254.062	-27
254.125	-930
254.188	821
254.251	-925
254.314	-654
254.376	-2269
254.439	-389
254.502	-860
254.565	-371
254.628	-94
254.690	-1171
254.753	-1236
254.816	-1582
254.878	-1458
254.941	107
255.004	-916
255.067	-315
255.129	-1455
255.192	-769
255.255	-1433
255.317	-326
255.380	-326
255.443	-270
255.505	-679
255.568	-1664
255.631	-752
255.693	-922
255.756	-1406
255.819	-542
255.881	-176
255.944	-650
256.006	-1323
256.069	-853
256.132	-1493
256.194	-270
256.257	-905
256.319	-783
256.382	-946
256.444	701
256.507	-174
256.569	-385
256.632	-1946
256.694	-1117
256.757	-673
256.819	783
256.882	-1615
256.944	-422
257.007	366
257.069	-935
257.132	-960
257.194	794
257.257	-1804
257.319	-1296
257.381	-1379
257.444	47
257.506	789
257.569	1191
257.631	-1044
257.693	-1220
257.756	-580
257.818	-1102
257.880	-1421
257.943	-261
258.005	-1583
258.067	-763
258.130	-734
258.192	-263
258.254	-418
258.317	-561
258.379	-537
258.441	-498
258.503	-1240
258.566	-336
258.628	-693
258.690	-1080
258.753	-163
258.815	-183
258.877	-1603
258.939	-268
259.001	-753
259.064	-851
259.126	-1155
259.188	-774
259.250	-1567
259.312	-995
259.375	-1283
259.437	-1736
259.499	-549
259.561	-296
259.623	-1075
259.685	-1299
259.747	-1288
259.809	-234
259.872	-1493
259.934	425
259.996	-193
260.058	124
260.120	-867
260.182	-1118
260.244	-1113
260.306	-791
260.368	-656
260.430	-1104
260.492	-1649
260.554	-85
260.616	-1858
260.678	-876
260.740	-219
260.802	-1443
260.864	-574
260.926	-1307
260.988	167
261.050	-1006
261.112	-1150
261.174	55
261.236	-690
261.298	-915
261.359	-959
261.421	-235
261.483	-1462
261.545	447
261.607	-1787
261.669	118
261.731	-500
261.793	233
261.854	-1964
261.916	-53
261.978	-1488
262.040	-849
262.102	-582
262.164	-1561
262.225	-328
262.287	-1074
262.349	-1446
262.411	-1486
262.472	381
262.534	-1116
262.596	-1502
262.658	75
262.719	-2070
262.781	89
262.843	-2069
262.904	-790
262.966	-200
263.028	-1314
263.090	-1021
263.151	-512
263.213	-606
263.275	-1613
263.336	-1251
263.398	-195
263.459	-1869
263.521	407
263.583	-683
263.644	14
263.706	-1195
263.767	-820
263.829	-215
263.891	-438
263.952	-1246
264.014	-1534
264.075	-1256
264.137	-521
264.198	-858
264.260	-822
264.321	-881
264.383	-1563
264.444	79
264.506	-696
264.567	-670
264.629	628
264.690	-2249
264.752	-613
264.813	-472
264.875	-846
264.936	-290
264.998	-825
265.059	-1500
265.120	67
265.182	-951
265.243	-935
265.305	-640
265.366	-159
265.427	-524
265.489	695
265.550	-1474
265.611	-284
265.673	-988
265.734	-5
265.795	-513
265.857	-1245
265.918	-1003
265.979	-323
266.040	-343
266.102	-415
266.163	-92
266.224	-629
266.286	-1651
266.347	-759
266.408	-1196
266.469	-693
266.530	-756
266.592	-11
266.653	-947
266.714	-658
266.775	-409
266.836	-49
266.898	-1831
266.959	-1248
267.020	-19
267.081	49
267.142	-505
267.203	-1275
267.264	-1148
267.326	1070
267.387	-942
267.448	-1230
267.509	-7
267.570	-424
267.631	-1382
267.692	-1641
267.753	-853
267.814	-1140
267.875	-963
267.936	-425
267.997	-1848
268.058	-726
268.119	-1910
268.180	-1496
268.241	-1433
268.302	-207
268.363	-1430
268.424	-768
268.485	-1405
268.546	-986
268.607	-815
268.668	-1333
268.729	-713
268.790	-964
268.851	-409
268.912	-596
268.972	-1338
269.033	-1114
269.094	-331
269.155	-1104
269.216	-1034
269.277	-616
269.338	-502
269.398	-993
269.459	-1413
269.520	-942
269.581	-465
269.642	-421
269.702	-1604
269.763	-393
269.824	-1134
269.885	2
269.945	-611
270.006	104
270.067	-1315
270.128	-257
270.188	-968
270.249	-1451
270.310	-1402
270.370	-43
270.431	-673
270.492	-638
270.553	-862
270.613	-999
270.674	-400
270.734	-369
270.795	-1275
270.856	-484
270.916	-932
270.977	-596
271.038	-390
271.098	-850
271.159	-821
271.219	-1330
271.280	-472
271.340	-860
271.401	-1473
271.462	-1270
271.522	-734
271.583	-1162
271.643	-561
271.704	-825
271.764	-886
271.825	228
271.885	-63
271.946	594
272.006	-22
272.066	5
272.127	984
272.187	3942
272.248	1179
272.308	-25
272.369	338
272.429	-728
272.489	-677
272.550	-1202
272.610	-64
272.671	-271
272.731	-581
272.791	-744
272.852	-754
272.912	-883
272.972	-1173
273.033	-605
273.093	-552
273.153	-73
273.214	-940
273.274	-254
273.334	-828
273.394	-876
273.455	-1408
273.515	500
273.575	-840
273.635	189
273.696	146
273.756	-677
273.816	-948
273.876	-54
273.936	-1228
273.997	-306
274.057	-711
274.117	-196
274.177	-595
274.237	-104
274.297	-227
274.358	-185
274.418	-257
274.478	-196
274.538	-969
274.598	-784
274.658	-925
274.718	-472
274.778	-636
274.838	-404
274.898	-984
274.958	-603
275.018	-450
275.078	253
275.138	-381
275.198	-96
275.258	-1231
275.318	-260
275.378	-937
275.438	-784
275.498	-247
275.558	-779
275.618	-269
275.678	-322
275.738	-617
275.798	-379
275.858	-572
275.918	-609
275.978	-719
276.038	345
276.098	-396
276.157	-21
276.217	-346
276.277	-483
276.337	-822
276.397	-847
276.457	-312
276.517	276
276.576	-424
276.636	-507
276.696	-789
276.756	-313
276.815	-619
276.875	-730
276.935	-385
276.995	-537
277.055	-82
277.114	448
277.174	118
277.234	34
277.293	-1418
277.353	-581
277.413	-97
277.472	-304
277.532	-163
277.592	71
277.651	877
277.711	3203
277.771	-173
277.830	3166
277.890	2373
277.950	1489
278.009	7601
278.069	3555
278.128	2144
278.188	3665
278.248	842
278.307	3620
278.367	3470
278.426	-55
278.486	-101
278.545	-558
278.605	-204
278.664	-13
278.724	-451
278.783	148
278.843	-26
278.902	10
278.962	-427
279.021	296
279.081	214
279.140	-687
279.199	-96
279.259	-206
279.318	-23
279.378	-100
279.437	481
279.496	3914
279.556	20005
279.615	19690
279.675	4111
279.734	1817
279.793	1451
279.853	3032
279.912	889
279.971	1626
280.031	523
280.090	1438
280.149	2167
280.208	1797
280.268	11959
280.327	16690
280.386	3346
280.445	828
280.505	746
280.564	518
280.623	-38
280.682	158
280.742	69
280.801	433
280.860	-623
280.919	-463
280.978	-71
281.037	-540
281.097	-775
281.156	639
281.215	-234
281.274	171
281.333	847
281.392	3
281.451	-609
281.510	258
281.569	-55
281.628	947
281.688	399
281.747	1341
281.806	-996
281.865	84
281.924	-538
281.983	334
282.042	-447
282.101	-537
282.160	-909
282.219	-966
282.278	46
282.337	-145
282.396	-324
282.454	-358
282.513	-14
282.572	-138
282.631	-688
282.690	327
282.749	-760
282.808	-123
282.867	-770
282.926	24
282.985	169
283.043	148
283.102	-403
283.161	165
283.220	129
283.279	14
283.338	-425
283.396	107
283.455	-415
283.514	95
283.573	691
283.631	542
283.690	-270
283.749	596
283.808	-221
283.866	-48
283.925	-140
283.984	533
284.043	-154
284.101	59
284.160	621
284.219	496
284.277	-54
284.336	488
284.395	377
284.453	278
284.512	639
284.570	1143
284.629	720
284.688	1180
284.746	903
284.805	1282
284.863	1956
284.922	2425
284.981	3127
285.039	5321
285.098	8013
285.156	19082
285.215	40344
285.273	42606
285.332	25916
285.390	12909
285.449	6776
285.507	4818
285.566	3639
285.624	2631
285.683	1971
285.741	1786
285.799	1395
285.858	874
285.916	980
285.975	263
286.033	1026
286.091	790
286.150	236
286.208	332
286.267	527
286.325	437
286.383	658
286.442	495
286.500	329
286.558	189
286.616	-614
286.675	735
286.733	-72
286.791	674
286.850	324
286.908	539
286.966	-27
287.024	-241
287.083	-494
287.141	-335
287.199	924
287.257	316
287.315	196
287.374	172
287.432	131
287.490	-58
287.548	-865
287.606	37
287.664	248
287.723	316
287.781	422
287.839	215
287.897	-583
287.955	632
288.013	189
288.071	1156
288.129	1711
288.187	9751
288.245	4911
288.303	1311
288.361	-319
288.419	788
288.477	-455
288.535	136
288.593	-389
288.651	394
288.709	-83
288.767	932
288.825	-3
288.883	-102
288.941	-212
288.999	-379
289.057	907
289.115	489
289.173	-329
289.231	260
289.289	-372
289.346	-83
289.404	-119
289.462	-60
289.520	-51
289.578	442
289.636	24
289.694	521
289.751	216
289.809	245
289.867	79
289.925	511
289.983	353
290.040	827
290.098	-7
290.156	-421
290.214	146
290.271	202
290.329	1201
290.387	921
290.444	118
290.502	423
290.560	299
290.617	406
290.675	-3
290.733	-230
290.790	178
290.848	1131
290.906	-152
290.963	242
291.021	-104
291.078	763
291.136	-6
291.194	437
291.251	-352
291.309	454
291.366	1092
291.424	192
291.481	-383
291.539	-419
291.596	-66
291.654	1089
291.711	-60
291.769	436
291.826	-52
291.884	630
291.941	-184
291.999	195
292.056	1278
292.114	-530
292.171	200
292.228	754
292.286	893
292.343	-221
292.401	16
292.458	705
292.515	121
292.573	330
292.630	-135
292.687	488
292.745	-87
292.802	545
292.859	174
292.917	688
292.974	-555
293.031	444
293.089	175
293.146	474
293.203	-8
293.260	157
293.318	-488
293.375	-216
293.432	75
293.489	580
293.546	361
293.604	503
293.661	1150
293.718	1238
293.775	982
293.832	942
293.889	512
293.947	1017
294.004	269
294.061	702
294.118	200
294.175	675
294.232	656
294.289	320
294.346	555
294.403	975
294.460	62
294.517	124
294.574	252
294.631	824
294.688	724
294.745	512
294.802	1097
294.859	1128
294.916	626
294.973	297
295.030	-343
295.087	456
295.144	932
295.201	1529
295.258	155
295.315	-206
295.372	-161
295.429	1062
295.486	-126
295.542	718
295.599	-548
295.656	715
295.713	200
295.770	535
295.827	155
295.883	-64
295.940	-16
295.997	574
296.054	-27
296.111	496
296.167	1046
296.224	156
296.281	-227
296.338	82
296.394	-191
296.451	512
296.508	5
296.564	614
296.621	-132
296.678	1275
296.734	2322
296.791	897
296.848	562
296.904	375
296.961	-12
297.018	313
297.074	848
297.131	160
297.187	523
297.244	1037
297.301	701
297.357	2324
297.414	572
297.470	1015
297.527	229
297.583	368
297.640	-51
297.696	933
297.753	567
297.809	345
297.866	-470
297.922	420
297.979	-274
298.035	-59
298.092	-83
298.148	747
298.204	1467
298.261	319
298.317	1299
298.374	2452
298.430	1100
298.486	637
298.543	-117
298.599	641
298.656	-91
298.712	620
298.768	707
298.824	294
298.881	112
298.937	1282
298.993	707
299.050	206
299.106	-73
299.162	161
299.218	323
299.275	751
299.331	635
299.387	1193
299.443	2532
299.500	10762
299.556	11548
299.612	5277
299.668	2851
299.724	9552
299.780	14513
299.837	5913
299.893	3394
299.949	6375
300.005	12030
300.061	9097
300.117	14280
300.173	8439
300.229	2109
300.285	1400
300.341	1629
300.397	1498
300.453	1749
300.510	1456
300.566	1724
300.622	4226
300.678	13969
300.734	23145
300.790	11587
300.845	6005
300.901	7625
300.957	15006
301.013	7672
301.069	3826
301.125	2728
301.181	1222
301.237	589
301.293	583
301.349	1081
301.405	495
301.461	130
301.516	1672
301.572	-88
301.628	1109
301.684	1345
301.740	1307
301.796	484
301.851	1427
301.907	731
301.963	1263
302.019	1019
302.074	5568
302.130	5660
302.186	3263
302.242	877
302.297	915
302.353	628
302.409	554
302.464	879
302.520	765
302.576	865
302.631	2110
302.687	757
302.743	197
302.798	181
302.854	795
302.910	-161
302.965	845
303.021	897
303.076	302
303.132	-308
303.187	1347
303.243	228
303.299	795
303.354	319
303.410	662
303.465	-361
303.521	-545
303.576	327
303.632	1417
303.687	-112
303.743	2019
303.798	1625
303.853	585
303.909	268
303.964	36
304.020	61
304.075	60
304.130	700
304.186	708
304.241	1268
304.297	759
304.352	-69
304.358	24
304.407	778
304.449	767
304.463	768
304.518	641
304.539	473
304.573	187
304.629	-2
304.630	11
304.684	594
304.720	899
304.739	1055
304.794	1903
304.811	1883
304.850	1791
304.902	887
304.905	828
304.960	398
304.992	-84
305.015	-431
305.071	1041
305.083	1023
305.126	944
305.173	1003
305.181	1014
305.236	34
305.264	278
305.292	533
305.347	363
305.354	442
305.402	890
305.445	338
305.457	199
305.512	790
305.535	481
305.567	22
305.622	1244
305.626	1194
305.678	440
305.716	1079
305.733	1354
305.788	1239
305.807	1303
305.843	1423
305.897	1954
305.898	1962
305.953	2203
305.988	1596
306.008	1231
306.063	726
306.078	566
306.118	279
306.168	654
306.173	669
306.228	838
306.259	909
306.283	1013
306.338	-331
306.349	-105
306.393	705
306.440	327
306.448	299
306.503	1220
306.530	1352
306.558	1369
306.613	702
306.620	735
306.668	1189
306.711	1220
306.723	1154
306.778	871
306.801	1055
306.833	1434
306.888	584
306.892	651
306.943	1441
306.982	919
306.997	703
307.052	627
307.072	525
307.107	502
307.162	1039
307.163	1036
307.217	779
307.253	973
307.272	1116
307.327	1138
307.343	1110
307.381	868
307.434	341
307.436	340
307.491	1245
307.524	1185
307.546	971
307.600	1029
307.614	956
307.655	700
307.704	926
307.710	1001
307.765	864
307.795	957
307.819	894
307.874	997
307.885	993
307.929	1143
307.975	1299
307.984	1354
308.038	2137
308.065	2259
308.093	3089
308.148	6255
308.156	6948
308.202	10628
308.246	15796
308.257	16147
308.312	8350
308.336	5513
308.366	3673
308.421	1697
308.426	1620
308.475	1339
308.517	1231
308.530	1092
308.585	955
308.607	939
308.639	1222
308.694	1004
308.697	1032
308.748	1460
308.787	1433
308.803	1422
308.857	899
308.877	1136
308.912	1463
308.967	1471
308.967	1467
309.021	2085
309.058	2863
309.076	3355
309.130	5124
309.148	5732
309.185	10322
309.238	18782
309.239	18836
309.293	23838
309.328	22171
309.348	19847
309.402	10239
309.418	7977
309.457	5715
309.508	4419
309.511	4368
309.566	4161
309.598	4310
309.620	4763
309.674	6165
309.688	6642
309.729	7044
309.778	6376
309.783	6234
309.837	4554
309.868	3636
309.892	3266
309.946	2542
309.959	2409
310.001	2336
310.049	2264
310.055	2258
310.109	2398
310.139	2303
310.163	1957
310.218	1680
310.229	1545
310.272	1912
310.319	2409
310.326	2341
310.381	1682
310.409	1484
310.435	1651
310.489	1680
310.499	1727
310.543	1678
310.589	1379
310.598	1357
310.652	1621
310.679	1518
310.706	1665
310.760	2212
310.769	2291
310.814	2311
310.859	2424
310.868	2407
310.923	1987
310.948	1814
310.977	2097
311.031	2593
311.038	2679
311.085	2238
311.128	1590
311.139	1634
311.193	2072
311.218	2239
311.247	2138
311.301	1882
311.308	1848
311.356	1818
311.398	1798
311.410	1883
311.464	2260
311.488	2409
311.518	2419
311.572	2434
311.578	2432
311.626	2271
311.668	2111
311.680	2146
311.734	2239
311.758	2281
311.788	2179
311.842	2027
311.847	2001
311.896	2393
311.937	2755
311.950	2682
312.004	2327
312.027	2171
312.058	2113
312.112	1996
312.117	1985
312.165	1649
312.207	1368
312.297	2609
312.386	2151
312.476	3081
312.566	2156
312.656	2820
312.745	1407
312.835	2909
312.925	2909
313.015	2568
313.104	1956
313.194	3264
313.284	2291
313.374	3506
313.463	2424
313.553	3444
313.643	2749
313.732	3846
313.822	3669
313.912	4144
314.001	4709
314.091	5136
314.180	4580
314.270	4930
314.360	3868
314.449	4401
314.539	4180
314.628	4395
314.718	4697
314.808	5117
314.897	5174
314.987	5343
315.076	5700
315.166	6113
315.255	5636
315.345	5042
315.434	4195
315.524	5509
315.613	5258
315.703	6480
315.792	14742
315.881	45583
315.971	15988
316.060	6529
316.150	4387
316.239	4907
316.328	4975
316.418	5593
316.507	5357
316.597	6943
316.686	6657
316.775	6139
316.865	5908
316.954	5752
317.043	4694
317.133	4201
317.222	3074
317.311	3792
317.400	2581
317.490	5131
317.579	4117
317.668	4701
317.757	8342
317.847	23067
317.936	66387
318.025	21413
318.114	19865
318.203	9463
318.293	6391
318.382	8676
318.471	8971
318.560	7988
318.649	5501
318.738	5154
318.828	4438
318.917	3467
319.006	3226
319.095	3445
319.184	3265
319.273	3260
319.362	3627
319.451	2867
319.540	2068
319.629	3962
319.718	2702
319.807	4418
319.896	3857
319.985	4325
320.074	3579
320.163	3798
320.252	3421
320.341	4647
320.430	3807
320.519	4171
320.608	4638
320.697	6277
320.786	6769
320.875	7636
320.964	8631
321.053	9461
321.142	9207
321.230	10158
321.319	10947
321.408	12560
321.497	12979
321.586	10833
321.675	9198
321.764	9130
321.852	8868
321.941	9459
322.030	9128
322.119	9979
322.207	11649
322.296	13282
322.385	14474
322.474	16164
322.562	16266
322.651	13256
322.740	9491
322.829	8982
322.917	8441
323.006	7616
323.095	6744
323.183	6113
323.272	5445
323.361	6009
323.449	5542
323.538	4670
323.626	4889
323.715	5065
323.804	3878
323.892	4249
323.981	4225
324.069	4389
324.158	4245
324.246	3932
324.335	3982
324.424	3621
324.512	4077
324.601	4288
324.689	4350
324.778	3794
324.866	3232
324.954	3691
325.043	2903
325.131	2652
325.220	3872
325.308	2699
325.397	4312
325.485	3483
325.574	2833
325.662	2393
325.750	3231
325.839	4178
325.927	3345
326.015	3181
326.104	3225
326.192	2231
326.280	3014
326.369	2344
326.457	2442
326.545	3108
326.634	2692
326.722	3155
326.810	3651
326.898	4459
326.987	4540
327.075	2384
327.163	4334
327.251	3742
327.340	3429
327.428	5373
327.516	6669
327.604	5113
327.692	4367
327.781	3557
327.869	2523
327.957	2416
328.045	1788
328.133	2732
328.221	2632
328.309	2957
328.397	2488
328.485	3960
328.574	5083
328.662	9219
328.750	5920
328.838	4179
328.926	2812
329.014	2949
329.102	2116
329.190	3436
329.278	2424
329.366	2295
329.454	2812
329.542	1812
329.630	2107
329.718	3484
329.806	2519
329.893	2269
329.981	2162
330.069	2823
330.157	3629
330.245	2851
330.333	2673
330.421	2956
330.509	2921
330.597	2623
330.684	2447
330.772	3102
330.860	2302
330.948	3083
331.036	2052
331.123	2568
331.211	2328
331.299	2925
331.387	2635
331.475	2740
331.562	2577
331.650	2504
331.738	2598
331.825	1916
331.913	2957
332.001	3024
332.089	2637
332.176	2825
332.264	2541
332.352	2861
332.439	2871
332.527	3084
332.614	1688
332.702	2471
332.790	3242
332.877	3210
332.965	4025
333.052	3926
333.140	3776
333.228	4495
333.315	4056
333.403	4220
333.490	4353
333.578	4381
333.665	6695
333.753	5947
333.840	4998
333.928	5898
334.015	7528
334.103	8450
334.190	10646
334.278	14994
334.365	18907
334.452	20409
334.540	14702
334.627	13940
334.715	18713
334.802	24376
334.889	34295
334.977	45210
335.064	31245
335.151	17522
335.239	13277
335.326	10722
335.413	10609
335.501	11097
335.588	11446
335.675	14238
335.762	16294
335.850	21659
335.937	29570
336.024	44370
336.111	61269
336.199	56654
336.286	29664
336.373	17607
336.460	12197
336.547	9969
336.635	8457
336.722	6990
336.809	5816
336.896	5861
336.983	5608
337.070	5565
337.157	4834
337.245	4783
337.332	4996
337.419	5264
337.506	4943
337.593	4705
337.680	4310
337.767	5031
337.854	3785
337.941	4338
338.028	4357
338.115	3968
338.202	4969
338.289	3940
338.376	3054
338.463	4015
338.550	3213
338.637	3883
338.724	4358
338.811	3970
338.898	2541
338.984	3575
339.071	3492
339.158	3109
339.245	2948
339.332	4106
339.419	3659
339.506	3215
339.593	3063
339.679	3842
339.766	3165
339.853	3108
339.940	3257
340.027	3055
340.113	3286
340.200	2785
340.287	2813
340.374	2476
340.460	2954
340.547	1615
340.634	3384
340.720	3853
340.807	2187
340.894	3897
340.980	2903
341.067	2714
341.154	3874
341.240	2324
341.327	2949
341.414	3999
341.500	2934
341.587	3891
341.674	3129
341.760	3429
341.847	2168
341.933	2466
342.020	2737
342.106	3042
342.193	3175
342.279	2768
342.366	2192
342.452	3060
342.539	2207
342.625	2789
342.712	2357
342.798	2575
342.885	2237
342.971	2873
343.058	2668
343.144	3395
343.230	3514
343.317	2657
343.403	2489
343.490	3684
343.576	2835
343.662	2635
343.749	2396
343.835	2659
343.921	2151
344.008	4618
344.094	6598
344.180	3431
344.267	2395
344.353	2413
344.439	3364
344.525	2427
344.612	2778
344.698	2548
344.784	1595
344.870	3304
344.957	1524
345.043	3570
345.129	2584
345.215	3301
345.301	2985
345.387	2632
345.474	2789
345.560	3290
345.646	2419
345.732	3208
345.818	2625
345.904	3144
345.990	2678
346.076	1330
346.162	1804
346.249	3345
346.335	2062
346.421	4204
346.507	3672
346.593	3634
346.679	1993
346.765	5004
346.851	6881
346.937	5207
347.023	4481
347.108	3467
347.194	3056
347.280	3440
347.366	3947
347.452	12501
347.538	14360
347.624	8813
347.710	5080
347.796	4149
347.882	2589
347.967	3439
348.053	3101
348.139	3341
348.225	2817
348.311	2436
348.397	2686
348.482	4248
348.568	3854
348.654	6690
348.740	18898
348.825	20906
348.911	9880
348.997	5170
349.083	4720
349.168	3899
349.254	3183
349.340	2977
349.425	3211
349.511	3946
349.597	2786
349.682	2957
349.768	3447
349.854	2959
349.939	3755
350.025	2654
350.110	3105
350.196	3107
350.282	2270
350.367	4195
350.453	3161
350.538	3036
350.624	2063
350.709	3250
350.795	2179
350.880	1856
350.966	3199
351.051	1975
351.137	2032
351.222	3477
351.308	2603
351.393	2905
351.479	2706
351.564	2176
351.649	2482
351.735	3109
351.820	2453
351.906	2771
351.991	2107
352.076	2674
352.162	3451
352.247	2222
352.332	2317
352.418	1906
352.503	1951
352.588	3895
352.673	2442
352.759	2645
352.844	1944
352.929	2490
353.014	2027
353.100	3058
353.185	3511
353.270	2199
353.355	3078
353.441	2935
353.526	2342
353.611	2991
353.696	2422
353.781	3911
353.866	1815
353.952	3601
354.037	1883
354.122	2817
354.207	2334
354.292	2991
354.377	2822
354.462	2760
354.547	2459
354.632	3340
354.717	2542
354.802	2640
354.887	2829
354.972	2426
355.057	2060
355.142	2416
355.227	3627
355.312	3000
355.397	2842
355.482	3195
355.567	2132
355.652	3701
355.737	2659
355.822	2949
355.907	2099
355.991	4054
356.076	2344
356.161	3174
356.246	3062
356.331	3098
356.416	1661
356.501	5408
356.585	3257
356.670	2107
356.755	4808
356.840	2848
356.924	4273
357.009	6395
357.094	4326
357.179	3264
357.263	2761
357.348	3718
357.433	2701
357.517	3471
357.602	2357
357.687	2913
357.771	3325
357.856	2813
357.941	3928
358.025	4513
358.110	9677
358.195	5812
358.279	2952
358.364	3452
358.448	3240
358.533	4558
358.617	3529
358.702	3505
358.787	3487
358.871	3775
358.956	2797
359.040	3523
359.125	3707
359.209	4050
359.294	3688
359.378	6520
359.462	6518
359.547	4580
359.631	3127
359.716	2578
359.800	2756
359.885	4776
359.969	2711
360.053	3978
360.138	3242
360.222	3243
360.306	3327
360.391	3550
360.475	3822
360.559	4045
360.644	3382
360.728	3222
360.812	5089
360.896	5916
360.981	4727
361.065	3497
361.149	4624
361.233	4509
361.318	3761
361.402	5100
361.486	5344
361.570	4908
361.654	4641
361.739	5997
361.823	6684
361.907	9666
361.991	9073
362.075	10934
362.159	15064
362.243	27516
362.327	55424
362.411	73794
362.495	32269
362.580	18410
362.664	17771
362.748	21062
362.832	32300
362.916	60794
363.000	128407
363.084	153316
363.168	65703
363.252	26862
363.336	17204
363.420	14017
363.503	11020
363.587	10811
363.671	10513
363.755	10297
363.839	13903
363.923	13448
364.007	18605
364.091	26083
364.175	38747
364.258	75050
364.342	147238
364.426	215086
364.510	123546
364.594	48413
364.677	25245
364.761	16895
364.845	12960
364.929	9504
365.013	7768
365.096	7425
365.180	5859
365.264	7184
365.347	6597
365.431	5613
365.515	4447
365.598	4463
365.682	6159
365.766	4691
365.849	5285
365.933	4336
366.017	6722
366.100	4267
366.184	4668
366.267	6027
366.351	4777
366.435	4713
366.518	4382
366.602	4895
366.685	5210
366.769	5057
366.852	4842
366.936	5535
367.019	4496
367.103	4004
367.186	7055
367.270	5030
367.353	5062
367.436	6404
367.520	5969
367.603	6850
367.687	4241
367.770	5643
367.853	6418
367.937	6270
368.020	6289
368.104	3867
368.187	5343
368.270	4891
368.353	4200
368.437	3672
368.520	4260
368.603	3825
368.687	3054
368.770	4487
368.853	3598
368.936	4722
369.020	4163
369.103	3444
369.186	3473
369.269	3245
369.352	4372
369.436	3550
369.519	3380
369.602	2124
369.685	4911
369.768	3631
369.851	4545
369.934	3207
370.018	2648
370.101	3176
370.184	5532
370.267	4797
370.350	4274
370.433	4409
370.516	10151
370.599	27831
370.682	11488
370.765	6308
370.848	5865
370.931	3714
371.014	4442
371.097	2926
371.180	4941
371.263	4477
371.346	2694
371.429	4346
371.511	3152
371.594	4031
371.677	3750
371.760	4180
371.843	3122
371.926	6399
372.009	9324
372.091	7989
372.174	3247
372.257	5591
372.340	3131
372.423	4643
372.505	5510
372.588	4077
372.671	4403
372.754	3846
372.836	4057
372.919	4267
373.002	4416
373.085	3327
373.167	4495
373.250	3719
373.332	5700
373.415	8601
373.498	10705
373.580	12272
373.663	38116
373.746	34861
373.828	8451
373.911	6631
373.993	4113
374.076	5101
374.159	4967
374.241	5508
374.324	5340
374.406	6222
374.489	6685
374.571	8888
374.654	5817
374.736	6296
374.819	7127
374.901	10466
374.983	8819
375.066	6917
375.148	5888
375.231	6326
375.313	7099
375.395	6274
375.478	7410
375.560	7088
375.643	6320
375.725	6561
375.807	6705
375.890	8288
375.972	5689
376.054	5921
376.136	4852
376.219	4933
376.301	6140
376.383	5934
376.465	4922
376.548	3505
376.630	4662
376.712	5003
376.794	3880
376.877	4692
376.959	2925
377.041	4117
377.123	3677
377.205	4416
377.287	3407
377.369	5041
377.452	4535
377.534	4485
377.616	4432
377.698	4064
377.780	3161
377.862	4082
377.944	4929
378.026	2888
378.108	4082
378.190	4696
378.272	4796
378.354	3971
378.436	3173
378.518	2979
378.600	3798
378.682	4160
378.764	3519
378.846	3795
378.928	3408
379.010	3229
379.091	3701
379.173	3644
379.255	3356
379.337	3404
379.419	3956
379.501	5483
379.583	2959
379.664	3658
379.746	2490
379.828	4607
379.910	3475
379.991	5059
380.073	3571
380.155	3385
380.237	4142
380.318	3785
380.400	3708
380.482	4669
380.564	3107
380.645	3573
380.727	3127
380.809	4798
380.890	3673
380.972	3098
381.053	3276
381.135	4027
381.217	2727
381.298	5067
381.380	3336
381.461	4014
381.543	4704
381.624	5470
381.706	4150
381.787	4295
381.869	4767
381.951	4580
382.032	6814
382.113	8262
382.195	3168
382.276	6149
382.358	4395
382.439	5419
382.521	7833
382.602	8479
382.684	6837
382.765	8535
382.846	17141
382.928	32954
383.009	18986
383.090	19083
383.172	50802
383.253	64151
383.334	21296
383.416	10696
383.497	9645
383.578	10257
383.659	16962
383.741	50428
383.822	100848
383.903	47147
383.984	13915
384.066	12301
384.147	8210
384.228	8747
384.309	8341
384.390	9156
384.471	9013
384.553	7964
384.634	7279
384.715	7855
384.796	5580
384.877	5990
384.958	6041
385.039	5611
385.120	5700
385.201	6844
385.282	6015
385.363	7677
385.444	5885
385.525	8551
385.606	7732
385.687	8005
385.768	8906
385.849	7747
385.930	10192
386.011	11884
386.092	7977
386.173	9066
386.254	8489
386.335	8529
386.416	7382
386.496	8736
386.577	8161
386.658	7549
386.739	7369
386.820	9173
386.901	7993
386.981	11081
387.062	11203
387.143	11705
387.224	12102
387.304	13980
387.385	15210
387.466	13118
387.547	15612
387.627	15059
387.708	16198
387.789	14820
387.869	13909
387.950	13536
388.031	11716
388.111	9046
388.192	11329
388.273	11543
388.353	9535
388.434	8087
388.514	8272
388.595	8966
388.676	8783
388.756	7576
388.837	7865
388.917	7392
388.998	5176
389.078	7925
389.159	7034
389.239	5220
389.320	8315
389.400	4909
389.480	7409
389.561	7106
389.641	7823
389.722	7162
389.802	5799
389.883	7331
389.963	8280
390.043	6731
390.124	5380
390.204	6914
390.284	6642
390.365	6045
390.445	7119
390.525	6052
390.605	7424
390.686	6127
390.766	7097
390.846	8340
390.927	6309
391.007	6276
391.087	8421
391.167	6921
391.247	6010
391.328	9267
391.408	7797
391.488	7835
391.568	7162
391.648	8884
391.728	10235
391.808	10496
391.888	9332
391.969	10990
392.049	11268
392.129	11987
392.209	13248
392.289	16054
392.369	16080
392.449	17154
392.529	17684
392.609	22014
392.689	23911
392.769	28203
392.849	35660
392.929	45820
393.009	58725
393.089	86754
393.169	143749
393.248	258915
393.328	387958
393.408	374433
393.488	244497
393.568	132212
393.648	78575
393.728	52313
393.807	35997
393.887	30721
393.967	25239
394.047	21066
394.127	17200
394.206	16566
394.286	18231
394.366	36154
394.446	35920
394.525	15137
394.605	11647
394.685	12503
394.764	13815
394.844	23790
394.924	30960
395.003	14872
395.083	10349
395.163	10472
395.242	9781
395.322	10908
395.402	8687
395.481	13094
395.561	13386
395.640	35204
395.720	69061
395.799	36325
395.879	15502
395.958	14569
396.038	19974
396.117	46486
396.197	48849
396.276	25190
396.356	22938
396.435	28851
396.515	39825
396.594	59993
396.673	112104
396.753	233197
396.832	356366
396.912	288546
396.991	137564
397.070	69787
397.150	42534
397.229	37381
397.308	61197
397.388	102863
397.467	54314
397.546	22149
397.625	13403
397.705	14050
397.784	11946
397.863	10738
397.942	9963
398.022	8986
398.101	7585
398.180	8538
398.259	6850
398.338	7679
398.417	6088
398.497	6794
398.576	6976
398.655	5404
398.734	6556
398.813	6045
398.892	5607
398.971	6153
399.050	4613
399.129	5023
399.208	5698
399.287	6610
399.366	3945
399.445	5064
399.524	5102
399.603	3185
399.682	4670
399.761	4588
399.840	4536
399.919	5361
399.998	4391
400.077	4420
400.156	2797
400.235	6772
400.313	3948
400.392	3574
400.471	4879
400.550	4363
400.629	3032
400.708	3851
400.786	3023
400.865	2994
400.944	2368
401.023	4991
401.102	2885
401.180	3702
401.259	2979
401.338	4094
401.416	3753
401.495	2648
401.574	3710
401.652	2977
401.731	3890
401.810	2110
401.888	2971
401.967	2637
402.046	2323
402.124	3259
402.203	2034
402.281	3113
402.360	2457
402.438	3996
402.517	2469
402.596	3984
402.674	2202
402.753	3232
402.831	3870
402.910	5188
402.988	3855
403.066	5667
403.145	4802
403.223	5109
403.302	4897
403.380	5668
403.459	5605
403.537	4076
403.615	4073
403.694	2989
403.772	5236
403.850	4140
403.929	3740
404.007	3078
404.085	4841
404.164	3150
404.242	3227
404.320	4223
404.398	4377
404.477	3391
404.555	6141
404.633	5182
404.711	3024
404.789	4221
404.868	3237
404.946	2262
405.024	3335
405.102	3232
405.180	2423
405.258	1779
405.336	3820
405.415	2268
405.493	2729
405.571	3683
405.649	2534
405.727	2838
405.805	4228
405.883	4284
405.961	4460
406.039	2242
406.117	1600
406.195	2592
406.273	1465
406.351	4379
406.429	4736
406.507	2492
406.585	1934
406.663	3766
406.740	2433
406.818	2325
406.896	3026
406.974	4054
407.052	1869
407.130	4021
407.208	3565
407.285	3783
407.363	2845
407.441	3859
407.519	4014
407.596	6760
407.674	21733
407.752	74784
407.830	49633
407.907	9306
407.985	4398
408.063	3967
408.141	1955
408.218	4169
408.296	1754
408.373	3710
408.451	4136
408.529	4901
408.606	3527
408.684	4805
408.762	5063
408.839	5447
408.917	4856
408.994	6620
409.072	6243
409.149	8596
409.227	13596
409.304	20019
409.382	21657
409.459	25432
409.537	32948
409.614	29353
409.692	24231
409.769	24308
409.846	32068
409.924	38813
410.001	28166
410.079	22167
410.156	17600
410.233	13873
410.311	10942
410.388	10279
410.465	9423
410.543	8500
410.620	7664
410.697	7779
410.775	6611
410.852	6228
410.929	7991
411.006	8266
411.083	6130
411.161	6558
411.238	6256
411.315	5722
411.392	5778
411.469	5952
411.547	4976
411.624	4182
411.701	3895
411.778	4605
411.855	4198
411.932	3281
412.009	3198
412.086	4561
412.163	3331
412.240	3054
412.317	3826
412.394	3316
412.471	3706
412.548	2768
412.625	3281
412.702	3277
412.779	3423
412.856	3299
412.933	2341
413.010	3066
413.087	2797
413.164	2948
413.241	3451
413.318	2252
413.395	3306
413.471	2989
413.548	2321
413.625	3238
413.702	2266
413.779	2523
413.855	2725
413.932	1806
414.009	1206
414.086	3047
414.162	2717
414.239	2806
414.316	2174
414.393	4189
414.469	1732
414.546	2342
414.623	1913
414.699	2173
414.776	2265
414.853	2207
414.929	2342
415.006	2281
415.082	2759
415.159	2238
415.236	1814
415.312	2796
415.389	2320
415.465	1342
415.542	1394
415.618	1614
415.695	2906
415.771	1604
415.848	1712
415.924	2100
416.000	1376
416.077	2692
416.153	1561
416.230	2260
416.306	2035
416.383	2145
416.459	2788
416.535	2282
416.612	2312
416.688	2756
416.764	1689
416.841	2192
416.917	2052
416.993	2379
417.069	2329
417.146	1766
417.222	1733
417.298	2630
417.374	1735
417.451	2726
417.527	1999
417.603	2422
417.679	2463
417.755	2188
417.831	2250
417.908	3194
417.984	1920
418.060	1488
418.136	3231
418.212	2599
418.288	1720
418.364	3442
418.440	1948
418.516	3558
418.592	4369
418.668	2504
418.744	2266
418.820	3202
418.896	3501
418.972	2631
419.048	2486
419.124	3961
419.200	2422
419.276	3795
419.352	3458
419.428	3409
419.504	2753
419.579	4457
419.655	3513
419.731	4068
419.807	4650
419.883	4401
419.959	5049
420.034	5919
420.110	5192
420.186	5490
420.262	6456
420.337	6592
420.413	6545
420.489	7265
420.565	8444
420.640	8193
420.716	8179
420.792	8342
420.867	9686
420.943	10219
421.019	9974
421.094	11247
421.170	13039
421.245	13629
421.321	15959
421.397	17803
421.472	34896
421.548	68838
421.623	44180
421.699	26755
421.774	27878
421.850	31081
421.925	37516
422.001	44136
422.076	53198
422.152	64935
422.227	81533
422.302	106294
422.378	138125
422.453	180666
422.529	215180
422.604	187370
422.679	135255
422.755	187877
422.830	217231
422.905	183073
422.981	143339
423.056	110414
423.131	89246
423.207	69565
423.282	56214
423.357	47817
423.432	38595
423.508	35319
423.583	28794
423.658	26908
423.733	24016
423.808	22899
423.883	20550
423.959	21550
424.034	23525
424.109	22167
424.184	16681
424.259	14267
424.334	12950
424.409	11919
424.484	11010
424.559	10298
424.634	9131
424.709	8717
424.784	8130
424.859	7580
424.934	7329
425.009	7127
425.084	6979
425.159	5887
425.234	6588
425.309	5763
425.384	6104
425.459	5397
425.534	5091
425.609	4712
425.683	4381
425.758	4741
425.833	4768
425.908	5760
425.983	4154
426.058	5180
426.132	4830
426.207	4312
426.282	5343
426.357	3663
426.431	4403
426.506	4451
426.581	3963
426.655	3735
426.730	4034
426.805	3510
426.879	3796
426.954	4066
427.029	3236
427.103	4259
427.178	4155
427.253	3834
427.327	3501
427.402	3156
427.476	3679
427.551	3149
427.625	3084
427.700	3142
427.774	3337
427.849	4880
427.923	4086
427.998	4617
428.072	5758
428.147	12708
428.221	45335
428.296	111844
428.370	62974
428.444	14421
428.519	6430
428.593	5602
428.667	5707
428.742	8855
428.816	21444
428.890	74288
428.965	99793
429.039	30643
429.113	8530
429.188	5258
429.262	4433
429.336	4633
429.410	3203
429.485	4620
429.559	4851
429.633	4718
429.707	7957
429.781	19340
429.855	71283
429.930	89528
430.004	30939
430.078	23222
430.152	59103
430.226	149508
430.300	136993
430.374	45239
430.448	17077
430.522	11483
430.596	11489
430.670	30093
430.744	89131
430.818	87539
430.892	22307
430.966	7947
431.040	5368
431.114	3353
431.188	3195
431.262	2993
431.336	3140
431.410	3693
431.484	2876
431.557	4007
431.631	4910
431.705	11617
431.779	39076
431.853	110337
431.927	72344
432.000	16890
432.074	5996
432.148	3294
432.222	1701
432.295	2060
432.369	1223
432.443	1718
432.516	1367
432.590	2308
432.664	2082
432.737	1266
432.811	599
432.885	963
432.958	1656
433.032	1192
433.106	1092
433.179	2229
433.253	822
433.326	1237
433.400	770
433.473	1761
433.547	842
433.620	1284
433.694	1058
433.767	2124
433.841	1258
433.914	1542
433.988	1334
434.061	2369
434.134	2224
434.208	1643
434.281	1863
434.355	1557
434.428	1408
434.501	1723
434.575	1139
434.648	821
434.721	1076
434.795	1675
434.868	2055
434.941	1949
435.014	1982
435.088	2283
435.161	2402
435.234	3820
435.307	4360
435.381	6376
435.454	9543
435.527	15932
435.600	17213
435.673	16211
435.746	12867
435.819	9899
435.892	8001
435.966	6279
436.039	5316
436.112	4664
436.185	4083
436.258	3531
436.331	2278
436.404	1868
436.477	2079
436.550	2403
436.623	2390
436.696	2248
436.769	836
436.842	964
436.915	1252
436.987	1000
437.060	1774
437.133	1244
437.206	1048
437.279	1588
437.352	918
437.425	1448
437.498	959
437.570	676
437.643	200
437.716	1019
437.789	667
437.861	1121
437.934	941
438.007	1115
438.080	45
438.152	699
438.225	1031
438.298	2183
438.370	2890
438.443	2418
438.516	1781
438.588	1446
438.661	617
438.734	858
438.806	967
438.879	932
438.951	989
439.024	1794
439.096	1256
439.169	926
439.241	897
439.314	1114
439.386	164
439.459	1109
439.531	1101
439.604	334
439.676	1085
439.749	890
439.821	979
439.893	1250
439.966	680
440.038	1219
440.110	1827
440.183	96
440.255	588
440.327	1385
440.400	1376
440.472	2087
440.544	2406
440.617	1729
440.689	2429
440.761	2177
440.833	1934
440.905	1562
440.978	1043
441.050	1390
441.122	2268
441.194	1202
441.266	1545
441.338	1427
441.411	2046
441.483	2609
441.555	1733
441.627	2660
441.699	2622
441.771	2292
441.843	2678
441.915	4102
441.987	3327
442.059	4375
442.131	5044
442.203	6639
442.275	9789
442.347	16467
442.419	37242
442.491	113535
442.563	186969
442.635	96582
442.706	31363
442.778	15983
442.850	11284
442.922	9555
442.994	9071
443.066	11440
443.137	13269
443.209	18750
443.281	28896
443.353	57455
443.425	139227
443.496	258200
443.568	258494
443.640	140035
443.711	54623
443.783	27332
443.855	17403
443.926	11769
443.998	9396
444.070	7614
444.141	6399
444.213	6450
444.285	6087
444.356	5168
444.428	5457
444.499	5330
444.571	5867
444.642	6284
444.714	6287
444.785	7395
444.857	7871
444.928	10106
445.000	11908
445.071	16008
445.143	20604
445.214	32242
445.285	51504
445.357	105908
445.428	218791
445.500	286982
445.571	266511
445.642	203137
445.714	99497
445.785	44298
445.856	23462
445.928	15509
445.999	11872
446.070	9291
446.141	7422
446.213	6041
446.284	5136
446.355	4608
446.426	3844
446.497	3377
446.569	3014
446.640	2511
446.711	2975
446.782	1596
446.853	2245
446.924	2748
446.995	1896
447.066	1966
447.138	1832
447.209	1782
447.280	1130
447.351	2097
447.422	238
447.493	1232
447.564	543
447.635	599
447.706	714
447.777	1009
447.847	922
447.918	208
447.989	-196
448.060	803
448.131	317
448.202	493
448.273	561
448.344	1726
448.414	997
448.485	687
448.556	1553
448.627	1055
448.698	1451
448.768	782
448.839	573
448.910	195
448.981	455
449.051	228
449.122	515
449.193	73
449.263	377
449.334	724
449.405	632
449.475	940
449.546	1152
449.616	1489
449.687	1694
449.758	935
449.828	847
449.899	447
449.969	81
450.040	1138
450.110	902
450.181	820
450.251	211
450.322	1269
450.392	629
450.463	674
450.533	774
450.604	1277
450.674	1141
450.744	2062
450.815	2010
450.885	3027
450.955	3032
451.026	3729
451.096	2593
451.166	2525
451.237	3159
451.307	4905
451.377	3327
451.447	3765
451.518	2271
451.588	1701
451.658	1880
451.728	1065
451.799	1544
451.869	1637
451.939	782
452.009	1527
452.079	1256
452.149	2150
452.219	2074
452.289	2550
452.360	2294
452.430	3554
452.500	5903
452.570	9529
452.640	20779
452.710	44617
452.780	54991
452.850	37502
452.920	20957
452.990	12952
453.060	8959
453.129	5280
453.199	4862
453.269	3712
453.339	2861
453.409	2031
453.479	1834
453.549	1579
453.619	1816
453.688	1366
453.758	1796
453.828	1196
453.898	475
453.968	638
454.037	1018
454.087	1005
454.107	986
454.168	445
454.177	349
454.247	430
454.249	476
454.316	1303
454.330	1233
454.386	873
454.411	861
454.456	797
454.492	544
454.525	314
454.574	517
454.595	572
454.655	708
454.665	714
454.734	712
454.736	739
454.804	1063
454.817	1171
454.873	1589
454.898	1650
454.943	1722
454.979	1341
455.013	972
455.060	1351
455.082	1496
455.141	1364
455.152	1316
455.221	2449
455.222	2440
455.291	875
455.303	1155
455.360	2201
455.384	2978
455.430	4079
455.465	3624
455.499	3265
455.546	2150
455.569	1625
455.627	1925
455.638	1964
455.707	573
455.708	596
455.777	1480
455.789	1469
455.846	1472
455.869	1657
455.916	1851
455.950	1724
455.985	1620
456.031	1662
456.054	1615
456.112	1531
456.124	1543
456.193	2124
456.193	2107
456.262	1615
456.274	1732
456.332	2340
456.355	2282
456.401	2048
456.436	2138
456.470	2160
456.516	1934
456.540	1836
456.597	2080
456.609	2134
456.678	2852
456.678	2834
456.747	2480
456.759	2452
456.817	2629
456.840	2904
456.886	3279
456.920	3318
456.955	3277
457.001	3189
457.024	3186
457.082	3264
457.093	3233
457.162	3851
457.163	3870
457.232	4237
457.243	4291
457.301	4302
457.324	4323
457.370	4480
457.405	5320
457.439	6143
457.485	6396
457.508	6637
457.566	8801
457.577	9507
457.646	13667
457.647	13762
457.715	29362
457.727	33143
457.784	57900
457.808	76945
457.853	100969
457.889	119732
457.922	123498
457.969	94028
457.991	94094
458.050	98512
458.060	100274
458.129	159465
458.130	161321
458.198	173862
458.211	162032
458.267	109232
458.292	82374
458.336	56344
458.372	48653
458.405	53879
458.453	72492
458.474	88121
458.533	152607
458.543	157674
458.611	238292
458.614	239720
458.680	178537
458.694	151738
458.749	87152
458.775	64684
458.818	39108
458.855	29357
458.887	23024
458.936	17592
458.955	15684
459.016	12546
459.024	12246
459.093	10910
459.097	10822
459.162	8837
459.177	8593
459.230	7881
459.257	7590
459.299	7015
459.338	7023
459.368	7113
459.418	6527
459.437	6225
459.499	6053
459.505	6070
459.574	5957
459.579	5979
459.643	6297
459.659	6271
459.711	5826
459.740	5704
459.780	5617
459.820	5556
459.849	5679
459.900	6254
459.917	6314
459.981	5946
459.986	5866
460.054	5233
460.061	5226
460.123	6195
460.141	6265
460.191	6258
460.222	6233
460.260	6270
460.302	6746
460.328	7099
460.382	7799
460.397	8228
460.462	10405
460.465	10906
460.534	23330
460.543	25039
460.602	65439
460.623	81824
460.671	123627
460.703	163311
460.739	150337
460.783	115955
460.808	99643
460.864	32346
460.876	25881
460.944	10496
460.945	10344
461.013	8260
461.024	7890
461.081	6287
461.104	6260
461.150	5825
461.184	5189
461.218	5498
461.264	6028
461.286	5860
461.345	5421
461.355	5346
461.423	5180
461.425	5155
461.491	4815
461.505	5061
461.559	5613
461.585	5379
461.628	4998
461.665	5043
461.696	5289
461.745	5501
461.764	5420
461.825	4877
461.832	4858
461.901	5066
461.905	5081
461.969	4539
461.985	4325
462.037	5324
462.065	6101
462.105	5646
462.145	5179
462.173	5140
462.225	4612
462.241	4639
462.305	4979
462.310	4978
462.378	5256
462.385	5262
462.446	5724
462.465	5876
462.514	5705
462.545	5535
462.582	5317
462.625	5224
462.650	5260
462.705	5022
462.718	5007
462.785	5393
462.786	5390
462.854	4485
462.865	4377
462.922	4357
462.945	4474
462.990	4795
463.025	4807
463.058	4942
463.104	5273
463.126	5161
463.184	5081
463.194	5199
463.262	5451
463.264	5464
463.330	5397
463.344	5394
463.398	5679
463.424	5674
463.466	5257
463.504	5270
463.533	5443
463.583	5198
463.601	5078
463.663	4873
463.669	4868
463.737	4801
463.743	4780
463.805	4952
463.823	5070
463.873	5163
463.903	5064
463.940	4755
463.982	4650
464.008	4773
464.062	4656
464.076	4683
464.142	5253
464.144	5281
464.211	5597
464.221	5696
464.279	5643
464.301	5529
464.347	5082
464.381	4755
464.414	4805
464.461	5000
464.482	5113
464.540	5229
464.550	5233
464.617	5138
464.620	5135
464.685	5199
464.699	5182
464.753	5516
464.779	5657
464.820	5844
464.859	6075
464.888	5606
464.938	4631
464.956	4935
465.018	6054
465.023	6061
465.091	6116
465.098	6109
465.158	5255
465.177	4993
465.226	5724
465.257	6140
465.293	5568
465.336	4854
465.361	5104
465.416	5646
465.428	5687
465.495	6049
465.496	6057
465.563	5623
465.575	5549
465.631	5366
465.654	5357
465.698	5419
465.734	5363
465.765	5682
465.813	6114
465.833	6040
465.893	5831
465.900	5881
465.968	6295
465.972	6304
466.035	5494
466.052	5257
466.102	5319
466.131	5438
466.170	5253
466.210	4979
466.237	5546
466.290	6595
466.304	6410
466.369	5539
466.372	5559
466.439	5917
466.449	5946
466.506	5987
466.528	6011
466.573	5919
466.607	5779
466.641	6140
466.687	6706
466.708	6781
466.766	6868
466.775	6738
466.842	5702
466.845	5643
466.909	5941
466.925	6008
466.977	6260
467.004	6358
467.044	6822
467.083	7278
467.111	7506
467.163	7910
467.178	7902
467.242	7792
467.245	7789
467.312	7505
467.321	7457
467.379	7334
467.400	7271
467.446	7965
467.480	8445
467.559	8172
467.638	8081
467.717	8307
467.796	9860
467.875	10278
467.955	10273
468.034	12352
468.113	13448
468.192	16255
468.271	21844
468.350	29365
468.429	38537
468.508	39800
468.588	25083
468.667	17159
468.746	12642
468.825	10969
468.904	10034
468.983	8719
469.062	8902
469.141	8380
469.220	7448
469.299	8363
469.378	5979
469.456	8950
469.535	8205
469.614	7461
469.693	6301
469.772	7192
469.851	7417
469.930	7902
470.009	7973
470.088	6863
470.166	7889
470.245	9748
470.324	10719
470.403	8754
470.482	7615
470.560	7590
470.639	7490
470.718	7431
470.797	7200
470.875	7738
470.954	6796
471.033	7305
471.111	6522
471.190	7104
471.269	7215
471.347	5962
471.426	6908
471.505	7087
471.583	7445
471.662	7515
471.740	6986
471.819	7088
471.898	6942
471.976	7037
472.055	6999
472.133	12571
472.212	18468
472.290	8445
472.369	7551
472.447	6804
472.526	6429
472.604	7036
472.683	6876
472.761	6987
472.839	6379
472.918	8094
472.996	6987
473.075	7484
473.153	8213
473.231	6972
473.310	7208
473.388	7119
473.466	8078
473.545	7281
473.623	8394
473.701	7797
473.780	7856
473.858	6443
473.936	8976
474.014	8062
474.093	12019
474.171	17520
474.249	10037
474.327	6881
474.405	6961
474.484	8276
474.562	6758
474.640	6840
474.718	7145
474.796	7389
474.874	7764
474.952	6429
475.030	6185
475.108	7178
475.187	7141
475.265	7603
475.343	8254
475.421	8243
475.499	8228
475.577	7291
475.655	6898
475.733	6332
475.811	6877
475.889	7058
475.966	6922
476.044	6466
476.122	6602
476.200	6897
476.278	5882
476.356	6813
476.434	6618
476.512	6747
476.590	6693
476.667	7644
476.745	6155
476.823	7296
476.901	6001
476.979	6456
477.056	7515
477.134	6324
477.212	6362
477.290	6221
477.367	6856
477.445	7456
477.523	6407
477.601	6290
477.678	5953
477.756	6977
477.834	6559
477.911	6401
477.989	6027
478.066	7471
478.144	6464
478.222	6807
478.299	9287
478.377	13642
478.454	12821
478.532	6375
478.609	6244
478.687	6615
478.764	6110
478.842	6617
478.919	6507
478.997	7002
479.074	7239
479.152	6668
479.229	6573
479.307	5818
479.384	6190
479.461	5950
479.539	6550
479.616	6222
479.694	6605
479.771	6062
479.848	6262
479.926	5864
480.003	7303
480.080	6216
480.157	7431
480.235	6862
480.312	7089
480.389	6986
480.467	7510
480.544	7653
480.621	9465
480.698	9922
480.775	9219
480.853	8363
480.930	7974
481.007	10419
481.084	21857
481.161	41461
481.238	18905
481.315	7022
481.392	8498
481.470	7576
481.547	7915
481.624	8697
481.701	8416
481.778	9062
481.855	8264
481.932	9981
482.009	9974
482.086	11327
482.163	13465
482.240	13820
482.317	14570
482.393	11948
482.470	12711
482.547	11072
482.624	10765
482.701	10606
482.778	11007
482.855	10879
482.932	11063
483.009	13043
483.085	19052
483.162	31889
483.239	27374
483.316	15373
483.393	15267
483.469	11927
483.546	11392
483.623	10485
483.699	9563
483.776	9331
483.853	7941
483.930	8508
484.006	8578
484.083	10537
484.160	10256
484.236	11328
484.313	10224
484.389	10631
484.466	14198
484.543	15386
484.619	20696
484.696	21622
484.772	14794
484.849	11632
484.925	9562
485.002	8821
485.078	9535
485.155	8575
485.231	7488
485.308	7342
485.384	7837
485.461	10083
485.537	9151
485.614	8827
485.690	7312
485.766	6980
485.843	7967
485.919	7552
485.995	7964
486.072	7529
486.148	7647
486.224	7272
486.301	7730
486.377	7888
486.453	6287
486.530	8518
486.606	9823
486.682	9867
486.758	10886
486.835	13701
486.911	12360
486.987	12965
487.063	14295
487.139	22273
487.215	36464
487.292	30950
487.368	24818
487.444	31699
487.520	50175
487.596	82310
487.672	157791
487.748	436322
487.824	640772
487.900	257248
487.976	82464
488.052	43261
488.128	28776
488.204	19192
488.280	17480
488.356	15246
488.432	12469
488.508	11362
488.584	10286
488.660	9853
488.736	10099
488.812	7751
488.888	9582
488.964	8149
489.039	7920
489.115	11621
489.191	15112
489.267	10924
489.343	6863
489.418	8413
489.494	7101
489.570	6233
489.646	8365
489.722	7535
489.797	7027
489.873	8412
489.949	8354
490.024	8204
490.100	7502
490.176	8456
490.251	7733
490.327	7098
490.403	7226
490.478	8005
490.554	7928
490.629	6736
490.705	5988
490.781	7249
490.856	5840
490.932	7516
491.007	7035
491.083	6223
491.158	6854
491.234	5804
491.309	6647
491.385	6380
491.460	5265
491.536	6015
491.611	5252
491.686	6295
491.762	5935
491.837	6354
491.913	5914
491.988	5774
492.063	6371
492.139	5894
492.214	5613
492.289	6408
492.365	4766
492.440	6543
492.515	4597
492.590	5824
492.666	5647
492.741	5777
492.816	5311
492.891	5013
492.967	6263
493.042	6116
493.117	5820
493.192	5444
493.267	7385
493.342	9188
493.418	11101
493.493	6214
493.568	6158
493.643	4429
493.718	5422
493.793	4362
493.868	5202
493.943	5275
494.018	6087
494.093	4780
494.168	5770
494.243	4578
494.318	4181
494.393	6354
494.468	4350
494.543	6214
494.618	4359
494.693	4399
494.768	5234
494.842	5351
494.917	6090
494.992	4274
495.067	4832
495.142	4715
495.217	4783
495.292	4846
495.366	3909
495.441	3864
495.516	5880
495.591	5363
495.665	6584
495.740	8188
495.815	6488
495.890	4903
495.964	4296
496.039	9598
496.114	16805
496.188	38977
496.263	24396
496.338	7087
496.412	5101
496.487	5478
496.561	5174
496.636	5662
496.710	8270
496.785	10385
496.860	6184
496.934	4828
497.009	4337
497.083	5387
497.158	5243
497.232	4882
497.307	4771
497.381	4998
497.455	4106
497.530	5545
497.604	4891
497.679	5124
497.753	5577
497.827	4725
497.902	3983
497.976	5824
498.050	5317
498.125	5580
498.199	5690
498.273	5699
498.348	5469
498.422	5741
498.496	5111
498.570	5622
498.645	4657
498.719	2717
498.793	4796
498.867	4995
498.941	4461
499.016	4201
499.090	4555
499.164	5988
499.238	6192
499.312	5652
499.386	5485
499.460	5760
499.534	5728
499.609	5903
499.683	4737
499.757	5219
499.831	5403
499.905	4842
499.979	5442
500.053	5411
500.127	5191
500.201	4455
500.275	6295
500.349	5364
500.422	5171
500.496	6260
500.570	5821
500.644	5961
500.718	6095
500.792	5905
500.866	6238
500.940	5625
501.013	5632
501.087	5432
501.161	6233
501.235	4252
501.309	8156
501.382	5503
501.456	6515
501.530	5279
501.603	4558
501.677	4818
501.751	3732
501.825	7073
501.898	4561
501.972	5405
502.046	5221
502.119	4825
502.193	5398
502.266	5192
502.340	5506
502.413	5220
502.487	6366
502.561	5340
502.634	5838
502.708	6146
502.781	4441
502.855	6916
502.928	4379
503.002	6018
503.075	4766
503.149	6149
503.222	5818
503.295	5877
503.369	7304
503.442	7673
503.516	9254
503.589	11485
503.662	13377
503.736	17744
503.809	23098
503.882	30339
503.956	46614
504.029	94938
504.102	251231
504.175	348106
504.249	149491
504.322	60906
504.395	32842
504.468	21756
504.542	15552
504.615	11395
504.688	10567
504.761	6706
504.834	9397
504.907	7349
504.980	6584
505.053	5893
505.127	3472
505.200	7711
505.273	5101
505.346	4618
505.419	4636
505.492	5978
505.565	5013
505.638	5166
505.711	3555
505.784	3886
505.857	3422
505.930	5981
506.003	3081
506.076	6013
506.149	3489
506.221	2047
506.294	5690
506.367	2342
506.440	3935
506.513	4264
506.586	3647
506.659	3480
506.731	3624
506.804	3239
506.877	2695
506.950	3944
507.022	4698
507.095	2233
507.168	4700
507.241	4944
507.313	2972
507.386	2853
507.459	4809
507.531	3488
507.604	2278
507.677	4475
507.749	2269
507.822	4628
507.894	2878
507.967	4449
508.040	2157
508.112	5068
508.185	2906
508.257	1943
508.330	4505
508.402	2460
508.475	3940
508.547	3384
508.620	3942
508.692	3262
508.765	3965
508.837	3406
508.909	3324
508.982	2027
509.054	4058
509.127	3336
509.199	3486
509.271	2290
509.344	2830
509.416	2842
509.488	2156
509.560	4264
509.633	2472
509.705	3652
509.777	2724
509.849	4104
509.922	2456
509.994	2792
510.066	3990
510.138	1557
510.210	5569
510.283	2532
510.355	3086
510.427	3722
510.499	3203
510.571	3032
510.643	2699
510.715	3856
510.787	1936
510.859	4128
510.931	2967
511.003	3624
511.076	3855
511.148	1840
511.219	2379
511.291	3926
511.363	4067
511.435	3466
511.507	2883
511.579	4218
511.651	3949
511.723	2783
511.795	4106
511.867	2764
511.939	3532
512.010	1861
512.082	3742
512.154	1878
512.226	3022
512.298	5199
512.369	3687
512.441	4107
512.513	3766
512.585	2582
512.656	3528
512.728	3071
512.800	3298
512.871	4787
512.943	3776
513.015	2225
513.086	3844
513.158	4309
513.230	2784
513.301	2372
513.373	4479
513.444	3421
513.516	4170
513.588	3741
513.659	3891
513.731	3392
513.802	2146
513.874	4803
513.945	3508
514.016	2969
514.088	3438
514.159	2489
514.231	4082
514.302	3651
514.374	4695
514.445	2287
514.516	5918
514.588	2453
514.659	3190
514.730	2971
514.802	4382
514.873	1142
514.944	6253
515.016	4429
515.087	2927
515.158	3676
515.229	5367
515.301	2510
515.372	4584
515.443	3408
515.514	3355
515.585	5047
515.656	7030
515.728	4965
515.799	2786
515.870	4465
515.941	3827
516.012	2421
516.083	5440
516.154	3574
516.225	5518
516.296	6057
516.367	5320
516.438	5954
516.509	6467
516.580	9635
516.651	28204
516.722	76473
516.793	26807
516.864	8943
516.935	9313
517.006	10833
517.077	12966
517.148	26095
517.219	122371
517.289	155246
517.360	20732
517.431	10803
517.502	7347
517.573	7735
517.643	6560
517.714	6585
517.785	8514
517.856	7911
517.926	11433
517.997	13832
518.068	14923
518.138	21481
518.209	28845
518.280	92650
518.350	288137
518.421	101421
518.492	37439
518.562	41098
518.633	57162
518.703	89322
518.774	195397
518.845	434914
518.915	372406
518.986	124738
519.056	56122
519.127	34337
519.197	23220
519.268	16670
519.338	14170
519.408	10945
519.479	9547
519.549	7850
519.620	9929
519.690	7468
519.760	6464
519.831	6203
519.901	5889
519.971	6460
520.042	5860
520.112	4623
520.182	5606
520.253	6165
520.323	4332
520.393	3416
520.463	6553
520.534	2337
520.604	7223
520.674	5675
520.744	4035
520.814	4686
520.885	5724
520.955	4279
521.025	3780
521.095	3168
521.165	4865
521.235	3965
521.305	4135
521.375	4780
521.445	5722
521.515	3718
521.585	6450
521.655	2638
521.725	5673
521.795	4951
521.865	1734
521.935	7000
522.005	3785
522.075	4477
522.145	7204
522.215	6576
522.285	6195
522.355	3965
522.424	6650
522.494	7154
522.564	6613
522.634	3458
522.704	6547
522.774	4673
522.843	6622
522.913	7455
522.983	5800
523.053	4601
523.122	6207
523.192	5054
523.262	5414
523.331	4049
523.401	6041
523.471	4621
523.540	5575
523.610	5673
523.680	5629
523.749	7127
523.819	10785
523.888	10291
523.958	6895
524.027	5763
524.097	5989
524.166	6052
524.236	4562
524.305	7438
524.375	5401
524.444	4422
524.514	9028
524.583	5237
524.653	5571
524.722	6826
524.791	5512
524.861	7580
524.930	6198
524.999	6465
525.069	8127
525.138	7192
525.207	7733
525.277	9028
525.346	9009
525.415	10576
525.484	12691
525.554	14588
525.623	21857
525.692	32717
525.761	30264
525.830	35283
525.900	45986
525.969	75176
526.038	144719
526.107	290362
526.176	714527
526.245	519936
526.314	185850
526.383	391883
526.452	479661
526.522	650405
526.591	531104
526.660	117828
526.729	72227
526.797	76285
526.867	109712
526.935	294969
527.004	859523
527.073	526075
527.142	105248
527.211	45774
527.280	29359
527.349	21628
527.418	15128
527.487	15326
527.555	10107
527.624	10486
527.693	9815
527.762	10669
527.831	7921
527.899	8963
527.968	8012
528.037	6211
528.106	7750
528.174	6679
528.243	6725
528.312	6617
528.380	6191
528.449	5938
528.518	7714
528.586	4957
528.655	8342
528.723	5866
528.792	6197
528.861	5596
528.929	5669
528.998	6691
529.066	6474
529.135	8572
529.203	7704
529.272	8500
529.340	10574
529.409	11630
529.477	8354
529.545	7976
529.614	11684
529.682	8053
529.751	10333
529.819	14005
529.887	12851
529.956	10627
530.024	12422
530.092	9656
530.161	11627
530.229	11136
530.297	12383
530.365	12194
530.434	12518
530.502	12048
530.570	11779
530.638	9403
530.707	10366
530.775	10960
530.843	10457
530.911	11094
530.979	11875
531.047	11830
531.115	12571
531.183	11403
531.252	11204
531.320	11195
531.388	10473
531.456	11904
531.524	10352
531.592	13435
531.660	15149
531.728	10284
531.796	11476
531.864	12029
531.932	11635
532.000	11563
532.067	11960
532.135	13691
532.203	15701
532.271	14125
532.339	17239
532.407	15008
532.475	15238
532.542	14481
532.610	14310
532.678	13390
532.746	16565
532.814	18030
532.881	15801
532.949	15898
533.017	14948
533.084	14274
533.152	13266
533.220	13286
533.287	12950
533.355	13622
533.423	15236
533.490	13645
533.558	14324
533.625	13980
533.693	13981
533.761	14435
533.828	14175
533.896	13045
533.963	15458
534.031	15408
534.098	19471
534.166	18470
534.233	17953
534.300	21740
534.368	20750
534.435	20833
534.503	22243
534.570	25383
534.637	27815
534.705	32362
534.772	41317
534.840	80232
534.907	325523
534.974	338881
535.041	52831
535.109	26532
535.176	20943
535.243	19157
535.310	18368
535.378	17732
535.445	17924
535.512	17869
535.579	16897
535.646	15722
535.714	16624
535.781	18319
535.848	19247
535.915	17440
535.982	16032
536.049	16579
536.116	17453
536.183	15947
536.250	15655
536.317	15567
536.384	17658
536.451	16516
536.518	17320
536.585	15879
536.652	18401
536.719	18338
536.786	15267
536.853	15911
536.920	17318
536.987	17281
537.053	15342
537.120	18006
537.187	18170
537.254	17242
537.321	17606
537.388	19480
537.454	16922
537.521	17570
537.588	17434
537.654	17449
537.721	18901
537.788	18630
537.855	17672
537.921	17793
537.988	17128
538.055	17135
538.121	15218
538.188	15914
538.254	15117
538.321	14396
538.388	17209
538.454	18862
538.521	19620
538.587	19624
538.654	17520
538.720	17148
538.787	17117
538.853	17862
538.920	16969
538.986	15190
539.053	15631
539.119	16181
539.185	15890
539.252	18106
539.318	17514
539.385	20602
539.451	17205
539.517	18149
539.583	17546
539.650	16786
539.716	17329
539.782	15490
539.849	16000
539.915	16931
539.981	15549
540.047	16227
540.114	16199
540.180	17642
540.246	16896
540.312	19470
540.378	18574
540.444	18537
540.510	18464
540.576	18358
540.643	16637
540.709	15583
540.775	16392
540.841	16730
540.907	16020
540.973	16307
541.039	15983
541.105	17377
541.171	17459
541.237	18204
541.303	18479
541.369	18998
541.435	17936
541.500	17213
541.566	15205
541.632	16491
541.698	18110
541.764	17903
541.830	17161
541.896	15613
541.961	17479
542.027	16372
542.093	18671
542.159	19203
542.224	16289
542.290	17769
542.356	14726
542.421	16809
542.487	16226
542.553	15833
542.618	16079
542.684	16357
542.750	17393
542.815	16853
542.881	16309
542.947	18784
543.012	18476
543.078	16415
543.143	15390
543.209	16522
543.274	16197
543.340	15891
543.405	17699
543.471	16823
543.536	17385
543.602	18598
543.667	15806
543.732	18688
543.798	17338
543.863	18100
543.928	17920
543.994	17115
544.059	18759
544.124	18263
544.190	18169
544.255	19494
544.320	19347
544.386	18341
544.451	19892
544.516	19436
544.581	18583
544.646	19484
544.712	21047
544.777	20759
544.842	19308
544.907	20030
544.972	20745
545.037	22655
545.102	24184
545.168	21515
545.233	22785
545.298	22940
545.363	21245
545.428	23045
545.493	24800
545.558	21813
545.623	23343
545.688	23165
545.753	24445
545.818	24838
545.883	27845
545.947	27209
546.012	28957
546.077	28232
546.142	32036
546.207	31938
546.272	33889
546.337	33351
546.401	34937
546.466	37029
546.531	38787
546.596	42006
546.661	42677
546.725	45924
546.790	47501
546.855	54018
546.919	58045
546.984	64920
547.049	70579
547.113	78817
547.178	87061
547.243	98991
547.307	115531
547.372	124774
547.436	123772
547.501	132679
547.565	142186
547.630	129625
547.695	125490
547.759	125313
547.823	128970
547.888	130282
547.952	133967
548.017	144503
548.081	160221
548.146	144959
548.210	144690
548.274	153903
548.339	151386
548.403	138425
548.468	129594
548.532	128916
548.596	135028
548.660	132596
548.725	144389
548.789	154717
548.853	148838
548.917	145128
548.982	139973
549.046	125413
549.110	115310
549.174	119877
549.238	139694
549.303	149968
549.367	156679
549.431	148057
549.495	138750
549.559	139750
549.623	162018
549.687	173152
549.751	172014
549.815	202643
549.879	203054
549.943	198436
550.007	206878
550.071	201452
550.135	183140
550.199	176167
550.263	171769
550.327	165481
550.391	177031
550.455	193997
550.519	195569
550.582	207988
550.646	231606
550.710	234328
550.774	232077
550.838	237087
550.901	243609
550.965	258153
551.029	270264
551.093	289384
551.156	318785
551.220	351775
551.284	365109
551.347	292790
551.411	254604
551.475	241522
551.538	249619
551.602	232319
551.666	218868
551.729	209127
551.793	203137
551.856	201150
551.920	196043
551.983	197415
552.047	194144
552.110	197599
552.174	203036
552.237	201603
552.301	186730
552.364	180086
552.428	174144
552.491	180991
552.554	182773
552.618	182753
552.681	187012
552.745	177653
552.808	185838
552.871	193697
552.934	189226
552.998	184005
553.061	181373
553.124	173256
553.187	173233
553.251	177702
553.314	176613
553.377	179920
553.440	192165
553.503	199738
553.567	197396
553.630	191989
553.693	191802
553.756	191094
553.819	187074
553.882	180919
553.945	183710
554.008	185893
554.071	185284
554.134	185186
554.197	174314
554.260	171847
554.323	175392
554.386	175425
554.449	184799
554.512	183766
554.575	175521
554.638	174579
554.701	173958
554.764	171981
554.827	166038
554.889	159777
554.952	151911
555.015	148418
555.078	152355
555.141	152086
555.203	150262
555.266	150045
555.329	147189
555.391	144257
555.454	140664
555.517	136828
555.580	132808
555.642	128493
555.705	125463
555.768	125673
555.830	121785
555.893	115260
555.955	112063
556.018	111510
556.080	111631
556.143	114328
556.206	112880
556.268	109085
556.330	107839
556.393	103698
556.455	102735
556.518	100167
556.580	96135
556.643	93424
556.705	91364
556.767	90115
556.830	88766
556.892	87415
556.955	86230
557.017	83501
557.079	84744
557.142	81789
557.204	81701
557.266	81943
557.328	76413
557.391	71115
557.453	70540
557.515	68605
557.577	71781
557.639	70744
557.701	73390
557.764	73066
557.826	74575
557.888	77616
557.950	80396
558.012	90635
558.074	116554
558.136	242348
558.198	462239
558.260	175927
558.322	86508
558.384	84867
558.446	87734
558.508	95257
558.570	106625
558.632	122643
558.694	160347
558.756	262928
558.818	611602
558.880	977402
558.942	514913
559.003	520210
559.065	251544
559.127	119223
559.189	110662
559.251	123256
559.312	175223
559.374	368692
559.436	802545
559.498	422426
559.559	142711
559.621	113783
559.683	128207
559.744	199054
559.806	511706
559.868	616983
559.929	189613
559.991	131375
560.052	202627
560.114	472115
560.176	294884
560.237	302301
560.299	402710
560.360	104890
560.422	50769
560.483	42510
560.545	38417
560.606	35964
560.667	34573
560.729	33262
560.790	30378
560.852	30123
560.913	29862
560.974	28278
561.036	28216
561.097	28135
561.158	28678
561.220	27362
561.281	25766
561.342	26273
561.403	26341
561.465	25554
561.526	24200
561.587	25454
561.648	23324
561.709	23378
561.771	23089
561.832	23002
561.893	22902
561.954	22475
562.015	21088
562.076	21367
562.137	20895
562.198	20836
562.259	21697
562.320	21312
562.381	21244
562.442	21167
562.503	21045
562.564	20048
562.625	19938
562.686	19617
562.747	19920
562.808	19190
562.869	18510
562.930	19417
562.991	18435
563.051	17868
563.112	17694
563.173	18174
563.234	18003
563.294	17854
563.355	18345
563.416	17387
563.477	18237
563.537	16812
563.598	18171
563.659	16459
563.720	16941
563.780	16116
563.841	17262
563.901	17532
563.962	17536
564.023	16538
564.083	16161
564.144	16500
564.204	16182
564.265	16093
564.325	15822
564.386	17348
564.446	15498
564.507	16333
564.567	14644
564.628	15454
564.688	14918
564.749	15144
564.809	15208
564.869	15705
564.930	15261
564.990	15880
565.050	14980
565.111	15345
565.171	15204
565.231	15837
565.292	15737
565.352	14874
565.412	15288
565.472	15310
565.532	15769
565.593	14780
565.653	15367
565.713	15062
565.773	15206
565.833	15573
565.893	16261
565.953	14268
566.013	14460
566.074	14602
566.134	14429
566.194	13451
566.254	13614
566.314	15168
566.374	12418
566.434	14668
566.494	14423
566.554	13787
566.614	14683
566.673	15354
566.733	15714
566.793	15433
566.853	15810
566.913	14808
566.973	14926
567.033	15327
567.092	14935
567.152	14702
567.212	15144
567.272	15680
567.331	15626
567.391	15221
567.451	16802
567.511	15261
567.570	15417
567.630	16219
567.690	15558
567.749	14602
567.809	14952
567.868	15675
567.928	13798
567.988	15303
568.047	14852
568.107	15326
568.166	15009
568.226	15706
568.285	15828
568.345	16295
568.404	15176
568.464	15556
568.523	15400
568.582	15155
568.642	16581
568.701	15143
568.761	15319
568.820	14775
568.879	14617
568.939	15957
568.998	15436
569.057	14607
569.116	13988
569.176	15889
569.235	15235
569.294	15407
569.353	14208
569.413	14940
569.472	13473
569.531	14548
569.590	13993
569.649	14302
569.708	14379
569.767	14676
569.827	14518
569.886	14361
569.945	15224
570.004	15137
570.063	14579
570.122	15746
570.181	16267
570.240	16080
570.299	16956
570.358	16522
570.417	16038
570.475	16563
570.534	15471
570.593	15707
570.652	15912
570.711	16471
570.770	15101
570.829	15228
570.887	15038
570.946	16673
571.005	16866
571.064	17055
571.122	16827
571.181	14986
571.240	15123
571.299	15825
571.357	16649
571.416	14142
571.475	16449
571.533	16159
571.592	18061
571.650	17669
571.709	17895
571.768	20839
571.826	22404
571.885	20407
571.943	17680
572.002	16552
572.060	15955
572.119	16080
572.177	15732
572.236	16340
572.294	16825
572.352	18285
572.411	18395
572.469	16874
572.528	16783
572.586	15902
572.644	15892
572.703	15495
572.761	15167
572.819	15300
572.877	14272
572.936	14088
572.994	14243
573.052	13784
573.110	14822
573.169	16370
573.227	16772
573.285	16722
573.343	15963
573.401	15812
573.459	15349
573.517	17197
573.576	16718
573.634	16781
573.692	17706
573.750	17065
573.808	16051
573.866	15765
573.924	15211
573.982	14926
574.040	15334
574.098	15424
574.155	15292
574.213	15397
574.271	16138
574.329	17752
574.387	15913
574.445	14283
574.503	15165
574.560	14592
574.618	14322
574.676	14786
574.734	14448
574.792	14242
574.849	13519
574.907	12214
574.965	12018
575.022	11683
575.080	11523
575.138	12115
575.195	10109
575.253	11651
575.311	11804
575.368	12417
575.426	11047
575.483	12269
575.541	12557
575.598	11594
575.656	11861
575.713	12755
575.771	14360
575.828	13285
575.886	12836
575.943	11599
576.001	12271
576.058	9974
576.115	10662
576.173	10944
576.230	12749
576.287	12512
576.345	11858
576.402	11947
576.459	13123
576.517	12346
576.574	11586
576.631	11926
576.688	10303
576.746	10553
576.803	9939
576.860	10147
576.917	11863
576.974	11598
577.031	11653
577.089	10834
577.146	10276
577.203	9877
577.260	10439
577.317	9626
577.374	9538
577.431	10287
577.488	10288
577.545	9434
577.602	9977
577.659	10102
577.716	10378
577.773	9822
577.830	9898
577.886	9239
577.943	9820
578.000	9937
578.057	9908
578.114	8778
578.171	10785
578.227	10327
578.284	10149
578.341	10685
578.398	10833
578.454	10606
578.511	10528
578.568	10666
578.625	10704
578.681	10572
578.738	10199
578.794	10788
578.851	10955
578.908	10530
578.964	10061
579.021	9729
579.077	9983
579.134	10481
579.190	10795
579.247	10719
579.303	10320
579.360	9474
579.416	10721
579.473	10799
579.529	10440
579.586	11002
579.642	10619
579.698	11291
579.755	10670
579.811	11751
579.867	11647
579.924	10570
579.980	11192
580.036	11400
580.093	11472
580.149	11935
580.205	11428
580.261	12036
580.317	11746
580.374	11510
580.430	12525
580.486	12504
580.542	11716
580.598	13393
580.619	13060
580.654	12494
580.692	12564
580.710	12616
580.765	12915
580.767	12936
580.823	12894
580.838	13035
580.879	13444
580.911	13591
580.935	13727
580.984	13188
580.991	13125
581.047	13889
581.057	13581
581.103	12236
581.130	12444
581.159	12673
581.203	12791
581.215	12845
581.270	11646
581.276	11757
581.326	12823
581.349	12671
581.382	12505
581.422	12865
581.438	12982
581.494	12335
581.494	12321
581.550	11733
581.567	12062
581.606	12711
581.640	12012
581.661	11611
581.713	13474
581.717	13630
581.773	12316
581.786	12394
581.829	12571
581.859	12739
581.885	12940
581.932	13156
581.940	13199
581.996	13444
582.004	13380
582.052	12997
582.077	12729
582.107	12445
582.150	12651
582.163	12686
582.219	12486
582.223	12566
582.274	13756
582.296	13290
582.330	12541
582.368	12483
582.386	12507
582.441	14101
582.441	14104
582.497	13427
582.514	12981
582.552	12087
582.587	12808
582.608	13191
582.659	13062
582.663	13063
582.719	13465
582.732	13546
582.774	13906
582.805	13932
582.830	13890
582.877	14747
582.885	14893
582.941	14411
582.950	14390
582.996	14252
583.023	14666
583.052	15341
583.095	15667
583.107	15642
583.162	14278
583.168	14319
583.218	14656
583.240	14289
583.273	13894
583.313	13583
583.328	13505
583.384	13602
583.385	13608
583.439	13610
583.458	13627
583.494	13559
583.531	13696
583.549	13914
583.603	13976
583.605	13960
583.660	14036
583.676	13863
583.715	13832
583.748	13986
583.770	14036
583.820	14053
583.825	14050
583.881	14840
583.893	14655
583.936	14006
583.965	14004
583.991	14000
584.038	14281
584.046	14344
584.101	14612
584.110	14648
584.156	14666
584.183	14811
584.211	15044
584.255	15532
584.266	15689
584.321	16002
584.328	16002
584.376	15779
584.400	15826
584.431	16019
584.472	16113
584.486	16116
584.541	17553
584.545	17566
584.596	17703
584.617	17678
584.651	17848
584.689	19210
584.706	19675
584.761	18962
584.762	18975
584.816	21080
584.834	21619
584.871	22523
584.906	23291
584.926	23779
584.978	25101
584.980	25164
585.035	28089
585.051	28962
585.090	31460
585.123	34194
585.145	36123
585.195	40071
585.200	40506
585.254	47334
585.267	49395
585.309	56642
585.340	62462
585.364	67637
585.412	79474
585.419	81582
585.473	104261
585.484	110641
585.528	145897
585.556	179035
585.583	234725
585.628	364323
585.637	404652
585.692	730314
585.700	776960
585.747	918367
585.772	829268
585.801	606783
585.845	303725
585.856	256252
585.910	132245
585.917	121432
585.965	85209
585.989	72430
586.019	62274
586.061	52118
586.074	49844
586.128	42777
586.133	42308
586.183	38780
586.205	37497
586.237	35965
586.277	34870
586.292	34517
586.346	32686
586.349	32628
586.401	32084
586.421	31854
586.455	31796
586.493	31823
586.509	31990
586.564	32151
586.565	32180
586.618	34853
586.637	35944
586.672	39752
586.709	44895
586.727	47286
586.781	52967
586.781	52979
586.835	43801
586.853	41142
586.889	36611
586.925	33016
586.944	32019
586.996	30979
586.998	30983
587.052	29677
587.068	29611
587.106	29441
587.140	29063
587.161	29244
587.212	29589
587.215	29587
587.269	29264
587.284	29350
587.323	30077
587.356	30376
587.377	30573
587.427	31035
587.431	31115
587.485	31657
587.499	31821
587.539	32532
587.571	33358
587.593	34228
587.643	36137
587.648	36249
587.702	36398
587.715	36415
587.755	36402
587.786	36433
587.810	36679
587.858	37052
587.864	37079
587.917	36725
587.930	36643
587.971	36742
588.001	36927
588.025	37170
588.073	36893
588.079	36889
588.133	37318
588.145	37253
588.187	37144
588.217	37531
588.241	38169
588.288	38736
588.295	38829
588.348	39749
588.360	39713
588.402	39401
588.431	39543
588.456	40059
588.503	41403
588.510	41727
588.564	43696
588.575	44123
588.617	46168
588.646	47750
588.671	49037
588.718	51592
588.725	52282
588.778	59226
588.789	61019
588.832	82041
588.861	99880
588.886	138050
588.932	224024
588.939	231820
588.993	283972
589.004	279782
589.047	150272
589.075	80627
589.100	65543
589.147	49048
589.154	48631
589.207	46519
589.218	46148
589.261	47256
589.290	48338
589.314	49230
589.361	51066
589.368	52324
589.421	64550
589.433	67699
589.475	104082
589.504	133409
589.528	170101
589.576	249429
589.582	242339
589.635	125896
589.647	103753
589.689	66976
589.718	47331
589.742	45792
589.790	43371
589.795	43362
589.849	42968
589.861	42857
589.902	42438
589.932	42105
589.955	42193
590.004	41962
590.009	42050
590.062	42489
590.075	42547
590.115	42631
590.146	42608
590.168	42512
590.218	41881
590.222	41985
590.275	42968
590.289	43114
590.328	44362
590.360	45380
590.381	45620
590.431	45279
590.435	45338
590.488	45701
590.503	45668
590.541	46398
590.574	47032
590.594	47900
590.645	49926
590.647	50039
590.700	50693
590.716	50823
590.753	51587
590.787	52280
590.806	53113
590.859	55104
590.859	55212
590.912	56377
590.930	56648
590.965	57096
591.001	57354
591.018	56942
591.071	55280
591.072	55174
591.124	55142
591.143	55038
591.177	55675
591.214	56161
591.230	56677
591.283	58384
591.285	58335
591.336	57736
591.356	57414
591.389	56763
591.427	55727
591.442	55971
591.495	56603
591.498	56549
591.547	56536
591.569	56429
591.600	57189
591.640	57938
591.653	58368
591.706	59823
591.711	59867
591.759	61021
591.782	61507
591.811	63128
591.853	65183
591.864	65404
591.917	65860
591.924	65806
591.969	65685
591.995	65442
592.022	65896
592.066	66408
592.075	66871
592.127	68945
592.137	69202
592.180	70164
592.208	70622
592.233	71343
592.279	72304
592.285	72633
592.338	74280
592.350	74513
592.390	74908
592.421	74973
592.443	75992
592.491	77762
592.495	78014
592.548	79439
592.562	79683
592.600	79584
592.633	79214
592.653	79105
592.704	78005
592.705	78488
592.775	80319
592.846	83709
592.916	84654
592.987	84315
593.058	85311
593.128	87938
593.199	88544
593.270	87726
593.341	88739
593.411	93136
593.482	96969
593.553	100027
593.623	101237
593.694	104399
593.764	105665
593.835	104651
593.906	106614
593.976	108186
594.047	112294
594.117	117193
594.188	119148
594.258	118862
594.329	119924
594.399	121522
594.470	127034
594.540	130009
594.611	131891
594.681	130479
594.751	130936
594.822	137274
594.892	141350
594.963	144905
595.033	148500
595.103	152547
595.174	155342
595.244	158825
595.314	161655
595.384	166031
595.455	171886
595.525	178874
595.595	185024
595.665	183456
595.736	179591
595.806	183753
595.876	185330
595.946	187667
596.016	195845
596.087	202706
596.157	199894
596.227	202896
596.297	213886
596.367	227764
596.437	239106
596.507	237500
596.577	235513
596.647	245148
596.717	258320
596.787	260078
596.857	259703
596.927	261586
596.997	263474
597.067	267430
597.137	270808
597.207	273847
597.277	275936
597.347	262614
597.417	254389
597.487	256453
597.557	261491
597.626	269041
597.696	271176
597.766	268294
597.836	253001
597.906	238807
597.975	235593
598.045	243139
598.115	253168
598.185	270795
598.254	301483
598.324	326612
598.394	327118
598.464	318509
598.533	311451
598.603	289952
598.672	283263
598.742	291172
598.812	291317
598.881	300709
598.951	296379
599.020	302324
599.090	313064
599.159	319197
599.229	306794
599.299	299228
599.368	310535
599.437	304306
599.507	277674
599.576	272133
599.646	268190
599.715	263351
599.785	262985
599.854	252781
599.924	248988
599.993	248383
600.062	256032
600.132	259445
600.201	278759
600.270	321296
600.340	336136
600.409	330631
600.478	324940
600.547	334796
600.617	298250
600.686	240711
600.755	221093
600.824	208749
600.894	204529
600.963	208969
601.032	204765
601.101	195351
601.170	187195
601.239	182508
601.308	181929
601.378	182156
601.447	185134
601.516	184323
601.585	186974
601.654	191466
601.723	189951
601.792	197037
601.861	203082
601.930	209939
601.999	209945
602.068	211369
602.137	212514
602.206	216356
602.275	220036
602.343	221542
602.412	223281
602.481	224945
602.550	227269
602.619	235317
602.688	235255
602.756	239402
602.825	239277
602.894	245640
602.963	251531
603.032	254111
603.100	254527
603.169	253679
603.238	258441
603.307	256646
603.375	262661
603.444	266411
603.513	269857
603.581	273602
603.650	278658
603.719	271962
603.787	279034
603.856	286631
603.924	293962
603.993	303936
604.061	316800
604.130	327801
604.198	333079
604.267	341138
604.335	346839
604.404	351592
604.472	353502
604.541	356813
604.609	360846
604.678	361971
604.746	362793
604.815	374864
604.883	380225
604.951	380431
605.020	385038
605.088	391674
605.156	398312
605.225	406018
605.293	402401
605.361	405010
605.429	407723
605.498	417705
605.566	430562
605.634	448114
605.702	460168
605.771	472785
605.839	474641
605.907	466780
605.975	450203
606.043	443903
606.111	443267
606.180	443070
606.248	437807
606.316	434569
606.384	433277
606.452	435305
606.520	447859
606.588	461108
606.656	462592
606.724	450745
606.792	429634
606.860	390789
606.928	360312
606.996	345755
607.064	340487
607.132	352012
607.200	374328
607.267	381000
607.335	390606
607.403	396247
607.471	381849
607.539	374463
607.607	368754
607.674	331570
607.742	332627
607.810	328177
607.878	328806
607.946	337161
608.013	354213
608.081	357138
608.149	363592
608.216	373923
608.284	384369
608.352	385074
608.419	379598
608.487	372860
608.555	367537
608.622	382695
608.690	400962
608.757	441600
608.825	445915
608.893	435256
608.960	409938
609.028	393696
609.095	397336
609.163	392990
609.230	349839
609.298	328074
609.365	347155
609.432	372361
609.500	401887
609.567	455393
609.635	513780
609.702	532383
609.769	501632
609.837	395337
609.904	355674
609.971	364700
610.039	398308
610.106	488070
610.173	780811
610.241	1348480
610.308	904189
610.375	474015
610.442	399475
610.509	372598
610.577	372199
610.644	374507
610.711	387234
610.778	394739
610.845	408506
610.912	431331
610.980	445968
611.047	444707
611.114	438010
611.181	424129
611.248	426082
611.315	446194
611.382	459268
611.449	472381
611.516	479618
611.583	475449
611.650	479746
611.717	486125
611.784	493274
611.851	510001
611.918	533140
611.984	601564
612.051	753777
612.118	1140155
612.185	1756716
612.252	1397072
612.319	787880
612.386	647116
612.452	578070
612.519	545406
612.586	532258
612.653	539002
612.719	555066
612.786	530083
612.853	495166
612.919	491360
612.986	497865
613.053	470564
613.120	443750
613.186	431930
613.253	433428
613.319	432802
613.386	434784
613.453	440935
613.519	442655
613.586	435486
613.652	440414
613.719	433513
613.785	443220
613.852	445212
613.918	442784
613.985	448187
614.051	463759
614.118	457277
614.184	441645
614.250	443194
614.317	452243
614.383	445863
614.449	455397
614.516	453437
614.582	453353
614.648	447502
614.715	441349
614.781	431453
614.847	435421
614.914	429280
614.980	420296
615.046	426003
615.112	435014
615.179	437493
615.245	442049
615.311	436327
615.377	444718
615.443	448086
615.509	453324
615.575	469178
615.642	465151
615.708	479214
615.774	498409
615.840	523433
615.906	545728
615.972	632105
616.038	835733
616.104	1316360
616.170	1880998
616.236	1679674
616.302	1035144
616.368	836588
616.434	647798
616.500	584825
616.565	634327
616.631	756812
616.697	657975
616.763	658866
616.829	894158
616.895	1365906
616.961	1290072
617.026	750747
617.092	547574
617.158	496043
617.224	469904
617.289	434215
617.355	415839
617.421	407795
617.487	402341
617.552	385547
617.618	383523
617.684	383073
617.749	384185
617.815	367686
617.880	362658
617.946	360644
618.012	367226
618.077	372347
618.143	357289
618.208	363218
618.274	387107
618.339	385342
618.405	321821
618.470	326262
618.536	323809
618.601	316782
618.667	295578
618.732	281726
618.798	279941
618.863	280404
618.928	277067
618.994	280613
619.059	275607
619.124	278345
619.190	275337
619.255	275334
619.320	272406
619.386	277814
619.451	272789
619.516	267664
619.581	271690
619.647	280117
619.712	280905
619.777	265174
619.842	270442
619.907	272780
619.972	280252
620.038	274514
620.103	270571
620.168	269026
620.233	276280
620.298	275835
620.363	279892
620.428	285117
620.493	295988
620.558	295639
620.623	301315
620.688	296402
620.753	294926
620.818	301436
620.883	302408
620.948	302797
621.013	299045
621.078	296745
621.143	296762
621.207	298835
621.272	294520
621.337	286174
621.402	282657
621.467	278331
621.532	281128
621.596	282453
621.661	271841
621.726	276217
621.791	275305
621.855	273576
621.920	270900
621.985	276028
622.049	282991
622.114	282633
622.179	284852
622.243	292392
622.308	303153
622.373	312584
622.437	303222
622.502	288300
622.566	286708
622.631	286323
622.695	293112
622.760	290119
622.824	292181
622.889	291358
622.953	290945
623.018	308131
623.082	310101
623.147	307426
623.211	303671
623.276	300868
623.340	289118
623.404	284664
623.469	283240
623.533	287472
623.597	280521
623.662	278076
623.726	259805
623.790	245413
623.854	239607
623.919	244390
623.983	248249
624.047	250656
624.111	255117
624.176	258360
624.240	258777
624.304	266887
624.368	258213
624.432	259047
624.496	264386
624.560	278088
624.625	277553
624.689	278898
624.753	290291
624.817	275630
624.881	270783
624.945	243975
625.009	241782
625.073	244733
625.137	252972
625.201	261243
625.265	260124
625.329	250876
625.393	254939
625.456	257866
625.520	263912
625.584	267814
625.648	273972
625.712	280829
625.776	277656
625.839	258261
625.903	224672
625.967	212616
626.031	226419
626.095	265817
626.158	241796
626.222	196766
626.286	186042
626.349	178599
626.413	167637
626.477	166501
626.540	170640
626.604	167314
626.668	164804
626.731	162965
626.795	163159
626.858	164583
626.922	159967
626.986	161308
627.049	159727
627.113	168532
627.176	161141
627.240	155832
627.303	156116
627.366	155415
627.430	160317
627.493	156052
627.557	152935
627.620	156704
627.684	164782
627.747	163210
627.810	148072
627.874	135540
627.937	130760
628.000	135998
628.064	131290
628.127	118174
628.190	116906
628.253	112840
628.317	109291
628.380	104712
628.443	100903
628.506	102192
628.569	96820
628.632	92824
628.696	92865
628.759	92003
628.822	89078
628.885	87035
628.948	85619
629.011	83770
629.074	82811
629.137	78720
629.200	78695
629.263	77003
629.326	74859
629.389	76933
629.452	75223
629.515	73103
629.578	73753
629.641	75107
629.704	75456
629.767	72901
629.830	72774
629.892	69780
629.955	69431
630.018	73148
630.081	69982
630.144	71074
630.207	67793
630.269	70105
630.332	66093
630.395	66731
630.458	65881
630.520	62004
630.583	64322
630.646	64321
630.708	67022
630.771	66913
630.834	71495
630.896	68719
630.959	68369
631.021	66771
631.084	67640
631.146	67485
631.209	68778
631.272	67475
631.334	70291
631.397	70269
631.459	71613
631.522	75470
631.584	77814
631.646	82534
631.709	84916
631.771	84311
631.834	81771
631.896	76952
631.958	72736
632.021	71201
632.083	67133
632.145	66274
632.208	64313
632.270	65628
632.332	63843
632.395	63071
632.457	65414
632.519	62893
632.581	63074
632.643	62148
632.706	62903
632.768	60058
632.830	63217
632.892	64236
632.954	64040
633.016	65746
633.078	63821
633.141	64406
633.203	64982
633.265	64023
633.327	62870
633.389	63421
633.451	64818
633.513	62937
633.575	66481
633.637	65138
633.698	66826
633.760	70491
633.822	73429
633.884	75565
633.946	78162
634.008	80675
634.070	83179
634.132	88127
634.193	95728
634.255	103310
634.317	103627
634.379	103062
634.441	90408
634.502	84293
634.564	75589
634.626	72173
634.687	67443
634.749	65592
634.811	65876
634.873	62464
634.934	64287
634.996	65357
635.057	63372
635.119	64623
635.181	66722
635.242	67240
635.304	65494
635.365	69191
635.427	65743
635.488	67318
635.550	65358
635.611	68980
635.673	67455
635.734	74973
635.796	77619
635.857	85549
635.918	90222
635.980	100980
636.041	103703
636.102	111164
636.164	113432
636.225	107068
636.286	93348
636.348	83630
636.409	77129
636.470	70303
636.531	69046
636.593	64577
636.654	62676
636.715	58676
636.776	59738
636.838	57583
636.899	58064
636.960	55510
637.021	54246
637.082	52034
637.143	52194
637.204	51291
637.265	51608
637.326	52432
637.387	52927
637.448	52227
637.509	52091
637.570	52732
637.631	51923
637.692	49683
637.753	47842
637.814	49372
637.875	47733
637.936	49153
637.997	47712
638.058	48817
638.119	47520
638.179	48752
638.240	47165
638.301	47969
638.362	46162
638.423	44855
638.483	46109
638.544	43470
638.605	45683
638.666	46011
638.726	45577
638.787	46776
638.848	44736
638.908	43684
638.969	42335
639.030	41405
639.090	41299
639.151	42146
639.211	43593
639.272	44004
639.332	44939
639.393	46983
639.453	49208
639.514	49489
639.574	44523
639.635	40094
639.695	40717
639.756	37807
639.816	39027
639.877	39157
639.937	39797
639.997	40711
640.058	39130
640.118	38692
640.178	41180
640.239	39528
640.299	41352
640.359	41180
640.420	44556
640.480	51208
640.540	57405
640.600	58110
640.661	54810
640.721	55607
640.781	68753
640.841	69307
640.901	44353
640.961	42949
641.021	44685
641.082	46547
641.142	41708
641.202	40913
641.262	36975
641.322	39223
641.382	37258
641.442	38394
641.502	38466
641.562	37751
641.622	39633
641.682	43527
641.742	50167
641.802	45825
641.861	40846
641.921	36631
641.981	36411
642.041	35783
642.101	33988
642.161	33248
642.221	34407
642.280	35229
642.340	35491
642.400	34535
642.460	37820
642.519	36657
642.579	37985
642.639	37474
642.698	35656
642.758	39556
642.818	38114
642.877	37702
642.937	38736
642.997	38072
643.056	37797
643.116	35853
643.175	41474
643.235	38853
643.294	41071
643.354	43384
643.414	46014
643.473	52550
643.532	62215
643.592	78438
643.651	116000
643.711	185513
643.770	338920
643.830	712993
643.889	1001353
643.948	384463
644.008	132894
644.067	80300
644.126	60147
644.186	51877
644.245	45953
644.304	41583
644.363	43736
644.423	39576
644.482	40421
644.541	42589
644.600	43511
644.659	53061
644.719	65022
644.778	92424
644.837	150344
644.896	299281
644.955	547849
645.014	187329
645.073	68047
645.132	52892
645.191	47619
645.250	45208
645.309	47540
645.368	53466
645.427	69513
645.486	125274
645.545	188318
645.604	59023
645.663	41364
645.722	40648
645.781	44017
645.840	47790
645.898	56194
645.957	73665
646.016	105810
646.075	174256
646.134	323162
646.192	713946
646.251	783238
646.310	225552
646.369	95029
646.427	77362
646.486	55631
646.545	45058
646.603	41687
646.662	38070
646.721	35600
646.779	35915
646.838	38017
646.896	46243
646.955	60589
647.014	94355
647.072	179553
647.131	417065
647.189	177907
647.248	45613
647.306	35263
647.365	31621
647.423	28262
647.481	30599
647.540	27259
647.598	27833
647.657	28036
647.715	27833
647.773	24688
647.832	26928
647.890	23780
647.948	22848
648.007	23167
648.065	22417
648.123	22700
648.181	23494
648.240	22939
648.298	21409
648.356	22403
648.414	22401
648.472	20959
648.531	21959
648.589	20745
648.647	21339
648.705	21500
648.763	21183
648.821	22521
648.879	23116
648.937	26172
648.995	29517
649.053	37954
649.111	53533
649.169	82194
649.227	145545
649.285	301838
649.343	642048
649.401	294675
649.459	70022
649.516	42271
649.574	33292
649.632	32832
649.690	36159
649.748	45333
649.806	66991
649.863	127555
649.921	324045
649.979	178230
650.037	37373
650.094	23657
650.152	22385
650.210	20792
650.268	23231
650.325	28605
650.383	35674
650.440	19500
650.498	16520
650.556	16608
650.613	16513
650.671	16431
650.728	16649
650.786	19066
650.843	28092
650.901	18983
650.958	14901
651.016	14240
651.073	14148
651.131	14181
651.188	13423
651.246	13614
651.303	11977
651.360	13715
651.418	13162
651.475	13754
651.532	12633
651.590	13213
651.647	12455
651.704	13140
651.762	12350
651.819	12359
651.876	12488
651.933	11534
651.990	12384
652.048	10774
652.105	11074
652.162	12145
652.219	11226
652.276	12255
652.333	11706
652.390	10167
652.448	10726
652.505	10851
652.562	10747
652.619	11167
652.676	11149
652.733	11406
652.790	11487
652.847	9486
652.904	11474
652.961	8880
653.017	9584
653.074	11983
653.131	10627
653.188	9933
653.245	10688
653.302	10561
653.359	10201
653.415	10622
653.472	9817
653.529	11162
653.586	9040
653.642	9940
653.699	11618
653.756	9690
653.813	9017
653.869	11948
653.926	11621
653.983	10194
654.039	10565
654.096	10146
654.152	10995
654.209	8574
654.266	9963
654.322	8558
654.379	10366
654.435	10374
654.492	9528
654.548	10937
654.605	10893
654.661	12953
654.717	10791
654.774	10490
654.830	10897
654.887	11354
654.943	14173
655.000	18255
655.056	12932
655.112	10257
655.168	8622
655.225	10688
655.281	10388
655.337	9452
655.394	8600
655.450	8722
655.506	9948
655.562	8618
655.618	9735
655.675	8018
655.731	8653
655.787	9066
655.843	10182
655.899	9312
655.955	9487
656.011	10200
656.067	9281
656.123	9264
656.179	9138
656.235	10025
656.291	9693
656.347	10633
656.403	9174
656.459	8847
656.515	8440
656.571	8961
656.627	8315
656.683	9167
656.739	9809
656.795	8513
656.850	8622
656.906	9487
656.962	10872
657.018	10560
657.074	12511
657.129	17064
657.185	29420
657.241	62389
657.297	28148
657.352	10180
657.408	8961
657.464	8915
657.519	8516
657.575	7820
657.630	8394
657.686	8465
657.742	7636
657.797	8148
657.853	7797
657.908	9418
657.964	7503
658.019	9299
658.075	8982
658.130	8371
658.186	7718
658.241	8481
658.297	7409
658.352	7693
658.407	7625
658.463	7811
658.518	7633
658.573	8299
658.629	7863
658.684	6854
658.739	8139
658.795	7448
658.850	8320
658.905	7442
658.960	8083
659.016	7887
659.071	7081
659.126	7725
659.181	6772
659.236	8205
659.291	7861
659.346	6601
659.401	7522
659.457	7878
659.512	6947
659.567	7946
659.622	7193
659.677	6875
659.732	7557
659.787	8195
659.842	6697
659.897	7318
659.952	6727
660.007	6718
660.061	7525
660.116	6626
660.171	7332
660.226	7696
660.281	8074
660.336	6901
660.391	7848
660.445	6489
660.500	6517
660.555	7778
660.610	7730
660.664	7646
660.719	7005
660.774	7669
660.828	6804
660.883	6865
660.938	7178
660.992	6375
661.047	6805
661.101	5840
661.156	7103
661.211	5838
661.265	7000
661.320	6944
661.374	6983
661.429	6722
661.483	8655
661.538	7520
661.592	8169
661.647	11102
661.701	16581
661.755	9269
661.810	7816
661.864	5642
661.919	6484
661.973	7228
662.027	6403
662.081	6407
662.136	6320
662.190	7400
662.244	6589
662.299	6567
662.353	6513
662.407	5840
662.461	6271
662.515	6664
662.569	6384
662.624	6603
662.678	6790
662.732	6582
662.786	6482
662.840	5930
662.894	6074
662.948	6531
663.002	6903
663.056	6634
663.110	6170
663.164	6385
663.218	6628
663.272	7416
663.326	7279
663.380	5792
663.434	6665
663.488	6290
663.542	6830
663.595	6494
663.649	6271
663.703	6406
663.757	6977
663.811	5939
663.864	6691
663.918	6803
663.972	6290
664.026	6545
664.079	5991
664.133	7626
664.187	7250
664.240	7271
664.294	8734
664.348	8621
664.401	7523
664.455	6441
664.508	6969
664.562	6321
664.615	6434
664.669	6072
664.722	6639
664.776	6258
664.829	6304
664.883	6407
664.936	5892
664.990	6671
665.043	6708
665.097	6757
665.150	7864
665.203	6821
665.257	6173
665.310	7291
665.363	7046
665.417	6893
665.470	6623
665.523	7356
665.576	7831
665.630	7980
665.683	7249
665.736	7197
665.789	7244
665.842	6788
665.895	6843
665.949	6955
666.002	7569
666.055	7455
666.108	7207
666.161	7078
666.214	7530
666.267	7410
666.320	7840
666.373	8186
666.426	7641
666.479	7720
666.532	7828
666.585	8227
666.638	7663
666.691	7481
666.744	8193
666.796	7482
666.849	7670
666.902	7579
666.955	7613
667.008	6964
667.060	6617
667.113	7958
667.166	7920
667.219	8683
667.271	7901
667.324	7790
667.377	7528
667.430	7174
667.482	7341
667.535	7529
667.587	7804
667.640	7347
667.693	6887
667.745	7605
667.798	7372
667.850	6802
667.903	7239
667.955	8096
668.008	7772
668.060	7877
668.113	7312
668.165	7443
668.218	7187
668.270	7292
668.322	6021
668.375	6493
668.427	6642
668.479	6795
668.532	7138
668.584	7874
668.636	7354
668.689	6920
668.741	6015
668.793	6979
668.845	6879
668.898	7040
668.950	6754
669.002	6932
669.054	6711
669.106	5637
669.158	6511
669.211	6283
669.263	5963
669.315	6796
669.367	6177
669.419	5605
669.471	6205
669.523	6897
669.575	6463
669.627	6097
669.679	6122
669.731	6555
669.783	6298
669.835	6477
669.886	5944
669.938	5454
669.990	6088
670.042	5408
670.094	5462
670.146	5862
670.197	5738
670.249	5576
670.301	5556
670.353	6787
670.404	7221
670.456	5748
670.508	8015
670.560	9295
670.611	13066
670.663	18283
670.715	37871
670.766	46531
670.818	14910
670.869	8663
670.921	8446
670.972	8130
671.024	6488
671.075	6509
671.127	7474
671.178	7533
671.230	8097
671.281	10039
671.333	10969
671.384	12647
671.436	16889
671.487	23328
671.538	33090
671.590	53045
671.641	87625
671.692	152353
671.744	250739
671.795	177439
671.846	80933
671.897	42652
671.949	27684
672.000	20049
672.051	15514
672.102	12759
672.153	9684
672.204	9198
672.256	10571
672.307	7812
672.358	8069
672.409	7258
672.460	6899
672.511	5873
672.562	5323
672.613	5570
672.664	5140
672.715	5297
672.766	3976
672.817	4954
672.868	4707
672.919	4605
672.970	4147
673.021	4794
673.071	3828
673.122	4555
673.173	4019
673.224	4274
673.275	4378
673.326	4371
673.376	4257
673.427	3671
673.478	4530
673.528	4520
673.579	4378
673.630	4765
673.680	5742
673.731	4026
673.782	4134
673.832	4193
673.883	4439
673.934	3561
673.984	4389
674.035	4474
674.085	3904
674.136	4932
674.186	3476
674.237	5161
674.287	4726
674.338	3381
674.388	5150
674.438	4305
674.489	5886
674.539	6502
674.589	6154
674.640	4714
674.690	5264
674.740	5252
674.791	4893
674.841	4189
674.891	3876
674.942	3942
674.992	4194
675.042	3312
675.092	3271
675.142	2708
675.193	3096
675.243	3390
675.293	3643
675.343	3442
675.393	4151
675.443	3272
675.493	3906
675.543	2594
675.593	2602
675.643	3977
675.693	3846
675.743	4373
675.793	3463
675.843	2509
675.893	3248
675.943	2594
675.993	2657
676.043	3318
676.093	3130
676.142	3005
676.192	3260
676.242	2823
676.292	3211
676.341	2580
676.391	3296
676.441	2929
676.491	2936
676.540	2328
676.590	3979
676.640	3184
676.689	2875
676.739	2340
676.789	2941
676.838	2854
676.888	2235
676.937	1740
676.987	2440
677.037	2042
677.086	1905
677.136	2251
677.185	2199
677.235	2335
677.284	2909
677.333	1950
677.383	2479
677.432	1929
677.482	2606
677.531	2817
677.580	2201
677.630	2203
677.679	2441
677.728	2785
677.778	2704
677.827	2108
677.876	1844
677.925	2178
677.975	2824
678.024	3276
678.073	3065
678.122	2250
678.171	3864
678.220	4518
678.269	4452
678.319	5287
678.368	4317
678.417	3796
678.466	3285
678.515	2797
678.564	1967
678.613	2447
678.662	1679
678.711	2748
678.760	2997
678.809	2849
678.857	3472
678.906	3570
678.955	2840
679.004	3749
679.053	5775
679.102	5161
679.151	2526
679.199	3115
679.248	2589
679.297	2690
679.346	2099
679.394	2642
679.443	1596
679.492	2117
679.540	2411
679.589	2103
679.638	1730
679.686	2801
679.735	3647
679.784	3926
679.832	4127
679.881	3863
679.929	3137
679.978	2070
680.026	2698
680.075	1866
680.123	1800
680.172	1858
680.220	2334
680.268	2009
680.317	2085
680.365	2311
680.414	1235
680.462	2292
680.510	2597
680.559	2373
680.607	2004
680.655	2114
680.703	2050
680.752	2143
680.800	1989
680.848	2157
680.896	2941
680.945	1613
680.993	794
681.041	1706
681.089	1988
681.137	1846
681.185	1339
681.233	1887
681.258	1770
681.281	1612
681.329	2027
681.377	1339
681.380	1426
681.425	2182
681.473	2726
681.502	2825
681.521	2802
681.569	3268
681.617	2528
681.624	2565
681.665	2442
681.713	3272
681.745	2958
681.761	2740
681.809	2589
681.857	3451
681.867	3526
681.904	3553
681.952	3505
681.989	3955
682.000	4033
682.048	3214
682.096	2972
682.111	3061
682.143	3134
682.191	3391
682.233	4033
682.239	4076
682.286	4784
682.334	3410
682.354	3740
682.382	4097
682.430	4548
682.476	3625
682.477	3561
682.525	4793
682.572	3829
682.598	4242
682.620	4590
682.667	4870
682.715	5437
682.720	5395
682.763	4496
682.810	5428
682.841	5284
682.857	5152
682.905	4860
682.952	5654
682.963	5616
683.000	5363
683.047	5355
683.085	5768
683.095	5825
683.142	5198
683.190	5625
683.206	5641
683.237	5518
683.284	6332
683.328	5929
683.332	5869
683.379	6152
683.426	6308
683.449	6022
683.473	5655
683.521	6331
683.568	6375
683.571	6391
683.615	6026
683.662	6552
683.693	6460
683.709	6392
683.757	5737
683.804	6451
683.814	6399
683.851	6084
683.898	7663
683.936	6600
683.945	6311
683.992	6557
684.039	7625
684.057	7649
684.086	7578
684.133	6958
684.179	6541
684.180	6501
684.227	7438
684.274	6711
684.300	6983
684.321	7145
684.368	7195
684.415	7648
684.422	7648
684.462	7598
684.509	8263
684.543	7878
684.556	7704
684.603	8703
684.649	8169
684.665	8310
684.696	8516
684.743	8661
684.786	9165
684.790	9163
684.837	8195
684.883	8364
684.908	8334
684.930	8416
684.977	9291
685.023	9081
685.029	9108
685.070	9128
685.117	8358
685.150	8939
685.164	9062
685.210	9710
685.257	9166
685.272	9303
685.303	9779
685.350	9711
685.393	10150
685.396	10130
685.443	9164
685.490	8960
685.514	8746
685.536	8766
685.583	9186
685.629	9802
685.636	9702
685.675	8779
685.722	9624
685.757	9052
685.768	8906
685.815	9663
685.861	10032
685.878	9992
685.908	9869
685.954	10011
686.000	9845
686.000	9833
686.047	10500
686.093	10948
686.121	10858
686.139	10731
686.185	11350
686.232	10888
686.242	10934
686.278	11048
686.324	11340
686.363	11779
686.370	11835
686.416	11383
686.463	11104
686.484	11291
686.509	11478
686.555	11546
686.601	11280
686.606	11301
686.647	11365
686.693	11389
686.727	10965
686.739	10883
686.785	11678
686.831	11387
686.848	11498
686.877	11580
686.923	11513
686.969	11538
686.969	11538
687.015	11409
687.061	12703
687.090	13154
687.107	13254
687.153	13250
687.199	13184
687.211	12912
687.245	12155
687.291	12490
687.332	12637
687.336	12714
687.382	13687
687.428	14133
687.453	14788
687.474	15407
687.520	15921
687.565	17367
687.574	17511
687.611	20152
687.657	24182
687.695	27647
687.702	29054
687.748	39288
687.794	50162
687.816	52954
687.839	46729
687.885	35872
687.931	25555
687.937	24145
687.976	21434
688.022	18385
688.058	15874
688.067	15851
688.113	14399
688.158	14188
688.179	14041
688.204	14228
688.249	14343
688.295	15095
688.300	15072
688.340	14704
688.386	14554
688.421	14261
688.431	14296
688.477	14953
688.522	15035
688.542	15352
688.567	15757
688.613	15794
688.658	16454
688.663	16452
688.703	16176
688.749	15809
688.784	16275
688.794	16456
688.839	16300
688.884	16024
688.905	16009
688.930	15971
688.975	16108
689.020	16272
689.026	16194
689.065	16702
689.110	17947
689.146	19221
689.155	19554
689.201	20719
689.246	21601
689.267	21749
689.291	20307
689.336	18531
689.381	16345
689.388	15951
689.426	16069
689.471	16922
689.509	16843
689.516	16789
689.561	17050
689.606	16859
689.630	16616
689.651	16446
689.696	16533
689.741	16230
689.750	16253
689.785	16758
689.830	16918
689.871	16842
689.875	16779
689.920	16896
689.965	16246
689.992	15968
690.010	16041
690.054	16024
690.099	15867
690.112	15874
690.144	15877
690.189	15451
690.233	15587
690.233	15612
690.278	16135
690.323	16355
690.354	16540
690.367	16514
690.412	16250
690.457	16301
690.474	16201
690.501	16040
690.546	15798
690.590	15449
690.595	15393
690.635	15535
690.680	15930
690.716	15750
690.724	15700
690.769	16012
690.813	15817
690.836	16020
690.857	16581
690.902	16941
690.946	17397
690.957	17541
690.991	17512
691.035	17220
691.077	17596
691.080	17670
691.124	17921
691.168	18093
691.198	18097
691.213	17832
691.257	17511
691.301	16762
691.318	16629
691.346	17045
691.390	17016
691.434	17185
691.439	17221
691.478	17480
691.522	17181
691.559	17317
691.567	17486
691.611	18400
691.655	18601
691.680	18955
691.699	18919
691.743	18746
691.787	18506
691.800	18390
691.831	18433
691.875	18593
691.919	18665
691.921	18633
691.964	18394
692.008	18148
692.041	17671
692.052	17711
692.096	18377
692.139	18515
692.162	18696
692.183	18661
692.227	18366
692.271	18097
692.282	17995
692.315	18143
692.359	18621
692.402	18267
692.403	18298
692.447	18683
692.490	18285
692.523	18334
692.534	18503
692.578	18446
692.622	18884
692.643	18956
692.666	18843
692.709	18799
692.753	18390
692.763	18322
692.797	18574
692.840	18859
692.884	18627
692.884	18661
692.928	18461
692.971	18338
693.004	17833
693.015	17891
693.059	18723
693.102	19028
693.124	19105
693.146	19077
693.189	19330
693.233	19329
693.245	19334
693.276	19384
693.320	19418
693.363	19098
693.365	19057
693.407	19508
693.450	19851
693.485	20108
693.493	20115
693.537	19625
693.580	19666
693.605	19497
693.624	19489
693.667	19576
693.710	19169
693.725	19209
693.753	19707
693.797	20021
693.840	20184
693.845	20194
693.883	20132
693.926	19958
693.966	19615
693.970	19656
694.013	19748
694.056	20070
694.086	19935
694.099	19828
694.142	19455
694.185	19515
694.206	19336
694.229	19652
694.272	20182
694.315	20646
694.326	20727
694.358	20743
694.401	20747
694.444	20783
694.446	20741
694.487	21015
694.530	20964
694.566	21108
694.573	21172
694.616	20976
694.659	21190
694.686	21201
694.702	21355
694.745	21490
694.787	21793
694.806	21827
694.830	21733
694.873	21301
694.916	21148
694.926	21036
694.959	21796
695.002	22876
695.044	23564
695.046	23562
695.087	23962
695.130	23755
695.166	23516
695.172	23614
695.215	24185
695.258	24857
695.286	24959
695.301	24976
695.343	25157
695.386	25556
695.406	25457
695.428	26542
695.471	28749
695.514	31017
695.526	31560
695.556	33175
695.599	35633
695.641	37725
695.646	37878
695.684	36083
695.726	34111
695.766	32064
695.769	32076
695.811	31149
695.854	30206
695.886	29543
695.896	29843
695.938	30465
695.981	31290
696.005	31798
696.023	32563
696.065	34063
696.108	35440
696.125	35982
696.150	36835
696.192	38187
696.235	39473
696.245	39720
696.277	39568
696.319	39013
696.361	38692
696.365	38552
696.404	38118
696.446	37761
696.485	37195
696.488	37263
696.530	36998
696.572	36869
696.604	36481
696.614	36610
696.656	37024
696.698	37233
696.724	37351
696.740	37639
696.783	38100
696.825	38626
696.844	38717
696.867	38928
696.909	39181
696.951	39463
696.964	39477
696.992	39669
697.034	39716
697.076	39803
697.083	39702
697.118	40922
697.160	42446
697.202	43807
697.203	43737
697.244	43269
697.286	42855
697.323	42054
697.327	42178
697.369	42595
697.411	42946
697.442	43088
697.453	43118
697.494	42870
697.536	42457
697.562	42211
697.578	42485
697.620	42845
697.661	43145
697.682	43239
697.703	43989
697.744	45208
697.786	46418
697.801	46746
697.828	46511
697.869	45916
697.911	45303
697.921	45056
697.952	44916
697.994	44517
698.035	44170
698.040	44010
698.077	44468
698.118	44856
698.160	45308
698.160	45196
698.201	46657
698.243	48016
698.279	49141
698.284	49357
698.325	50177
698.367	50986
698.399	51508
698.408	51822
698.449	52627
698.491	53450
698.518	53844
698.532	53863
698.573	53522
698.614	53188
698.638	52854
698.656	52994
698.697	52983
698.738	53005
698.757	52869
698.779	52962
698.820	52883
698.862	52796
698.877	52634
698.903	52595
698.944	52298
698.985	52006
698.996	51791
699.026	51931
699.067	51938
699.116	51811
699.235	51943
699.354	51663
699.474	48791
699.593	48848
699.713	48575
699.832	48946
699.951	51417
700.070	50605
700.190	45621
700.309	44877
700.428	44317
700.547	44374
700.667	43479
700.786	43612
700.905	41626
701.024	42664
701.143	41758
701.262	45887
701.381	45530
701.500	46747
701.619	43631
701.738	45222
701.857	43970
701.976	40913
702.095	42946
702.214	45068
702.333	43212
702.452	44964
702.571	45501
702.690	44723
702.809	44247
702.928	42723
703.047	39238
703.165	41032
703.284	40418
703.403	40416
703.522	38324
703.640	37668
703.759	37196
703.878	37688
703.997	38154
704.115	39548
704.234	38340
704.353	40749
704.471	35105
704.590	35671
704.708	34644
704.827	34949
704.946	33773
705.064	36029
705.183	33559
705.301	35490
705.420	33207
705.538	32999
705.656	30569
705.775	30400
705.893	33031
706.012	33843
706.130	32698
706.249	32891
706.367	30880
706.485	33091
706.604	32224
706.722	37585
706.840	59514
706.958	130656
707.077	71325
707.195	34062
707.313	29949
707.431	29081
707.549	27794
707.668	26606
707.786	30660
707.904	27234
708.022	29550
708.140	28865
708.258	27201
708.376	30870
708.494	26586
708.612	31483
708.730	30200
708.848	29241
708.966	28641
709.084	29082
709.202	28333
709.320	25552
709.438	26153
709.556	26579
709.674	23566
709.791	24003
709.909	24215
710.027	23571
710.145	22684
710.263	24450
710.380	23411
710.498	23443
710.616	23352
710.733	22156
710.851	23525
710.969	23219
711.086	21003
711.204	22933
711.322	23314
711.439	22828
711.557	21012
711.674	21265
711.792	22148
711.909	21550
712.027	20927
712.144	21207
712.262	21008
712.379	21909
712.497	21016
712.614	21294
712.732	21477
712.849	19906
712.966	21368
713.084	22940
713.201	19382
713.318	23112
713.436	25728
713.553	24246
713.670	28385
713.787	28153
713.905	24899
714.022	28842
714.139	33055
714.256	43712
714.373	68488
714.490	135183
714.608	359090
714.725	1098742
714.842	880636
714.959	161079
715.076	64959
715.193	44567
715.310	35580
715.427	26425
715.544	26412
715.661	25240
715.778	22232
715.895	22217
716.011	21952
716.128	21755
716.245	19395
716.362	19424
716.479	18233
716.596	19774
716.713	21796
716.829	18830
716.946	17172
717.063	17031
717.180	15856
717.296	16873
717.413	17107
717.530	15998
717.646	14673
717.763	15214
717.880	14755
717.996	14535
718.113	14213
718.229	15915
718.346	13285
718.462	13182
718.579	15040
718.695	15028
718.812	14448
718.928	15989
719.045	13822
719.161	16202
719.277	16164
719.394	17306
719.510	17086
719.626	21524
719.743	29392
719.859	53660
719.975	123230
720.092	461425
720.208	756906
720.324	120674
720.440	35709
720.557	25345
720.673	19877
720.789	17007
720.905	15032
721.021	14804
721.137	14201
721.253	13262
721.369	14084
721.486	14640
721.602	12408
721.718	12697
721.834	13079
721.950	12753
722.066	12206
722.181	12219
722.297	11406
722.413	11901
722.529	13222
722.645	12744
722.761	12000
722.877	14227
722.993	17552
723.108	25406
723.224	22225
723.340	15871
723.456	11885
723.571	11694
723.687	10782
723.803	11271
723.918	11110
724.034	11418
724.150	10694
724.265	11244
724.381	8973
724.497	9600
724.612	10745
724.728	10547
724.843	9709
724.959	10428
725.074	11019
725.190	11269
725.305	10597
725.421	10170
725.536	10760
725.651	11279
725.767	10756
725.882	11522
725.997	9785
726.113	10256
726.228	9393
726.343	10413
726.459	10384
726.574	10569
726.689	9211
726.804	10315
726.920	9707
727.035	10863
727.150	10393
727.265	9275
727.380	10747
727.495	10358
727.610	9414
727.725	9335
727.841	10073
727.956	10940
728.071	10477
728.186	9149
728.301	10120
728.416	10055
728.531	10818
728.645	9723
728.760	10271
728.875	11021
728.990	9188
729.105	9115
729.220	9890
729.335	11190
729.449	9178
729.564	10389
729.679	9814
729.794	11421
729.908	10148
730.023	10488
730.138	10413
730.253	12091
730.367	9737
730.482	12063
730.596	12302
730.711	17241
730.826	33202
730.940	44241
731.055	17789
731.169	16986
731.284	17654
731.398	18924
731.513	19995
731.627	24087
731.742	31235
731.856	38975
731.970	44617
732.085	64276
732.199	100670
732.313	188726
732.428	451583
732.542	910215
732.656	489242
732.771	140480
732.885	73959
732.999	54825
733.113	49505
733.227	45193
733.342	39737
733.456	38010
733.570	34872
733.684	33717
733.798	31223
733.912	31494
734.026	30903
734.140	29536
734.254	28337
734.368	28335
734.482	28982
734.596	28230
734.710	27551
734.824	27088
734.938	26571
735.052	27242
735.166	26314
735.280	25602
735.393	25202
735.507	25666
735.621	24045
735.735	23771
735.849	25636
735.962	23066
736.076	24451
736.190	23163
736.303	23569
736.417	24501
736.531	21574
736.644	22860
736.758	23125
736.872	23049
736.985	22372
737.099	21950
737.212	21610
737.326	21417
737.439	21941
737.553	20100
737.666	21712
737.780	21142
737.893	21276
738.007	21229
738.120	21429
738.233	18940
738.347	20962
738.460	19028
738.573	21010
738.687	19436
738.800	19849
738.913	20819
739.026	20037
739.140	19590
739.253	19302
739.366	18154
739.479	19846
739.592	18836
739.705	17255
739.818	21240
739.932	17695
740.045	19475
740.158	18125
740.271	20304
740.384	17636
740.497	16738
740.610	18145
740.723	16849
740.836	17585
740.949	18402
741.062	18818
741.174	17095
741.287	17805
741.400	17832
741.513	15327
741.626	18042
741.739	17017
741.851	16836
741.964	18252
742.077	16243
742.189	15545
742.302	17375
742.415	15201
742.527	16739
742.640	16115
742.753	13842
742.865	16523
742.978	14990
743.090	14617
743.203	16982
743.316	13941
743.428	14970
743.541	14255
743.653	13897
743.766	15985
743.878	15825
743.990	12840
744.103	15990
744.215	14363
744.327	13232
744.440	18236
744.552	13437
744.664	13287
744.777	16136
744.889	13412
745.001	13829
745.113	14914
745.226	12936
745.338	13142
745.450	16004
745.562	12833
745.674	12630
745.786	15379
745.898	13568
746.010	11995
746.122	14777
746.234	13543
746.347	14039
746.459	13543
746.570	11760
746.682	14910
746.794	16157
746.906	12104
747.018	12393
747.130	12787
747.242	11687
747.354	11983
747.466	13197
747.577	11602
747.689	12797
747.801	12999
747.913	11385
748.024	10987
748.136	12313
748.248	11279
748.359	11878
748.471	12425
748.583	10021
748.694	10037
748.806	11863
748.918	9888
749.029	11112
749.141	11207
749.252	11641
749.364	9080
749.475	10042
749.587	9898
749.698	9982
749.809	10260
749.921	10945
750.032	9625
750.144	9953
750.255	9262
750.366	10244
750.478	8928
750.589	10075
750.700	9264
750.811	10746
750.923	9406
751.034	8611
751.145	10409
751.256	9703
751.367	8223
751.479	9800
751.590	8826
751.701	8952
751.812	8356
751.923	8954
752.034	11343
752.145	10609
752.256	10058
752.367	9450
752.478	9491
752.589	10152
752.700	9655
752.811	9500
752.922	8283
753.032	10278
753.143	9540
753.254	9371
753.365	11799
753.476	11666
753.586	9431
753.697	9284
753.808	8438
753.919	9130
754.029	8001
754.140	7978
754.251	8926
754.361	9309
754.472	9855
754.582	8326
754.693	8524
754.804	10402
754.914	8494
755.025	7475
755.135	8485
755.246	9640
755.356	7667
755.466	8068
755.577	8634
755.687	8845
755.798	7749
755.908	8251
756.018	7954
756.129	8698
756.239	9088
756.349	9938
756.460	10547
756.570	12087
756.680	9184
756.790	9481
756.900	8795
757.011	7625
757.121	7387
757.231	8144
757.341	8588
757.451	7994
757.561	7467
757.671	8729
757.781	7658
757.891	7876
758.001	7476
758.111	9571
758.221	9417
758.331	10730
758.441	9897
758.551	10744
758.661	11461
758.771	12183
758.880	10301
758.990	10352
759.100	10350
759.210	10879
759.320	10432
759.429	11594
759.539	12598
759.649	13034
759.758	15383
759.868	18270
759.978	17083
760.087	19390
760.197	20356
760.307	19748
760.416	16827
760.526	15534
760.635	15715
760.745	18253
760.854	19748
760.964	23858
761.073	23469
761.182	22629
761.292	18101
761.401	14370
761.511	11963
761.620	11497
761.729	10272
761.839	9541
761.948	9115
762.057	10247
762.166	10577
762.276	8375
762.385	9059
762.494	8764
762.603	7636
762.712	8640
762.822	7997
762.931	6507
763.040	6049
763.149	7153
763.258	6908
763.367	7202
763.476	6800
763.585	6900
763.694	5547
763.803	6526
763.912	5956
764.021	6199
764.130	5834
764.238	7511
764.347	7820
764.456	8538
764.565	7418
764.674	7243
764.783	6090
764.891	6232
765.000	6531
765.109	6048
765.217	5109
765.326	6344
765.435	5689
765.543	6713
765.652	6707
765.761	6246
765.869	6377
765.978	8267
766.086	11415
766.195	16899
766.303	42652
766.412	146381
766.520	108930
766.629	17516
766.737	9051
766.846	7293
766.954	6313
767.062	8096
767.171	7472
767.279	9015
767.387	5902
767.496	5451
767.604	4583
767.712	5472
767.820	4433
767.928	5261
768.037	4163
768.145	6418
768.253	5030
768.361	5601
768.469	4927
768.577	5197
768.685	5595
768.793	6353
768.901	4935
769.009	5635
769.117	4812
769.225	5988
769.333	6865
769.441	8068
769.549	9573
769.657	17797
769.765	52526
769.873	118726
769.981	27276
770.088	8499
770.196	6384
770.304	8053
770.412	7527
770.519	8504
770.627	6691
770.735	6953
770.842	6109
770.950	7862
771.058	7504
771.165	11521
771.273	11012
771.380	12213
771.488	16895
771.595	18242
771.703	15460
771.810	15983
771.918	16343
772.025	20005
772.133	23258
772.240	20794
772.348	23679
772.455	22924
772.562	20970
772.670	20296
772.777	20184
772.884	20089
772.991	18268
773.099	21625
773.206	18587
773.313	20068
773.420	18301
773.528	20549
773.635	17718
773.742	20660
773.849	18068
773.956	20209
774.063	17305
774.170	19445
774.277	18653
774.384	17810
774.491	17647
774.598	17736
774.705	16714
774.812	17871
774.919	15698
775.026	17764
775.133	18702
775.239	17112
775.346	16188
775.453	16304
775.560	15906
775.667	16711
775.773	15480
775.880	18415
775.987	15844
776.093	17020
776.200	17273
776.307	12750
776.413	15247
776.520	18942
776.627	14978
776.733	14114
776.840	12222
776.946	20102
777.053	15354
777.159	15909
777.266	13252
777.372	14787
777.478	16647
777.585	14937
777.691	11970
777.798	15917
777.904	12256
778.010	13272
778.117	14696
778.223	12876
778.329	14171
778.435	12577
778.542	15024
778.648	12891
778.754	11269
778.860	14416
778.966	14196
779.072	12246
779.178	12776
779.284	10961
779.391	12686
779.497	13726
779.603	14346
779.708	11330
779.815	10916
779.920	13692
780.026	10997
780.132	13233
780.238	11033
780.344	11429
780.450	15493
780.556	9457
780.661	10787
780.767	12896
780.873	8112
780.979	11803
781.085	12762
781.190	11607
781.296	9893
781.402	11984
781.507	10384
781.613	8140
781.719	10604
781.824	12681
781.930	10357
782.035	11075
782.141	11778
782.246	8863
782.352	8975
782.457	10652
782.563	11051
782.668	10815
782.773	9444
782.879	9417
782.984	9820
783.090	10216
783.195	10547
783.300	12145
783.405	9214
783.511	8876
783.616	8894
783.721	10115
783.826	7919
783.932	8818
784.037	8868
784.142	10632
784.247	8861
784.352	9674
784.457	7239
784.562	9969
784.667	10734
784.772	7141
784.877	6216
784.982	9571
785.087	8878
785.192	7619
785.297	7521
785.402	9405
785.507	8110
785.611	7722
785.716	6532
785.821	9578
785.926	8535
786.031	8160
786.135	8057
786.240	9115
786.345	5545
786.450	7306
786.554	7789
786.659	7305
786.763	7241
786.868	8651
786.973	9112
787.077	6279
787.182	6131
787.286	8440
787.391	8969
787.495	5588
787.600	4690
787.704	7874
787.809	7435
787.913	6612
788.017	7515
788.122	8797
788.226	6065
788.330	4773
788.435	6165
788.539	9289
788.643	5689
788.747	5348
788.852	6552
788.956	7215
789.060	7553
789.164	7311
789.268	5483
789.372	7553
789.476	5816
789.580	5397
789.684	5308
789.788	7366
789.892	6588
789.996	5206
790.100	4441
790.204	7203
790.308	7697
790.412	5021
790.516	4303
790.620	5995
790.724	8830
790.828	6895
790.931	2920
791.035	6936
791.139	5341
791.242	5705
791.346	6439
791.450	6044
791.554	4938
791.657	4051
791.761	6429
791.864	6681
791.968	6767
792.072	5871
792.175	4485
792.279	4939
792.382	4307
792.486	4076
792.589	4869
792.693	6077
792.796	3978
792.899	7047
793.003	7605
793.106	4189
793.209	5231
793.313	5315
793.416	1954
793.519	5124
793.623	7773
793.726	6118
793.829	4785
793.932	4295
794.035	2781
794.138	7170
794.242	7518
794.345	4309
794.448	3120
794.551	3367
794.654	6122
794.757	6458
794.860	4566
794.963	5927
795.066	3902
795.169	5555
795.272	4484
795.375	6556
795.477	2214
795.580	4881
795.683	3797
795.786	5950
795.889	3210
795.991	5227
796.094	4985
796.197	3549
796.300	6367
796.402	6228
796.505	3999
796.608	3949
796.710	5084
796.813	6686
796.915	6465
797.018	6265
797.120	5477
797.223	4490
797.326	6862
797.428	4674
797.530	2799
797.633	5111
797.735	7235
797.838	6276
797.940	5973
798.042	4969
798.145	3773
798.247	4213
798.349	2155
798.452	5940
798.554	5726
798.656	5160
798.758	7844
798.860	6407
798.962	4408
799.065	5200
799.167	3506
799.269	4898
799.371	5957
799.473	9770
799.575	6323
799.677	4440
799.779	5377
799.881	3364
799.983	5823
800.085	5670
800.187	4602
800.289	2975
800.390	4191
800.492	6101
800.594	5218
800.696	2830
800.798	3831
800.899	4108
801.001	4068
801.103	5128
801.205	4752
801.306	4931
801.408	3889
801.509	5365
801.611	4515
801.713	5089
801.814	3373
801.916	3416
802.017	2807
802.119	2840
802.220	4161
802.322	2942
802.423	4124
802.525	2499
802.626	3137
802.727	5066
802.829	4635
802.930	1430
803.031	4832
803.133	3803
803.234	4528
803.335	4448
803.436	2448
803.538	4416
803.639	1701
803.740	4678
803.841	2668
803.942	4959
804.043	4294
804.144	2862
804.245	3454
804.346	3120
804.447	2343
804.548	3446
804.649	4078
804.750	3159
804.851	2517
804.952	3165
805.053	3454
805.154	2982
805.255	4084
805.355	3471
805.456	2666
805.557	2429
805.658	2237
805.758	3271
805.859	2991
805.960	4051
806.061	2334
806.161	2875
806.262	2318
806.362	3065
806.463	3011
806.564	3903
806.664	3911
806.765	2547
806.865	2166
806.966	2253
807.066	1871
807.166	4324
807.267	3565
807.367	1906
807.468	3193
807.568	1352
807.668	3258
807.769	4016
807.869	1504
807.969	2444
808.069	1692
808.170	3095
808.270	2199
808.370	4187
808.470	2681
808.570	1772
808.670	2420
808.770	3316
808.870	1962
808.970	3163
809.070	2115
809.170	2571
809.271	3212
809.370	2927
809.470	3288
809.570	2980
809.670	1283
809.770	2904
809.870	3402
809.970	3086
810.070	2568
810.169	3497
810.269	1010
810.369	3828
810.469	2677
810.568	2756
810.668	1498
810.768	2488
810.867	2143
810.967	2458
811.066	2182
811.166	2428
811.265	2553
811.365	2224
811.464	2327
811.564	3199
811.663	2709
811.763	1621
811.862	2506
811.962	3809
812.061	2314
812.160	2798
812.260	1990
812.359	2764
812.458	1852
812.557	3139
812.657	1812
812.756	4193
812.855	2678
812.954	2048
813.053	2647
813.153	1965
813.252	2086
813.351	3088
813.450	3135
813.549	2423
813.648	2691
813.747	3141
813.846	3567
813.945	2559
814.044	3509
814.143	3701
814.242	2877
814.341	3703
814.439	3999
814.538	4625
814.637	3874
814.736	3986
814.835	5002
814.933	3394
815.032	5607
815.131	7719
815.229	15236
815.328	19308
815.427	13924
815.525	12740
815.624	12856
815.722	12164
815.821	13305
815.919	12439
816.018	12210
816.116	13805
816.215	12150
816.313	14897
816.412	16982
816.510	17661
816.609	17128
816.707	19391
816.805	16711
816.904	18054
817.002	18865
817.100	19059
817.198	18577
817.296	16874
817.395	18060
817.493	16444
817.591	15955
817.689	16143
817.787	16126
817.885	14995
817.983	14291
818.081	14836
818.179	15522
818.277	20077
818.375	16683
818.473	14850
818.571	11791
818.669	15342
818.767	16037
818.865	13336
818.963	10512
819.061	15009
819.158	13334
819.256	17999
819.354	15129
819.452	22090
819.549	17443
819.647	17104
819.745	11181
819.842	13048
819.940	12884
820.038	12115
820.135	10804
820.233	13643
820.330	12159
820.428	11253
820.525	13953
820.623	11467
820.720	10826
820.818	12392
820.915	12149
821.012	11324
821.110	10032
821.207	11435
821.304	9474
821.402	12864
821.499	11918
821.596	10193
821.693	11270
821.791	12550
821.888	11411
821.985	12840
822.082	8472
822.179	12263
822.276	10912
822.373	9506
822.470	10156
822.567	11952
822.664	8912
822.761	11081
822.858	10981
822.955	10520
823.052	8312
823.149	11467
823.246	10734
823.343	8051
823.440	9070
823.536	11861
823.633	10357
823.730	9096
823.827	9782
823.923	10097
824.020	8276
824.117	11641
824.213	9416
824.310	9463
824.407	7850
824.503	10053
824.600	8399
824.696	8115
824.793	10940
824.889	11796
824.986	7467
825.082	6487
825.179	7451
825.275	10903
825.371	10160
825.468	7300
825.564	4557
825.660	10644
825.757	12256
825.853	9275
825.949	6153
826.045	8021
826.142	8652
826.238	9212
826.334	8621
826.430	8064
826.526	4859
826.622	6388
826.718	9772
826.814	10338
826.910	7613
827.006	5066
827.102	5428
827.198	9422
827.294	9767
827.390	9645
827.486	6229
827.582	5392
827.678	6276
827.774	10137
827.869	5262
827.965	6643
828.061	4823
828.157	10064
828.252	8135
828.348	6642
828.444	5668
828.539	5973
828.635	7599
828.731	8540
828.826	6044
828.922	8062
829.017	10321
829.113	9555
829.208	6352
829.304	8448
829.399	10671
829.495	9520
829.590	8825
829.685	7618
829.781	9065
829.876	8831
829.971	4462
830.066	4794
830.162	6544
830.257	11351
830.352	6676
830.447	5814
830.543	6888
830.638	8357
830.733	8667
830.828	7149
830.923	7459
831.018	8112
831.113	8125
831.208	5866
831.303	3702
831.398	5218
831.493	7084
831.588	11559
831.683	5539
831.778	4826
831.873	5075
831.967	8029
832.062	7636
832.157	6736
832.252	6343
832.346	6074
832.441	7770
832.536	6571
832.631	6561
832.725	4776
832.820	5317
832.914	5680
833.009	4176
833.104	4424
833.198	4582
833.293	5564
833.387	7292
833.482	7048
833.576	6228
833.670	7136
833.765	7715
833.859	8231
833.954	6914
834.048	6047
834.142	5214
834.237	3792
834.331	5298
834.425	6031
834.519	4766
834.613	5141
834.708	4473
834.802	4681
834.896	5232
834.990	6264
835.084	4538
835.178	4016
835.272	4448
835.366	7367
835.460	6830
835.554	5473
835.648	3536
835.742	2439
835.836	3657
835.930	3850
836.024	5200
836.117	5581
836.211	4129
836.305	2881
836.399	4037
836.493	3588
836.586	4984
836.680	5164
836.774	3600
836.867	4510
836.961	2791
837.055	3242
837.148	3053
837.242	4427
837.335	4428
837.429	4214
837.522	2740
837.616	3350
837.709	3845
837.803	3864
837.896	4948
837.989	4963
838.083	2633
838.176	2533
838.269	1661
838.363	4814
838.456	2674
838.549	5022
838.642	3395
838.735	4364
838.829	3602
838.922	3435
839.015	3809
839.108	3383
839.201	3375
839.294	4993
839.387	3006
839.480	2896
839.573	3317
839.666	2391
839.759	3563
839.852	2401
839.945	4902
840.038	3237
840.131	1847
840.223	2514
840.316	4614
840.409	4096
840.502	4747
840.594	4622
840.687	2249
840.780	3215
840.873	1348
840.965	1997
841.058	3241
841.150	4676
841.243	1628
841.336	3057
841.428	2621
841.521	3386
841.613	2044
841.706	3318
841.798	2721
841.890	3837
841.983	1859
842.075	2573
842.167	2766
842.260	3347
842.352	4285
842.444	4224
842.537	2485
842.629	2015
842.721	1881
842.813	3163
842.905	1972
842.997	4529
843.090	2648
843.182	3365
843.274	1281
843.366	3523
843.458	2813
843.550	3939
843.642	2475
843.734	4032
843.826	621
843.918	1842
844.009	2947
844.101	2461
844.193	2659
844.285	3833
844.377	3462
844.469	2951
844.560	1130
844.652	2727
844.744	2503
844.835	2941
844.927	2823
845.019	3237
845.110	2611
845.202	3560
845.293	2072
845.385	2128
845.476	2574
845.568	3543
845.659	2568
845.751	3112
845.842	1610
845.934	2106
846.025	2409
846.116	2969
846.208	2763
846.299	1797
846.390	1889
846.482	3119
846.573	2913
846.664	3060
846.755	1618
846.846	3738
846.937	476
847.029	2077
847.120	1676
847.211	2510
847.302	2977
847.393	2176
847.484	2264
847.575	1348
847.666	736
847.757	2295
847.847	2409
847.938	3475
848.029	2443
848.120	2424
848.211	2545
848.302	1627
848.392	2072
848.483	3253
848.574	2046
848.664	2730
848.755	2573
848.846	3066
848.936	1984
849.027	2966
849.118	3094
849.208	3883
849.299	6442
849.389	10705
849.480	20518
849.570	37888
849.661	71906
849.751	101422
849.841	38019
849.932	10186
850.022	4590
850.112	4520
850.203	3918
850.293	3805
850.383	3088
850.474	2717
850.564	2099
850.654	2155
850.744	2312
850.834	2729
850.924	1750
851.014	3880
851.104	2154
851.194	2232
851.284	2266
851.374	1374
851.464	1243
851.554	2389
851.644	2477
851.734	3145
851.824	2801
851.914	2979
852.004	3340
852.094	2252
852.183	1400
852.273	3000
852.363	2422
852.452	3282
852.542	2472
852.632	3504
852.721	3483
852.811	2969
852.901	3827
852.990	5267
853.080	4141
853.169	5699
853.259	6218
853.348	7359
853.438	7827
853.527	11392
853.617	15013
853.706	25919
853.795	41866
853.885	77477
853.974	127355
854.063	200758
854.152	228605
854.242	124323
854.331	50206
854.420	26571
854.509	17322
854.598	13179
854.687	10403
854.777	8396
854.866	5733
854.955	6487
855.044	4462
855.133	4815
855.222	3827
855.311	3571
855.400	3030
855.488	3371
855.577	2520
855.666	3173
855.755	3410
855.844	3581
855.933	2226
856.021	2607
856.110	3022
856.199	1891
856.288	1886
856.376	2503
856.465	1489
856.554	3226
856.642	2348
856.731	3063
856.819	2510
856.908	2479
856.996	3256
857.085	1751
857.173	1078
857.262	2228
857.350	1753
857.438	1419
857.527	1929
857.615	2392
857.703	2729
857.792	2284
857.880	1035
857.968	2002
858.056	1343
858.145	1032
858.233	2079
858.321	1742
858.409	2426
858.497	3131
858.585	949
858.673	1957
858.761	842
858.849	1224
858.937	1719
859.025	2306
859.113	1895
859.201	2021
859.289	2614
859.377	1932
859.465	2345
859.552	2894
859.640	822
859.728	2636
859.816	2259
859.903	1854
859.991	1083
860.079	2420
860.166	2023
860.254	1806
860.342	1552
860.429	2121
860.517	1645
860.604	1598
860.692	1237
860.779	1478
860.867	1742
860.954	2337
861.042	2167
861.129	3157
861.216	2576
861.304	3070
861.391	2800
861.478	1399
861.565	1500
861.653	3226
861.740	1461
861.827	1775
861.914	2157
862.001	2370
862.089	2883
862.176	2296
862.263	1772
862.350	2679
862.437	2281
862.524	1785
862.611	1768
862.698	3552
862.785	1570
862.871	4289
862.958	3071
863.045	3050
863.132	2247
863.219	2212
863.306	759
863.392	2736
863.479	1962
863.566	2911
863.652	2906
863.739	2570
863.826	2363
863.912	2934
863.999	1786
864.086	3036
864.172	2546
864.259	3865
864.345	2821
864.432	4522
864.518	4585
864.604	4174
864.691	3641
864.777	4750
864.863	6755
864.950	8733
865.036	11796
865.122	20748
865.209	19415
865.295	18482
865.381	16600
865.467	18803
865.553	21024
865.639	24273
865.726	33264
865.812	50477
865.898	78962
865.984	114716
866.070	169098
866.156	157754
866.242	74075
866.328	35359
866.414	24388
866.499	19218
866.585	17317
866.671	17456
866.757	15789
866.843	14629
866.928	14098
867.014	14214
867.100	13474
867.186	13615
867.271	12726
867.357	14185
867.442	11944
867.528	12974
867.614	12575
867.699	13786
867.785	12177
867.870	11531
867.956	11369
868.041	12427
868.127	11469
868.212	11592
868.297	11510
868.383	12408
868.468	10444
868.553	11559
868.639	10511
868.724	11349
868.809	11200
868.894	11416
868.979	10253
869.065	10992
869.150	8858
869.235	11336
869.320	10363
869.405	9961
869.490	10638
869.575	10009
869.660	8047
869.745	11839
869.830	11273
869.915	10263
870.000	8972
870.085	9472
870.169	11721
870.254	11982
870.339	7512
870.424	8764
870.509	10709
870.593	11390
870.678	10979
870.763	9226
870.847	7990
870.932	10655
871.016	9630
871.101	7026
871.186	9263
871.270	11510
871.355	7134
871.439	8637
871.523	10312
871.608	6934
871.692	7926
871.777	10719
871.861	10391
871.945	8796
872.030	8282
872.114	9479
872.198	7784
872.282	8040
872.367	7483
872.451	8085
872.535	8093
872.619	9522
872.703	6716
872.787	9525
872.871	8442
872.955	6499
873.039	6132
873.123	9147
873.207	8520
873.291	5967
873.375	6802
873.459	9917
873.543	7293
873.627	6702
873.711	6837
873.794	8787
873.878	7031
873.962	6287
874.045	6656
874.129	8223
874.137	8172
874.213	7661
874.245	7371
874.296	6911
874.352	5423
874.380	4695
874.460	6414
874.464	6485
874.547	6448
874.568	6930
874.631	8340
874.676	7900
874.714	7555
874.784	7490
874.798	7479
874.881	6541
874.892	6509
874.965	6308
874.999	6665
875.048	7134
875.107	6749
875.131	6596
875.215	4722
875.215	4721
875.298	4819
875.323	5236
875.381	6280
875.430	7183
875.465	7812
875.538	6492
875.548	6302
875.631	5334
875.646	5032
875.714	3698
875.753	4184
875.798	4758
875.861	6749
875.881	7343
875.964	5486
875.968	5442
876.047	4715
876.076	5015
876.130	5551
876.183	5913
876.213	6147
876.291	7098
876.296	7151
876.379	4666
876.398	4556
876.462	4316
876.506	4395
876.545	4382
876.613	4315
876.628	4326
876.711	5117
876.721	5248
876.794	6228
876.828	5973
876.877	5526
876.935	4122
876.960	3592
877.043	4767
877.043	4768
877.125	4984
877.150	5776
877.208	7380
877.258	6350
877.291	5723
877.365	3646
877.374	3384
877.456	4554
877.472	4305
877.539	3327
877.579	4732
877.622	6245
877.687	5393
877.704	5131
877.787	5038
877.794	5030
877.869	4935
877.901	4990
877.952	5080
878.008	3777
878.034	3134
878.115	4078
878.117	4101
878.199	3951
878.222	4131
878.282	4621
878.329	4937
878.364	5043
878.437	5519
878.447	5589
878.529	3590
878.544	3561
878.611	3308
878.651	3425
878.694	3777
878.758	4447
878.776	4574
878.858	3850
878.865	3884
878.941	4031
878.972	3351
879.023	2478
879.078	3345
879.105	3779
879.185	4745
879.187	4758
879.269	4335
879.292	4292
879.351	4078
879.399	3516
879.433	3156
879.506	3821
879.516	3909
879.598	3604
879.613	3453
879.680	2856
879.720	3776
879.762	4717
879.827	3333
879.844	2961
879.926	4342
879.933	4292
880.007	3890
880.040	3702
880.089	3287
880.147	3651
880.171	3845
880.253	4828
880.254	4827
880.335	3545
880.360	4104
880.417	5614
880.467	5411
880.499	5306
880.574	5138
880.580	5078
880.662	3981
880.680	3619
880.744	2544
880.787	2710
880.825	2937
880.893	3232
880.907	3215
880.989	2420
881.000	2599
881.070	4041
881.106	3680
881.152	3147
881.213	2658
881.233	2450
881.315	2847
881.319	2854
881.396	3474
881.426	3437
881.478	2837
881.532	3151
881.559	3605
881.639	2727
881.641	2677
881.722	2692
881.745	2402
881.803	2724
881.852	3358
881.885	3201
881.958	2139
881.966	2144
882.047	3954
882.064	3874
882.129	2731
882.171	2423
882.210	2304
882.277	2232
882.291	2234
882.372	3078
882.383	3155
882.454	4013
882.489	3912
882.535	3372
882.596	3142
882.616	3085
882.697	2766
882.702	2717
882.778	2277
882.808	2432
882.859	2371
882.914	2234
882.940	2216
883.020	2688
883.021	2692
883.102	3019
883.127	3276
883.183	3655
883.233	2962
883.264	2342
883.339	2038
883.345	2010
883.426	1086
883.445	1221
883.507	2122
883.551	2094
883.587	2145
883.657	2997
883.668	3145
883.749	3468
883.763	3484
883.830	2088
883.869	1290
883.910	1333
883.975	2214
883.991	2425
884.072	2896
884.081	2973
884.152	3334
884.187	3429
884.233	3479
884.292	3148
884.314	2771
884.394	964
884.398	935
884.475	1183
884.504	1146
884.555	1350
884.610	1816
884.636	1938
884.716	2138
884.716	2142
884.797	3652
884.821	3817
884.877	3256
884.927	2875
884.958	2608
885.033	1893
885.038	1837
885.118	1081
885.139	1026
885.199	1761
885.244	2294
885.279	2509
885.350	2883
885.359	2945
885.439	3364
885.456	3253
885.520	2331
885.561	2231
885.600	1884
885.667	1342
885.680	1430
885.760	1944
885.773	1969
885.840	1365
885.878	1197
885.920	1503
885.984	2043
886.000	2046
886.080	2187
886.089	2164
886.160	2250
886.195	2288
886.240	2189
886.300	2211
886.320	2078
886.400	1600
886.406	1545
886.480	1624
886.511	1915
886.560	1952
886.616	1587
886.640	1581
886.720	1879
886.722	1882
886.800	1591
886.827	1678
886.879	2176
886.932	2452
886.959	2285
887.038	1754
887.039	1752
887.119	1911
887.143	1981
887.198	2026
887.248	2033
887.278	2241
887.354	2869
887.358	2848
887.437	2279
887.459	2175
887.517	2471
887.564	2529
887.596	2289
887.669	1883
887.676	1847
887.755	1463
887.774	1387
887.835	1496
887.880	1640
887.914	1825
887.985	2070
887.994	2049
888.073	1967
888.090	1919
888.153	2597
888.195	3033
888.232	2329
888.300	1244
888.311	1274
888.391	1402
888.405	1433
888.470	1342
888.510	1287
888.549	1545
888.615	2133
888.628	2175
888.708	2316
888.720	2342
888.787	2352
888.825	2308
888.866	1669
888.930	802
888.945	929
889.024	1645
889.035	1739
889.103	2186
889.140	2393
889.182	2157
889.245	1960
889.261	1897
889.340	1512
889.349	1475
889.419	1604
889.454	1677
889.498	1292
889.559	800
889.577	982
889.656	1800
889.664	1888
889.735	2179
889.768	2319
889.814	2171
889.873	1975
889.978	1236
890.083	2620
890.187	1777
890.292	1894
890.397	1100
890.501	1608
890.606	1183
890.710	1361
890.815	2953
890.919	1413
891.024	1685
891.128	1806
891.233	645
891.337	1884
891.442	2286
891.546	1814
891.650	1404
891.755	1331
891.859	2464
891.963	2768
892.068	1830
892.172	1435
892.276	347
892.380	785
892.484	1450
892.589	2533
892.693	1388
892.797	588
892.901	979
893.005	830
893.109	1979
893.213	2869
893.317	1566
893.421	1580
893.525	748
893.629	730
893.733	1472
893.837	1668
893.941	1026
894.045	1960
894.148	200
894.252	1147
894.356	2157
894.460	2508
894.564	1649
894.667	1458
894.771	439
894.875	1111
894.978	1137
895.082	2199
895.186	1778
895.289	1975
895.393	867
895.496	1899
895.600	686
895.703	1282
895.807	421
895.910	1285
896.014	1148
896.117	831
896.221	1528
896.324	1453
896.427	1116
896.531	620
896.634	1189
896.737	1217
896.840	868
896.944	1960
897.047	1529
897.150	1569
897.253	573
897.356	1021
897.460	13
897.563	685
897.666	2162
897.769	2264
897.872	713
897.975	1004
898.078	472
898.181	630
898.284	1170
898.387	1633
898.490	1623
898.593	1446
898.695	659
898.798	973
898.901	792
899.004	1062
899.107	160
899.209	1422
899.312	1840
899.415	1436
899.518	375
899.620	289
899.723	1112
899.826	845
899.928	875
900.031	1158
900.133	1104
900.236	785
900.338	564
900.441	262
900.543	510
900.646	726
900.748	1445
900.851	1089
900.953	1062
901.055	1079
901.158	170
901.260	598
901.362	251
901.465	565
901.567	762
901.669	1879
901.771	827
901.873	1860
901.976	6
902.078	1103
902.180	556
902.282	-179
902.384	673
902.486	1859
902.588	-60
902.690	761
902.792	427
902.894	485
902.996	1301
903.098	1054
903.200	622
903.302	737
903.404	865
903.505	1021
903.607	270
903.709	2396
903.811	1574
903.913	857
904.014	142
904.116	1001
904.218	359
904.319	1201
904.421	1738
904.523	1260
904.624	1106
904.726	676
904.827	579
904.929	705
905.030	200
905.132	1650
905.233	474
905.335	312
905.436	881
905.537	729
905.639	251
905.740	1218
905.841	943
905.943	1058
906.044	609
906.145	418
906.247	846
906.348	484
906.449	-138
906.550	896
906.651	679
906.752	542
906.854	443
906.955	847
907.056	471
907.157	1206
907.258	750
907.359	1358
907.460	129
907.561	111
907.662	-411
907.762	648
907.863	127
907.964	1098
908.065	452
908.166	1440
908.267	197
908.367	-194
908.468	4
908.569	688
908.670	1170
908.770	775
908.871	359
908.971	2055
909.072	-613
909.173	579
909.273	415
909.374	1484
909.474	-173
909.575	304
909.675	33
909.776	754
909.876	819
909.977	632
910.077	1246
910.177	842
910.278	888
910.378	1222
910.478	661
910.579	991
910.679	-166
910.779	1492
910.879	430
910.980	1368
911.080	375
911.180	384
911.280	-266
911.380	299
911.480	38
911.580	900
911.680	156
911.780	994
911.880	1091
911.980	444
912.080	27
912.180	624
912.280	646
912.380	424
912.480	2
912.580	697
912.679	5
912.779	1040
912.879	126
912.979	1090
913.078	249
913.178	603
913.278	225
913.377	249
913.477	26
913.577	705
913.676	898
913.776	573
913.875	803
913.975	1055
914.074	465
914.174	615
914.273	-279
914.373	676
914.472	120
914.572	226
914.671	396
914.770	738
914.870	31
914.969	267
915.068	493
915.167	1348
915.267	-5
915.366	498
915.465	765
915.564	1051
915.663	195
915.763	967
915.862	957
915.961	1492
916.060	16
916.159	-68
916.258	-440
916.357	453
916.456	154
916.555	446
916.654	383
916.752	822
916.851	792
916.950	679
917.049	127
917.148	526
917.247	-263
917.345	618
917.444	1066
917.543	540
917.642	419
917.740	1009
917.839	921
917.937	895
918.036	876
918.135	850
918.233	219
918.332	56
918.430	30
918.529	430
918.627	-6
918.726	1479
918.824	782
918.923	777
919.021	448
919.119	521
919.218	-159
919.316	315
919.414	-38
919.512	196
919.611	940
919.709	1416
919.807	639
919.905	2244
920.003	1085
920.102	1089
920.200	1583
920.298	1392
920.396	278
920.494	1027
920.592	226
920.690	1034
920.788	876
920.886	1242
920.984	1152
921.082	2044
921.180	1733
921.277	1926
921.375	1452
921.473	3084
921.571	2647
921.669	3094
921.766	2283
921.864	3369
921.962	1957
922.060	1949
922.157	2599
922.255	3523
922.352	2609
922.450	2608
922.548	2345
922.645	3801
922.743	5264
922.840	7507
922.938	8863
923.035	8139
923.133	6836
923.230	9063
923.327	10879
923.425	9787
923.522	9882
923.619	9364
923.717	7395
923.814	7499
923.911	6623
924.008	7751
924.106	6789
924.203	7119
924.300	7114
924.397	7699
924.494	7902
924.591	7066
924.688	6226
924.786	7279
924.883	7672
924.979	7041
925.077	7342
925.173	7600
925.270	7515
925.367	6519
925.464	6758
925.561	7824
925.658	8079
925.755	6618
925.852	7608
925.948	7588
926.045	7143
926.142	6257
926.239	6656
926.335	6015
926.432	7671
926.529	7157
926.625	6475
926.722	6003
926.818	6137
926.915	7516
927.011	6016
927.108	5800
927.204	6747
927.301	5593
927.397	6802
927.494	7752
927.590	5398
927.687	5694
927.783	6724
927.879	6871
927.976	6134
928.072	5494
928.168	6109
928.264	6724
928.361	6174
928.457	7577
928.553	5912
928.649	5556
928.745	6694
928.841	5239
928.937	5524
929.033	7404
929.129	5747
929.225	7312
929.321	5225
929.417	5002
929.513	6352
929.609	5092
929.705	4829
929.801	6471
929.897	4262
929.993	5748
930.089	5898
930.184	4541
930.280	5140
930.376	7999
930.471	3476
930.567	5043
930.663	5314
930.758	4089
930.854	4845
930.950	5466
931.045	3804
931.141	5533
931.236	5934
931.332	6297
931.427	3195
931.523	6608
931.618	5864
931.714	4068
931.809	4641
931.905	6766
932.000	3080
932.095	4152
932.191	5457
932.286	6586
932.381	4336
932.476	4512
932.572	3867
932.667	4502
932.762	3881
932.857	5674
932.952	5576
933.047	4867
933.142	3557
933.237	3765
933.332	4724
933.427	6168
933.522	4042
933.617	3705
933.712	3985
933.807	5988
933.902	6613
933.997	5981
934.092	3880
934.187	4348
934.282	4589
934.376	4787
934.471	5742
934.566	4224
934.661	3677
934.755	5661
934.850	5867
934.945	4190
935.039	3758
935.134	3391
935.228	3569
935.323	6324
935.417	3515
935.512	3222
935.606	2753
935.701	4066
935.795	3737
935.890	3801
935.984	3280
936.079	2357
936.173	2970
936.267	3260
936.362	2782
936.456	3732
936.550	4894
936.644	5202
936.738	2824
936.833	3464
936.927	1685
937.021	3286
937.115	2639
937.209	3423
937.303	3959
937.397	3357
937.491	3326
937.585	4940
937.679	4405
937.773	3328
937.867	2003
937.961	3019
938.055	4596
938.149	4501
938.243	1835
938.337	1733
938.430	3221
938.524	4277
938.618	2832
938.712	2237
938.805	2930
938.899	2923
938.993	3887
939.086	2375
939.180	1611
939.274	2271
939.367	3521
939.461	4039
939.554	2897
939.648	2580
939.741	2142
939.835	3561
939.928	4695
940.022	4711
940.115	2992
940.208	4037
940.302	4102
940.395	5146
940.488	1176
940.582	2899
940.675	1523
940.768	2089
940.861	3275
940.954	4950
941.048	1726
941.141	1108
941.234	1080
941.327	2201
941.420	3314
941.513	3571
941.606	1846
941.699	3558
941.792	2385
941.885	2631
941.978	2563
942.071	2680
942.164	1209
942.257	2275
942.349	2433
942.442	3627
942.535	1697
942.628	1892
942.721	2473
942.813	2562
942.906	3338
942.999	2170
943.091	1677
943.184	2658
943.277	1284
943.369	2302
943.462	1002
943.554	2294
943.647	1783
943.739	3691
943.832	3090
943.924	280
944.017	1603
944.109	1958
944.201	1842
944.294	2467
944.386	3013
944.478	3161
944.571	1602
944.663	2294
944.755	2144
944.847	2510
944.940	2562
945.032	878
945.124	1009
945.216	3119
945.308	2512
945.400	2630
945.492	1030
945.584	2839
945.676	3939
945.768	3272
945.860	2842
945.952	2796
946.044	2342
946.136	1457
946.228	2316
946.320	1269
946.412	1905
946.503	3086
946.595	3003
946.687	2008
946.779	703
946.870	1385
946.962	352
947.054	1767
947.145	1461
947.237	1908
947.329	1398
947.420	1968
947.512	1713
947.603	1030
947.695	1269
947.786	987
947.878	853
947.969	2840
948.061	1962
948.152	1890
948.243	800
948.335	556
948.426	552
948.517	2073
948.609	2290
948.700	2040
948.791	1229
948.882	1431
948.973	802
949.065	1517
949.156	2062
949.247	629
949.338	1447
949.429	528
949.520	1161
949.611	1769
949.702	1933
949.793	1781
949.884	1397
949.975	2158
950.066	71
950.157	778
950.247	1258
950.338	1651
950.429	1180
950.520	1772
950.611	390
950.701	1871
950.792	1836
950.883	2144
950.973	1338
951.064	2285
951.155	1599
951.245	3068
951.336	1622
951.427	1783
951.517	3196
951.608	2575
951.698	767
951.788	1855
951.879	334
951.969	1104
952.060	-26
952.150	1672
952.240	1622
952.331	797
952.421	2196
952.511	1029
952.602	881
952.692	350
952.782	1010
952.872	1177
952.962	1565
953.052	1256
953.143	455
953.233	2049
953.323	1503
953.413	1355
953.503	1868
953.593	1698
953.683	26
953.773	148
953.863	-101
953.953	506
954.042	551
954.132	981
954.222	1150
954.312	1742
954.402	746
954.492	1186
954.581	860
954.671	1237
954.761	683
954.850	2105
954.940	155
955.030	991
955.119	412
955.209	1417
955.298	-185
955.388	1669
955.477	1855
955.567	602
955.656	647
955.746	1299
955.835	83
955.925	837
956.014	1249
956.103	1375
956.193	2334
956.282	1480
956.371	397
956.461	1127
956.550	706
956.639	1310
956.728	1239
956.817	1504
956.906	114
956.995	2011
957.085	-19
957.174	1037
957.263	-270
957.352	956
957.441	86
957.530	1574
957.619	884
957.708	697
957.796	521
957.885	1303
957.974	348
958.063	779
958.152	-387
958.241	976
958.329	518
958.418	722
958.507	-744
958.596	1996
958.684	238
958.773	1769
958.861	-830
958.950	649
959.039	-51
959.127	110
959.216	307
959.304	138
959.393	531
959.481	1669
959.570	556
959.658	-206
959.746	-189
959.835	1786
959.923	317
960.011	123
960.100	432
960.188	1647
960.276	231
960.365	324
960.453	14
960.541	181
960.629	956
960.717	506
960.805	-1478
960.893	672
960.981	34
961.069	2343
961.158	1168
961.245	1394
961.333	1377
961.421	101
961.509	780
961.597	1074
961.685	584
961.773	913
961.861	635
961.949	1925
962.036	-582
962.124	521
962.212	-78
962.299	357
962.387	309
962.475	1391
962.562	-650
962.650	1219
962.738	175
962.825	-495
962.913	128
963.000	178
963.088	-106
963.175	79
963.263	-138
963.350	446
963.438	-80
963.525	-196
963.612	43
963.700	258
963.787	805
963.874	884
963.962	-107
964.049	297
964.136	261
964.223	134
964.310	-204
964.398	606
964.485	-37
964.572	1109
964.659	-280
964.746	18
964.833	-109
964.920	-10
965.007	43
965.094	274
965.181	476
965.268	823
965.355	869
965.441	509
965.528	-367
965.615	835
965.702	109
965.789	48
965.875	831
965.962	447
966.049	637
966.136	1442
966.222	5
966.309	2010
966.395	715
966.482	864
966.569	-256
966.655	410
966.742	-180
966.828	1329
966.915	39
967.001	532
967.087	-1360
967.174	471
967.260	769
967.347	-186
967.433	428
967.519	721
967.605	138
967.692	412
967.778	-220
967.864	-245
967.950	-193
968.036	126
968.123	-98
968.209	1010
968.295	-1203
968.381	630
968.467	898
968.553	-450
968.639	714
968.725	756
968.811	1187
968.897	567
968.983	157
969.069	-265
969.154	353
969.240	1397
969.326	-973
969.412	-203
969.497	-1260
969.583	-497
969.669	667
969.755	944
969.840	667
969.926	1981
970.012	1499
970.097	2896
970.183	995
970.268	581
970.354	204
970.439	320
970.525	228
970.610	-391
970.696	865
970.781	1010
970.866	-775
970.952	997
971.037	-1224
971.122	-455
971.208	432
971.293	873
971.378	-573
971.463	541
971.549	-28
971.634	-959
971.719	-358
971.804	153
971.889	709
971.974	-206
972.059	704
972.144	321
972.229	198
972.314	232
972.399	-373
972.484	-382
972.569	451
972.654	-309
972.739	118
972.824	299
972.908	-1026
972.993	-515
973.078	243
973.163	294
973.247	902
973.332	-1512
973.417	1001
973.501	-69
973.586	-235
973.671	582
973.755	184
973.840	965
973.924	1175
974.009	1257
974.093	-342
974.178	1513
974.262	1458
974.346	151
974.431	-139
974.515	777
974.600	306
974.684	853
974.768	-359
974.852	708
974.937	-1444
975.021	971
975.105	547
975.189	-136
975.273	5
975.358	-628
975.442	-951
975.526	1092
975.610	-1033
975.694	-223
975.778	655
975.862	162
975.946	-1059
976.030	2193
976.114	-57
976.198	736
976.281	-346
976.365	1472
976.449	-719
976.533	747
976.617	-478
976.700	393
976.784	265
976.868	-565
976.951	-11
977.035	451
977.119	-688
977.202	508
977.286	527
977.369	1216
977.453	1437
977.536	983
977.620	423
977.703	1480
977.787	-198
977.870	1415
977.953	1199
978.037	-658
978.120	847
978.203	614
978.287	219
978.370	722
978.453	426
978.536	-149
978.620	572
978.703	-210
978.786	-834
978.869	289
978.952	-567
979.035	2254
979.118	550
979.201	-483
979.284	455
979.367	-131
979.450	-385
979.533	-508
979.616	-207
979.699	225
979.782	367
979.865	647
979.948	-224
980.030	370
980.113	-359
980.196	-726
980.279	434
980.361	1375
980.444	-682
980.526	941
980.609	1019
980.692	1736
980.774	1097
980.857	845
980.939	1243
981.022	333
981.104	775
981.187	720
981.269	1304
981.352	306
981.434	-656
981.516	885
981.599	989
981.681	1011
981.763	27
981.846	512
981.928	-244
982.010	237
982.092	72
982.174	1017
982.256	256
982.339	-72
982.421	578
982.503	129
982.585	-616
982.667	997
982.749	279
982.831	519
982.913	-628
982.995	1658
983.077	-1085
983.158	1886
983.240	-522
983.322	1688
983.404	3035
983.486	1254
983.568	2354
983.649	1378
983.731	1525
983.813	1213
983.894	488
983.976	712
984.058	549
984.139	893
984.221	-921
984.302	1586
984.384	420
984.465	294
984.547	112
984.628	70
984.710	1335
984.791	1280
984.872	448
984.954	1481
985.035	1340
985.116	796
985.198	51
985.279	1699
985.360	-250
985.441	298
985.522	641
985.604	972
985.685	-428
985.766	1252
985.847	1354
985.928	452
986.009	261
986.090	1500
986.171	705
986.252	720
986.333	636
986.414	325
986.495	1189
986.576	1629
986.656	198
986.737	1781
986.818	1350
986.899	889
986.980	742
987.060	1984
987.141	972
987.222	1850
987.302	1518
987.383	2537
987.464	1222
987.544	1800
987.625	1784
987.705	2179
987.786	1153
987.866	1885
987.947	453
988.027	2202
988.108	816
988.188	1999
988.268	1083
988.349	1350
988.429	829
988.509	855
988.589	1545
988.670	-976
988.750	1609
988.830	2425
988.910	1621
988.990	1273
989.070	814
989.151	1684
989.231	684
989.311	2009
989.391	149
989.471	1814
989.551	1195
989.631	460
989.711	744
989.791	810
989.870	-375
989.950	1595
990.030	881
990.110	1095
990.190	646
990.269	415
990.349	883
990.429	1352
990.509	878
990.588	103
990.668	951
990.747	1053
990.827	107
990.907	1250
990.986	787
991.066	1060
991.145	-507
991.225	561
991.304	666
991.383	1742
991.463	-290
991.542	856
991.622	163
991.701	-20
991.780	-61
991.859	1357
991.939	-113
992.018	837
992.097	562
992.176	3
992.256	135
992.335	853
992.414	963
992.493	420
992.572	-502
992.651	1998
992.730	738
992.809	330
992.888	-51
992.967	609
993.046	360
993.125	-622
993.203	261
993.282	739
993.361	745
993.440	205
993.519	-813
993.597	423
993.676	-607
993.755	821
993.834	173
993.912	-601
993.991	1172
994.069	-376
994.148	-234
994.226	-424
994.305	-599
994.384	-212
994.462	1070
994.540	-213
994.619	-1073
994.697	316
994.776	-1062
994.854	400
994.932	-836
995.011	464
995.089	-1003
995.167	373
995.245	-316
995.324	-407
995.402	-214
995.480	-187
995.558	-314
995.636	-595
995.714	-167
995.792	738
995.870	-195
995.948	497
996.026	-25
996.104	-733
996.182	-230
996.260	-1341
996.338	-713
996.416	-523
996.494	-47
996.572	424
996.649	-938
996.727	-935
996.805	291
996.883	754
996.960	-1240
997.038	99
997.116	-175
997.193	-434
997.271	-1305
997.348	-940
997.426	-964
997.504	-309
997.581	246
997.658	-679
997.736	-1405
997.813	-1
997.891	199
997.968	-669
998.046	-776
998.123	-422
998.200	-950
998.277	-234
998.355	-251
998.432	-1459
998.509	-633
998.586	-237
998.663	-589
998.741	-673
998.818	-1579
998.895	-1301
998.972	-944
999.049	-368
999.126	-1078
999.203	-355
999.280	-254
999.357	116
999.434	-414
999.511	-426
999.587	-612
999.664	-1825
999.741	-1431
999.818	902
999.895	-763
999.971	-841
1000.048	-627
1000.125	88
1000.202	-1617
1000.278	-497
1000.355	-756
1000.431	-1417
1000.508	-990
1000.584	-603
1000.661	-321
1000.738	-1028
1000.814	-1095
1000.890	-572
1000.967	-956
1001.043	-1185
1001.120	-2385
1001.196	5
1001.272	-1880
1001.349	-474
1001.425	-1131
1001.501	-1033
1001.577	-2022
1001.654	-511
1001.730	-615
1001.806	-1192
1001.882	-1722
1001.958	-161
1002.034	-1486
1002.110	-807
1002.186	-1551
1002.262	-660
1002.338	-2000
1002.414	19
1002.490	-572
1002.566	-1124
1002.642	-1710
1002.718	-689
1002.794	-1065
1002.870	-630
1002.945	-1041
1003.021	-378
1003.097	-938
1003.173	-1098
1003.248	-1164
1003.324	-983
1003.400	-1158
1003.475	-659
1003.551	-845
1003.626	-945
1003.702	-1762
1003.777	-446
1003.853	-2218
1003.928	-1395
1004.004	-1587
1004.079	-559
1004.155	-918
1004.230	-1509
1004.305	-423
1004.381	-1266
1004.456	-1023
1004.531	-1089
1004.607	-1596
1004.682	-904
1004.757	-1980
1004.832	-1028
1004.907	-2160
1004.982	-734
1005.057	-936
1005.133	-1168
1005.208	-1104
1005.283	-1448
1005.358	-1149
1005.433	-1210
1005.508	-1233
1005.583	-1762
1005.657	-1801
1005.732	-662
1005.807	-1015
1005.882	-1613
1005.957	-1782
1006.032	-447
1006.106	-1278
1006.181	-861
1006.256	-1568
1006.331	-1502
1006.405	-1525
1006.480	-859
1006.554	-2036
1006.629	-851
1006.704	-1726
1006.778	-981
1006.853	-966
1006.927	-1037
1007.002	-2081
1007.076	-1321
1007.150	-1347
1007.225	-938
1007.299	-1181
1007.373	-710
1007.448	-1791
1007.522	-481
1007.596	-1480
1007.671	-1025
1007.745	-897
1007.819	-1920
1007.893	-1489
1007.967	-537
1008.041	-3078
1008.115	-818
1008.190	-1560
1008.264	-661
1008.338	-3057
1008.412	-2078
1008.486	-1935
1008.560	-1334
1008.633	-2232
1008.707	-764
1008.781	-1070
1008.855	-1562
1008.929	-982
1009.003	-1634
1009.076	-2211
1009.150	-1647
1009.224	-918
1009.298	-1271
1009.371	-2116
1009.445	-1201
1009.519	-900
1009.592	-1795
1009.666	-1538
1009.739	-846
1009.813	-2307
1009.886	2
1009.960	-2363
1010.033	-1111
1010.107	-632
1010.180	-2956
1010.253	-1830
1010.327	-1790
1010.400	-1504
1010.473	-1531
1010.547	-764
1010.620	-1201
1010.693	-1891
1010.766	-1504
1010.840	-1554
1010.913	-629
1010.986	-2119
1011.059	-1258
1011.132	-1115
1011.205	-638
1011.278	-1303
1011.351	-1065
1011.424	-2050
1011.497	-927
1011.570	-1139
1011.643	-1407
1011.716	-1768
1011.789	-2346
1011.862	-1329
1011.934	-1263
1012.007	-3182
1012.080	-1008
1012.153	-1310
1012.225	-370
1012.298	-2468
1012.371	-1267
1012.443	-909
1012.516	-1389
1012.588	-1355
1012.661	-1229
1012.733	-2436
1012.806	-782
1012.879	-1321
1012.951	-1707
1013.023	-1908
1013.096	-1007
1013.168	-1704
1013.241	-1326
1013.313	-1803
1013.385	-1898
1013.458	-1832
1013.530	-1364
1013.602	-2246
1013.674	-1558
1013.746	-2455
1013.819	-1667
1013.891	-1370
1013.963	-1296
1014.035	-1207
1014.107	-1658
1014.179	-1866
1014.251	-2203
1014.323	-1493
1014.395	-952
1014.467	-1910
1014.539	-1636
1014.611	-2328
1014.683	-737
1014.754	-1923
1014.826	-1663
1014.898	-2362
1014.970	-2273
1015.042	-994
1015.113	-1158
1015.185	-2146
1015.257	-1733
1015.328	-1399
1015.400	-1452
1015.471	-1484
1015.543	-2036
1015.615	-2042
1015.686	-1043
1015.757	-1818
1015.829	-1245
1015.901	-2069
1015.972	-1535
1016.043	-2211
1016.115	-618
1016.186	-1862
1016.257	-2212
1016.328	-2591
1016.400	-1232
1016.471	-1565
1016.542	-1131
1016.613	-1601
1016.685	-1123
1016.756	-987
1016.827	-1394
1016.898	-2695
1016.969	-1343
1017.040	-1849
1017.111	-454
1017.182	-1968
1017.253	-994
1017.324	-1350
1017.395	-1508
1017.466	-1690
1017.537	-1376
1017.608	-1756
1017.678	-1472
1017.749	-1285
1017.820	-1736
1017.891	-1807
1017.961	-1559
1018.032	-1837
1018.103	-2399
1018.173	-1849
1018.244	-1217
1018.315	-1744
1018.385	-1276
1018.456	-1596
1018.526	-1685
1018.597	-2283
1018.667	-1096
1018.738	-1771
1018.808	-990
1018.878	-2100
1018.949	-1095
1019.019	-1084
1019.089	-1515
1019.160	-2258
1019.230	-2079
1019.300	-1169
1019.371	-2113
1019.441	-1801
1019.511	-1015
1019.581	-2089
1019.651	-1069
1019.721	-2052
1019.791	-1793
1019.861	-2273
1019.931	-1230
1020.001	-1825
1020.071	-1982
1020.141	-2545
1020.211	-1149
1020.281	-1848
1020.351	-1226
1020.421	-1954
1020.491	-683
1020.560	-2272
1020.630	-1436
1020.700	-1239
1020.770	-1876
1020.839	-2454
1020.909	-1374
1020.979	-1934
1021.048	-1595
1021.118	-1798
1021.187	-1459
1021.257	-2001
1021.326	-735
1021.396	-2482
1021.465	-1821
1021.535	-1634
1021.604	-3044
1021.674	-941
1021.743	-2031
1021.812	-1548
1021.882	-1368
1021.951	-1923
1022.020	-1336
1022.089	-1492
1022.159	-1083
1022.228	-2102
1022.297	-1801
1022.366	-1858
1022.435	-1244
1022.504	-2448
1022.573	-1008
1022.642	-2036
1022.711	-2156
1022.781	-1478
1022.849	-1578
1022.918	-2733
1022.987	-1465
1023.056	-2211
1023.125	-1709
1023.194	-1066
1023.263	-1900
1023.331	-1506
1023.400	-1886
1023.469	-2480
1023.538	-1363
1023.606	-1714
1023.675	-1937
1023.744	-1982
1023.812	-2136
1023.881	-1929
1023.949	-1621
1024.018	-2445
1024.086	-1891
1024.155	-2264
1024.223	-2155
1024.292	-2124
1024.360	-1805
1024.429	-1989
1024.497	-2308
1024.565	-1605
1024.634	-831
1024.702	-1873
1024.770	-1006
1024.838	-3163
1024.907	-803
1024.975	-2024
1025.043	-1720
1025.111	-2514
1025.179	-1294
1025.247	-1269
1025.315	-1567
1025.383	-1732
1025.451	-1578
1025.519	-1913
1025.587	-1411
1025.655	-2103
1025.723	-1219
1025.791	-2269
1025.859	-1338
1025.927	-1652
1025.995	-2009
1026.062	-1606
1026.130	-1329
1026.198	-2453
1026.266	-1642
1026.333	-1510
1026.401	-1305
1026.469	-1826
1026.536	-2116
1026.604	-1937
1026.671	-2003
1026.739	-2253
1026.806	-1500
1026.874	-2178
1026.941	-2354
1027.009	-2786
1027.076	-1610
1027.144	-1909
1027.211	-2201
1027.278	-1988
1027.345	-626
1027.413	-1489
1027.480	-2143
1027.547	-2062
1027.614	-2138
1027.682	-1710
1027.749	-2547
1027.816	-2067
1027.883	-431
1027.950	-2650
1028.017	-1573
1028.084	-2040
1028.151	-2524
1028.218	-1145
1028.285	-1544
1028.352	-1805
1028.419	-2034
1028.486	-2284
1028.553	-1683
1028.619	-1909
1028.686	-1446
1028.753	-2394
1028.820	-1602
1028.886	-1892
1028.953	-978
1029.020	-1300
1029.086	-1644
1029.153	-1683
1029.220	-2394
1029.286	-2011
1029.353	-906
1029.419	-2439
1029.486	-1593
1029.552	-2467
1029.619	-1215
1029.685	-2002
1029.751	-1265
1029.818	-1693
1029.884	-2596
1029.951	-1528
1030.017	-1295
1030.083	-1801
1030.149	-1437
1030.216	-1591
1030.282	-1584
1030.348	-2324
1030.414	-2803
1030.480	-1892
1030.546	-1929
1030.612	-2661
1030.678	-2071
1030.744	-1697
1030.810	-1668
1030.876	-2347
1030.942	-1279
1031.008	-1403
1031.074	-1539
1031.140	-2275
1031.206	-1597
1031.272	-2674
1031.337	-1123
1031.403	-1549
1031.469	-1775
1031.534	-2873
1031.600	-754
1031.666	-2526
1031.731	-1120
1031.797	-1961
1031.863	-2003
1031.928	-1982
1031.994	-2442
1032.059	-1586
1032.125	-1778
1032.190	-2378
1032.256	-1970
1032.321	-2070
1032.386	-2023
1032.452	-1773
1032.517	-1905
1032.582	-1880
1032.647	-1447
1032.713	-2119
1032.778	-1095
1032.843	-1994
1032.908	-1674
1032.974	-1464
1033.039	-1648
1033.104	-1965
1033.169	-1688
1033.234	-2273
1033.299	-1522
1033.364	-1996
1033.429	-1450
1033.494	-1767
1033.559	-2347
1033.624	-2500
1033.688	-859
1033.753	-2360
1033.818	-1810
1033.883	-2343
1033.948	-1144
1034.013	-1173
1034.077	-601
1034.142	-856
1034.207	-936
1034.271	-587
1034.336	1310
1034.400	-901
1034.465	-813
1034.530	-2333
1034.594	-1853
1034.658	-1937
1034.723	-2648
1034.787	-1076
1034.852	-1326
1034.916	-2389
1034.981	-1716
1035.045	-2172
1035.109	-1411
1035.173	-1559
1035.238	-2507
1035.302	-1806
1035.366	-1489
1035.430	-1989
1035.495	-1905
1035.559	-2464
1035.623	-2020
1035.687	-3060
1035.751	-1673
1035.815	-1741
1035.879	-1561
1035.943	-2343
1036.007	-2297
1036.071	-1350
1036.135	-1596
1036.198	-3243
1036.262	-1914
1036.326	-1453
1036.390	-1381
1036.454	-1642
1036.517	-1379
1036.581	-3095
1036.645	-1882
1036.709	-1751
1036.772	-2371
1036.836	-1960
1036.900	-1856
1036.963	-1911
1037.026	-1790
1037.090	-1999
1037.154	-1324
1037.217	-2391
1037.280	-1970
1037.344	-2042
1037.407	-1567
1037.471	-1637
1037.534	-1584
1037.597	-1980
1037.661	-1679
1037.724	-2701
1037.787	-1545
1037.850	-2182
1037.913	-1071
1037.977	-2178
1038.040	-1773
1038.103	-1582
1038.166	-2023
1038.229	-2684
1038.292	-2368
1038.355	-2124
1038.418	-1385
1038.481	-1403
1038.544	-1758
1038.607	-2039
1038.670	-1054
1038.732	-2414
1038.795	-1081
1038.858	-1791
1038.921	-955
1038.984	-2011
1039.046	-1893
1039.109	-1627
1039.172	-1500
1039.234	-3057
1039.297	-2473
1039.360	-2053
1039.422	-1608
1039.485	-2253
1039.547	-2012
1039.610	-2607
1039.672	-2259
1039.734	-1825
1039.797	-2354
1039.859	-1767
1039.922	-2119
1039.984	-2090
1040.046	-1894
1040.109	-1780
1040.171	-1751
1040.233	-2141
1040.295	-1592
1040.358	-2828
1040.420	-1737
1040.482	-2098
1040.544	-2158
1040.606	-1748
1040.668	-1805
1040.730	-2193
1040.792	-1526
1040.854	-1768
1040.916	-1786
1040.978	-2547
1041.040	-1703
1041.102	-1837
1041.164	-1490
1041.225	-2406
1041.287	-1743
1041.349	-2988
1041.411	-1796
1041.472	-2815
1041.534	-2316
1041.596	-2569
1041.657	-1419
1041.719	-3401
1041.781	-2093
1041.842	-2466
1041.904	-1667
1041.965	-2589
1042.027	-2158
1042.088	-1719
1042.150	-2043
1042.211	-2693
1042.272	-2452
1042.334	-2137
1042.395	-2112
1042.456	-2615
1042.518	-1910
1042.579	-1033
1042.640	-1661
1042.701	-2034
1042.763	-2203
1042.824	-1904
1042.885	-1813
1042.946	-2775
1043.007	-1759
1043.068	-2233
1043.129	-2399
1043.190	-2027
1043.251	-1601
1043.312	-1872
1043.373	-681
1043.434	-2180
1043.495	-1459
1043.556	-1541
1043.616	-1876
1043.677	-2798
1043.738	-1688
1043.799	-1607
1043.859	-1830
1043.920	-1979
1043.981	-2433
1044.041	-2442
1044.102	-2145
1044.162	-2155
1044.223	-1402
1044.284	-1870
1044.344	-2006
1044.405	-1734
1044.465	-2143
1044.525	-1720
1044.586	-1537
1044.646	-1915
1044.707	-1947
1044.767	-2647
1044.827	-1164
1044.887	-1892
1044.948	-1105
1045.008	-2333
1045.068	-1770
1045.128	-2121
1045.188	-1731
1045.249	-1557
1045.309	-1919
1045.369	-2146
1045.429	-2147
1045.489	-1804
1045.549	-1747
1045.609	-2555
1045.669	-1732
1045.729	-2430
1045.789	-1094
1045.848	-1806
1045.908	-2766
1045.968	-2108
1046.028	-1518
1046.088	-1540
1046.147	-942
1046.207	-2247
1046.267	-1625
1046.326	-1651
1046.386	-611
1046.446	-1360
1046.505	-877
1046.565	-1489
1046.624	-1201
1046.684	-1209
1046.743	-1099
1046.803	-1293
1046.862	-730
1046.922	0
