'Start Wavelength	183.907
'End Wavelength	1046.922
'Gate Delay	5.000
'Gate Width (ms)	1.050
'Laser Output Level	0.000
'X Position	0.000
'Y Position	0.000
'Z Position	0.000
'Grid Point Number	1.000
'Shot Number	100.000
183.907	814.000
183.977	-616.000
184.047	-414
184.116	420
184.186	325
184.256	164
184.325	41
184.395	-182
184.465	1235
184.534	41
184.604	-364
184.674	-1124
184.743	-432
184.813	198
184.883	655
184.952	-134
185.022	282
185.092	254
185.161	509
185.231	-244
185.301	503
185.370	-187
185.440	-190
185.509	7
185.579	350
185.649	58
185.718	1059
185.788	418
185.857	261
185.927	-639
185.996	-491
186.066	-242
186.136	-258
186.205	-561
186.275	13
186.344	-408
186.414	305
186.483	-362
186.553	24
186.622	-181
186.692	-41
186.761	-460
186.831	123
186.900	-598
186.970	-114
187.039	-138
187.109	-13
187.178	112
187.248	-34
187.317	-412
187.387	-205
187.456	-64
187.526	87
187.595	611
187.664	-79
187.734	-100
187.803	129
187.873	102
187.942	-136
188.012	561
188.081	-214
188.150	-456
188.220	-471
188.289	274
188.358	100
188.428	-35
188.497	-826
188.567	17
188.636	-487
188.705	-160
188.775	144
188.844	-683
188.913	659
188.983	30
189.052	301
189.121	-266
189.191	385
189.260	-225
189.329	-460
189.399	411
189.468	-176
189.537	694
189.606	100
189.676	-296
189.745	-132
189.814	-412
189.883	226
189.953	-210
190.022	-2
190.091	-433
190.161	50
190.230	272
190.299	269
190.368	196
190.437	-327
190.507	-602
190.576	-440
190.645	-347
190.714	-355
190.783	-664
190.853	20
190.922	66
190.991	-241
191.060	340
191.129	491
191.198	418
191.268	-488
191.337	20
191.406	-78
191.475	70
191.544	-468
191.613	-89
191.682	206
191.752	-58
191.821	154
191.890	-630
191.959	-353
192.028	121
192.097	168
192.166	-612
192.235	-683
192.304	112
192.373	-71
192.442	-641
192.511	351
192.580	-692
192.650	387
192.719	-361
192.788	126
192.857	-539
192.926	-724
192.995	-76
193.064	128
193.133	-491
193.202	-466
193.271	72
193.340	149
193.409	-92
193.478	-131
193.547	-597
193.615	-632
193.684	135
193.753	-230
193.822	-518
193.891	-77
193.960	-462
194.029	145
194.098	-449
194.167	-648
194.236	388
194.305	-62
194.374	108
194.443	-37
194.512	-346
194.580	567
194.649	-909
194.718	262
194.787	166
194.856	-644
194.925	-814
194.994	-465
195.062	-430
195.131	228
195.200	120
195.269	171
195.338	-326
195.407	636
195.475	-16
195.544	-267
195.613	102
195.682	224
195.751	-31
195.819	-275
195.888	-70
195.957	1069
196.026	-286
196.094	461
196.163	-678
196.232	248
196.301	-753
196.369	-831
196.438	472
196.507	-555
196.576	-932
196.644	-154
196.713	-313
196.782	607
196.850	112
196.919	-440
196.988	-393
197.056	-171
197.125	-464
197.194	188
197.262	-728
197.331	-361
197.400	-284
197.468	-68
197.537	253
197.606	-741
197.674	-401
197.743	-80
197.812	-490
197.880	-449
197.949	-612
198.017	-382
198.086	-897
198.155	-180
198.223	-130
198.292	243
198.360	-1502
198.429	-261
198.497	-880
198.566	-507
198.635	-716
198.703	-37
198.772	-197
198.840	-553
198.909	-392
198.977	-444
199.046	-474
199.114	263
199.183	-407
199.251	87
199.320	-335
199.388	-582
199.457	-464
199.525	-336
199.594	-1128
199.662	340
199.731	-1018
199.799	256
199.867	-392
199.936	-909
200.004	-131
200.073	-1
200.141	-1371
200.210	-557
200.278	-1186
200.346	-113
200.415	367
200.483	189
200.552	189
200.620	477
200.688	-813
200.757	-329
200.825	-710
200.893	5
200.962	-773
201.030	-703
201.098	-1192
201.167	-384
201.235	-1052
201.303	178
201.372	-442
201.440	-21
201.508	-613
201.577	201
201.645	-766
201.713	-1002
201.781	-309
201.850	-540
201.918	-1122
201.986	309
202.055	-198
202.123	-442
202.191	-578
202.259	-816
202.327	-795
202.396	-100
202.464	74
202.532	-563
202.600	-117
202.669	-177
202.737	-995
202.805	-214
202.873	-1132
202.941	363
203.009	-1293
203.078	77
203.146	-649
203.214	-643
203.282	-404
203.350	518
203.418	-1224
203.487	-24
203.555	-818
203.623	-108
203.691	-365
203.759	-880
203.827	-801
203.895	-552
203.963	-350
204.031	50
204.099	-1035
204.168	-457
204.236	-414
204.304	29
204.372	-1159
204.440	150
204.508	-867
204.576	-235
204.644	-702
204.712	-310
204.780	-113
204.848	-105
204.916	3
204.984	-1008
205.052	-342
205.120	-504
205.188	-1071
205.256	-778
205.324	-731
205.392	-573
205.460	88
205.528	-709
205.596	97
205.664	265
205.732	-962
205.799	-426
205.867	-834
205.935	-890
206.003	-214
206.071	-56
206.139	-710
206.207	-401
206.275	-506
206.343	-763
206.411	-831
206.478	-13
206.546	-23
206.614	-151
206.682	-787
206.750	-226
206.818	-579
206.885	-658
206.953	-1106
207.021	722
207.089	222
207.157	-1101
207.225	-917
207.292	-107
207.360	-1323
207.428	-974
207.496	-906
207.563	-948
207.631	-720
207.699	-9
207.767	-900
207.834	-839
207.902	-968
207.970	-275
208.038	-836
208.105	-754
208.173	-930
208.241	-173
208.309	-502
208.376	-335
208.444	-492
208.512	-403
208.579	-2016
208.647	455
208.715	369
208.782	-683
208.850	-314
208.918	-557
208.985	-7
209.053	-577
209.120	-362
209.188	-633
209.256	-1034
209.323	-635
209.391	-841
209.459	709
209.526	181
209.594	-314
209.661	-405
209.729	-109
209.796	-516
209.864	-67
209.932	-1167
209.999	23
210.067	-541
210.134	-971
210.202	-264
210.269	-75
210.337	-647
210.404	-570
210.472	-188
210.539	-599
210.607	-695
210.674	-1072
210.742	-675
210.809	-1119
210.877	-406
210.944	-877
211.012	-1934
211.079	9
211.146	-1008
211.214	-294
211.281	-1320
211.349	76
211.416	266
211.484	-815
211.551	-776
211.618	-394
211.686	-1185
211.753	-772
211.821	-612
211.888	-1492
211.955	-1691
212.023	-690
212.090	-703
212.157	-300
212.225	-502
212.292	-298
212.359	-562
212.427	-538
212.494	-483
212.561	-249
212.629	-703
212.696	-84
212.763	421
212.831	-1440
212.898	-178
212.965	-1027
213.032	-898
213.100	-966
213.167	-4
213.234	-336
213.301	-1002
213.369	-561
213.436	-603
213.503	-1028
213.570	-1301
213.638	-729
213.705	-1550
213.772	-1293
213.839	-992
213.906	-672
213.973	-125
214.041	-741
214.108	-57
214.175	-225
214.242	-650
214.309	-361
214.376	-374
214.444	-1352
214.511	-324
214.578	-534
214.645	-713
214.712	-1082
214.779	-752
214.846	-945
214.913	-499
214.980	-24
215.048	-634
215.115	270
215.182	-1016
215.249	-278
215.316	-685
215.383	-262
215.450	-808
215.517	-953
215.584	49
215.651	-520
215.718	-783
215.785	-234
215.852	-1069
215.919	-438
215.986	-759
216.053	-644
216.120	-989
216.187	-494
216.254	-1132
216.321	-486
216.388	-685
216.455	-1080
216.522	-671
216.589	-921
216.656	-1254
216.722	-704
216.789	-419
216.856	-618
216.923	-1392
216.990	-432
217.057	-619
217.124	-724
217.191	-754
217.258	-963
217.324	-1533
217.391	-1113
217.458	-1033
217.525	-1081
217.592	-1175
217.659	-1291
217.725	-310
217.792	-541
217.859	-403
217.926	-674
217.993	-1253
218.059	-70
218.126	-616
218.193	-1735
218.260	-602
218.327	-38
218.393	-58
218.460	-623
218.527	-1219
218.594	-752
218.660	-1414
218.727	162
218.794	-1773
218.860	-281
218.927	-1264
218.994	-794
219.061	-1320
219.127	-518
219.194	-1173
219.261	-52
219.327	-736
219.394	-276
219.461	-1364
219.527	81
219.594	-380
219.661	-486
219.727	-1038
219.794	-592
219.860	-859
219.927	-571
219.994	-619
220.060	-114
220.127	-17
220.193	357
220.260	-1119
220.326	-647
220.393	-1254
220.460	-273
220.526	-1853
220.593	-1510
220.659	233
220.726	-1396
220.792	-904
220.859	-1073
220.925	-820
220.992	-1051
221.058	-808
221.125	-1006
221.191	-1317
221.258	-1270
221.324	195
221.391	-585
221.457	-1163
221.524	-733
221.590	-912
221.657	-364
221.723	-1023
221.789	-686
221.856	-429
221.922	-1694
221.989	-474
222.055	-704
222.121	-1972
222.188	941
222.254	-896
222.321	-694
222.387	-782
222.453	-333
222.520	-1021
222.586	-1154
222.652	-832
222.719	-1422
222.785	-317
222.851	-746
222.918	-1097
222.984	178
223.050	-1269
223.116	-1517
223.183	-172
223.249	-1498
223.315	-1189
223.382	-353
223.448	-792
223.514	-685
223.580	-578
223.647	-357
223.713	-1328
223.779	-1012
223.845	-1513
223.911	-265
223.978	-1403
224.044	-250
224.110	-1471
224.176	-685
224.242	-39
224.309	-1558
224.375	-737
224.441	-1015
224.507	-509
224.573	-1532
224.639	-292
224.705	-279
224.772	-982
224.838	-769
224.904	-156
224.970	-524
225.036	-5
225.102	-827
225.168	-771
225.234	-514
225.300	-844
225.366	-1065
225.432	-763
225.499	-501
225.565	-966
225.631	-772
225.697	-947
225.763	-141
225.829	-876
225.895	-96
225.961	-657
226.027	-565
226.093	-1065
226.159	-258
226.225	-998
226.291	-659
226.357	-619
226.423	-862
226.489	-924
226.554	-539
226.620	-1075
226.686	-921
226.752	-919
226.818	-810
226.884	-1015
226.950	-461
227.016	-883
227.082	-885
227.148	-854
227.214	-293
227.279	-1124
227.345	-1147
227.411	-818
227.477	39
227.543	247
227.609	201
227.674	-247
227.740	-828
227.806	-1275
227.872	-708
227.938	-369
228.003	-172
228.069	-1347
228.135	-857
228.201	-630
228.267	-125
228.332	-694
228.398	-1624
228.464	-473
228.530	-316
228.595	-781
228.661	-1170
228.727	-1639
228.792	425
228.858	-1053
228.924	-1967
228.990	596
229.055	-2083
229.121	-1132
229.187	-629
229.252	-1472
229.318	-359
229.384	-573
229.449	-1209
229.515	-2593
229.581	-2006
229.646	220
229.712	-460
229.777	-761
229.843	-1854
229.909	-576
229.974	-194
230.040	-1399
230.105	-525
230.171	-1623
230.236	-624
230.302	-703
230.368	-1650
230.433	-1931
230.499	-128
230.564	-637
230.630	-1043
230.695	-777
230.761	-709
230.826	-2260
230.892	9
230.957	-1552
231.023	-547
231.088	-1465
231.154	-391
231.219	-353
231.284	-1902
231.350	-834
231.415	-1385
231.481	-767
231.546	-823
231.612	-849
231.677	-433
231.742	-1930
231.808	171
231.873	-953
231.939	-2169
232.004	193
232.069	80
232.135	-923
232.200	-1094
232.265	-1059
232.331	-1350
232.396	-1453
232.461	-891
232.527	-1202
232.592	-657
232.657	-666
232.723	-757
232.788	-607
232.853	-238
232.918	-477
232.984	-493
233.049	-1686
233.114	-1168
233.179	-1313
233.245	-322
233.310	-1200
233.375	-1605
233.440	-506
233.506	-963
233.571	-1268
233.636	-985
233.701	-815
233.766	-359
233.832	-869
233.897	-926
233.962	-2262
234.027	-258
234.092	-1281
234.157	-1217
234.222	-954
234.288	-358
234.353	-1434
234.418	-744
234.483	-142
234.548	-1139
234.613	-1164
234.678	-290
234.743	-1700
234.808	-190
234.873	-1608
234.938	511
235.004	-1691
235.069	-421
235.134	-1364
235.199	-973
235.264	-1580
235.329	-1701
235.394	-629
235.459	-237
235.524	-1663
235.589	-139
235.654	-1478
235.719	-2195
235.784	-797
235.849	-1034
235.913	-540
235.978	-1045
236.043	-814
236.108	-962
236.173	-1799
236.238	-390
236.303	-1498
236.368	-1247
236.433	-365
236.498	-989
236.563	-1111
236.627	-1194
236.692	-1591
236.757	-1089
236.822	-1288
236.887	-1197
236.952	-220
237.017	-1792
237.081	-247
237.146	-1376
237.211	-526
237.276	-1206
237.341	-1203
237.405	-1160
237.470	-2244
237.535	-1210
237.600	-904
237.664	-128
237.729	-1708
237.794	-1392
237.859	-833
237.923	-889
237.988	-1488
238.053	31
238.118	-1442
238.182	-904
238.247	638
238.312	-1666
238.376	-987
238.441	-2584
238.506	-168
238.570	-1786
238.635	418
238.700	-563
238.764	-929
238.829	-1434
238.893	-2048
238.958	-275
239.023	-1498
239.087	-404
239.152	-570
239.216	-1302
239.281	-353
239.346	-327
239.410	-870
239.475	-1162
239.539	-683
239.604	-2090
239.668	-55
239.733	-734
239.797	-277
239.862	650
239.926	1018
239.991	363
240.055	-524
240.120	-623
240.184	-661
240.249	-1580
240.313	-787
240.378	-844
240.442	-1312
240.507	-1048
240.571	-1337
240.635	-1316
240.700	-1405
240.764	-977
240.829	-712
240.893	-1713
240.957	-460
241.022	-808
241.086	-181
241.151	-1311
241.215	-1641
241.279	221
241.344	-1530
241.408	50
241.472	-1622
241.537	307
241.601	-794
241.665	-2174
241.730	-1602
241.794	1119
241.858	-588
241.922	-531
241.987	-1113
242.051	-1506
242.115	-2503
242.179	-736
242.244	-1794
242.308	-116
242.372	-1317
242.436	-1592
242.501	-986
242.565	-1075
242.629	-1765
242.693	-552
242.757	-1737
242.822	-1367
242.886	-561
242.950	-25
243.014	-1782
243.078	-318
243.142	-1089
243.206	-291
243.271	-1110
243.335	-1329
243.399	-522
243.463	-1118
243.527	-1778
243.591	-1701
243.655	-776
243.719	-1319
243.783	-375
243.847	-478
243.911	-732
243.975	-572
244.040	-2247
244.104	-10
244.168	-1036
244.232	-1172
244.296	-1647
244.360	-1056
244.424	-1891
244.488	-871
244.552	-1094
244.615	-2017
244.679	-822
244.743	-538
244.807	-2449
244.871	-192
244.935	-623
244.999	-1613
245.063	-1780
245.127	61
245.191	-1298
245.255	-1540
245.319	-1251
245.383	-2395
245.446	283
245.510	-1182
245.574	-740
245.638	-417
245.702	-1993
245.766	-764
245.829	-853
245.893	-984
245.957	-1832
246.021	14
246.085	-1369
246.149	-1038
246.212	-410
246.276	-2182
246.340	-1367
246.404	-1014
246.467	-264
246.531	-3324
246.595	-161
246.659	422
246.722	-2552
246.786	-535
246.850	-1067
246.913	-681
246.977	-2121
247.041	-1192
247.104	-777
247.168	-674
247.232	-984
247.295	-1271
247.359	-1280
247.423	-1003
247.486	-1425
247.550	-1354
247.614	-1708
247.677	-955
247.741	-1081
247.804	-522
247.868	-108
247.932	-1409
247.995	143
248.059	-840
248.122	-2084
248.186	-608
248.249	-1189
248.313	67
248.376	506
248.440	-1135
248.503	-2330
248.567	-27
248.630	-1854
248.694	-588
248.757	-402
248.821	-481
248.884	46
248.948	-1484
249.011	-747
249.075	-298
249.138	-375
249.202	-328
249.265	-1631
249.328	-312
249.392	-1691
249.455	-746
249.519	-893
249.582	-69
249.645	-1247
249.709	-691
249.772	-1234
249.835	-334
249.899	-1885
249.962	-605
250.025	-1435
250.089	-666
250.152	-823
250.215	-963
250.279	-676
250.342	16
250.405	-1212
250.468	-1972
250.532	-1353
250.595	-1031
250.658	-2135
250.721	-367
250.785	-1403
250.848	-447
250.911	-1421
250.974	-1220
251.038	-1927
251.101	-380
251.164	-1817
251.227	-29
251.290	-1004
251.354	-821
251.417	-997
251.480	-163
251.543	-486
251.606	-1476
251.669	-490
251.732	-1001
251.795	-1605
251.859	-420
251.922	-1535
251.985	-553
252.048	-911
252.111	-178
252.174	-1918
252.237	-316
252.300	248
252.363	-1219
252.426	-456
252.489	-1809
252.552	-987
252.615	-1082
252.678	-646
252.741	320
252.804	-1712
252.867	-911
252.930	-1035
252.993	-693
253.056	-79
253.119	-1485
253.182	-1571
253.245	-1018
253.308	-248
253.371	-1158
253.434	-1445
253.497	-451
253.559	695
253.622	-1197
253.685	-1298
253.748	-975
253.811	-1576
253.874	-399
253.937	-1392
254.000	-618
254.062	-1643
254.125	-1293
254.188	-6
254.251	-1065
254.314	-1231
254.376	-1381
254.439	-1136
254.502	-674
254.565	-1546
254.628	-351
254.690	-909
254.753	-971
254.816	-1455
254.878	-1221
254.941	-443
255.004	-84
255.067	-1139
255.129	-1226
255.192	-1033
255.255	-1549
255.317	-1425
255.380	-354
255.443	-1306
255.505	-1383
255.568	-2324
255.631	-1036
255.693	-1464
255.756	-2287
255.819	-449
255.881	-811
255.944	-625
256.006	-1313
256.069	-1699
256.132	-953
256.194	-2220
256.257	-268
256.319	-1528
256.382	-1541
256.444	-332
256.507	-65
256.569	-1065
256.632	-1178
256.694	-1095
256.757	-405
256.819	-543
256.882	-2206
256.944	-542
257.007	-120
257.069	-1661
257.132	-745
257.194	-339
257.257	-1295
257.319	-2050
257.381	-1764
257.444	-156
257.506	-974
257.569	-1199
257.631	-325
257.693	-1093
257.756	-1283
257.818	-1314
257.880	-781
257.943	-354
258.005	-1516
258.067	-1102
258.130	-664
258.192	-1305
258.254	-1067
258.317	-1377
258.379	-337
258.441	-1713
258.503	143
258.566	-1335
258.628	-358
258.690	-2403
258.753	-91
258.815	-1361
258.877	-1596
258.939	-1155
259.001	-319
259.064	-1237
259.126	-1186
259.188	-1405
259.250	-370
259.312	-1251
259.375	-890
259.437	-391
259.499	-1362
259.561	-869
259.623	-1203
259.685	-1713
259.747	-780
259.809	-616
259.872	-814
259.934	-600
259.996	-777
260.058	-602
260.120	-754
260.182	-949
260.244	-557
260.306	-1272
260.368	-878
260.430	-2085
260.492	-1395
260.554	-136
260.616	-1499
260.678	-1331
260.740	-855
260.802	-2179
260.864	-307
260.926	-2447
260.988	-180
261.050	-1107
261.112	-1455
261.174	-411
261.236	-1073
261.298	-1628
261.359	-597
261.421	-632
261.483	-1802
261.545	-1374
261.607	-2551
261.669	-796
261.731	-1329
261.793	-856
261.854	-2009
261.916	-460
261.978	-1760
262.040	-470
262.102	-1343
262.164	-1448
262.225	-488
262.287	-728
262.349	-997
262.411	-1500
262.472	-196
262.534	-2191
262.596	-1532
262.658	-1097
262.719	-1642
262.781	29
262.843	-1114
262.904	-517
262.966	-431
263.028	-1278
263.090	-815
263.151	-1255
263.213	-493
263.275	-1367
263.336	-970
263.398	-375
263.459	-1637
263.521	-1206
263.583	-1068
263.644	-1189
263.706	-1421
263.767	-1702
263.829	-100
263.891	-1046
263.952	-1100
264.014	-1677
264.075	-1535
264.137	-1495
264.198	-941
264.260	-2693
264.321	-748
264.383	-828
264.444	-424
264.506	-392
264.567	-967
264.629	-704
264.690	-2891
264.752	-870
264.813	-1348
264.875	-1300
264.936	-505
264.998	-760
265.059	-1263
265.120	-2010
265.182	-415
265.243	-1711
265.305	-1596
265.366	-1489
265.427	-1169
265.489	-989
265.550	-2110
265.611	-1804
265.673	-1567
265.734	-869
265.795	-629
265.857	-1702
265.918	-2399
265.979	-452
266.040	-1037
266.102	-1229
266.163	-1058
266.224	-1625
266.286	-1151
266.347	-1900
266.408	-1117
266.469	-333
266.530	-851
266.592	-1012
266.653	-1046
266.714	-742
266.775	-1174
266.836	-827
266.898	-1781
266.959	-1473
267.020	-1056
267.081	-341
267.142	-1069
267.203	-2007
267.264	-1100
267.326	-225
267.387	-1069
267.448	-1700
267.509	48
267.570	-702
267.631	-1026
267.692	-1522
267.753	-1282
267.814	-1492
267.875	-1187
267.936	-1409
267.997	-1379
268.058	-1653
268.119	-1054
268.180	-1121
268.241	-1719
268.302	-1461
268.363	-1203
268.424	-1220
268.485	-360
268.546	-1605
268.607	-649
268.668	-1424
268.729	-1596
268.790	-786
268.851	-1167
268.912	-1183
268.972	-1334
269.033	-1958
269.094	-992
269.155	-854
269.216	-1203
269.277	-879
269.338	-1377
269.398	-1064
269.459	-1231
269.520	-1254
269.581	-1138
269.642	-1781
269.702	-1296
269.763	-1419
269.824	-909
269.885	-1830
269.945	-769
270.006	-378
270.067	-1081
270.128	-1245
270.188	-1433
270.249	-1661
270.310	-926
270.370	-1531
270.431	-871
270.492	-1304
270.553	-1395
270.613	-1147
270.674	-465
270.734	-1189
270.795	-732
270.856	-403
270.916	-1438
270.977	-622
271.038	-566
271.098	-1287
271.159	-620
271.219	-1308
271.280	-1390
271.340	-1189
271.401	-1305
271.462	-1234
271.522	-745
271.583	-1268
271.643	-1291
271.704	-1702
271.764	-1642
271.825	-1666
271.885	464
271.946	-156
272.006	-845
272.066	-986
272.127	57
272.187	-822
272.248	-701
272.308	-2026
272.369	283
272.429	-1285
272.489	-1608
272.550	-1356
272.610	41
272.671	-1811
272.731	-821
272.791	-1530
272.852	-1010
272.912	-1351
272.972	-1373
273.033	-1437
273.093	-1120
273.153	-459
273.214	-1226
273.274	-1276
273.334	-817
273.394	-612
273.455	-863
273.515	-645
273.575	-735
273.635	-1641
273.696	-461
273.756	-1370
273.816	-894
273.876	-795
273.936	-1034
273.997	-1165
274.057	-1411
274.117	-1511
274.177	-859
274.237	-1106
274.297	251
274.358	-493
274.418	13
274.478	-1352
274.538	-533
274.598	-1856
274.658	-818
274.718	-640
274.778	-1097
274.838	-1400
274.898	-1461
274.958	-1230
275.018	-116
275.078	-197
275.138	-651
275.198	-1584
275.258	-1018
275.318	-819
275.378	-908
275.438	-1333
275.498	-1050
275.558	-1739
275.618	-414
275.678	-944
275.738	-1103
275.798	-1077
275.858	-1456
275.918	-1925
275.978	-1334
276.038	-1411
276.098	-1425
276.157	-2126
276.217	-187
276.277	-1071
276.337	-664
276.397	-1610
276.457	-1077
276.517	-882
276.576	-907
276.636	-1194
276.696	-1560
276.756	-1115
276.815	-683
276.875	-2079
276.935	-1459
276.995	-1650
277.055	-1308
277.114	-1717
277.174	-1118
277.234	-672
277.293	-1471
277.353	-1285
277.413	-636
277.472	-1628
277.532	-788
277.592	-452
277.651	274
277.711	1651
277.771	-918
277.830	1716
277.890	2061
277.950	179
278.009	5414
278.069	898
278.128	1485
278.188	2147
278.248	498
278.307	2015
278.367	1111
278.426	-892
278.486	-890
278.545	-1912
278.605	-1018
278.664	-817
278.724	-1092
278.783	-635
278.843	-323
278.902	-454
278.962	-176
279.021	-1421
279.081	-292
279.140	-276
279.199	-1536
279.259	-725
279.318	50
279.378	223
279.437	604
279.496	4481
279.556	18388
279.615	14192
279.675	3304
279.734	1100
279.793	1375
279.853	3123
279.912	1064
279.971	225
280.031	494
280.090	779
280.149	2368
280.208	1586
280.268	11493
280.327	12794
280.386	1892
280.445	-70
280.505	109
280.564	-745
280.623	-1222
280.682	-345
280.742	-77
280.801	-765
280.860	-449
280.919	-770
280.978	-407
281.037	-830
281.097	-1379
281.156	-727
281.215	-810
281.274	-1200
281.333	-1465
281.392	-1207
281.451	-1003
281.510	-1412
281.569	-1310
281.628	-1562
281.688	-914
281.747	-657
281.806	-821
281.865	-933
281.924	-812
281.983	-1350
282.042	-620
282.101	-1043
282.160	-1332
282.219	-1435
282.278	-882
282.337	-1747
282.396	-557
282.454	-322
282.513	-590
282.572	-739
282.631	-1334
282.690	-1291
282.749	-1847
282.808	-903
282.867	-743
282.926	-985
282.985	-308
283.043	-1309
283.102	-1179
283.161	-735
283.220	-527
283.279	-475
283.338	-767
283.396	-913
283.455	-726
283.514	-1097
283.573	-809
283.631	-1591
283.690	-600
283.749	-822
283.808	-1113
283.866	-620
283.925	-520
283.984	-857
284.043	-950
284.101	-935
284.160	-732
284.219	382
284.277	-525
284.336	-1398
284.395	254
284.453	-335
284.512	-206
284.570	-274
284.629	30
284.688	108
284.746	1227
284.805	1474
284.863	2340
284.922	3231
284.981	5183
285.039	6547
285.098	9920
285.156	15652
285.215	18144
285.273	15422
285.332	16736
285.390	11875
285.449	8909
285.507	5878
285.566	4332
285.624	3024
285.683	2176
285.741	762
285.799	202
285.858	430
285.916	67
285.975	-840
286.033	-781
286.091	-248
286.150	-80
286.208	-108
286.267	13
286.325	-207
286.383	-427
286.442	-1057
286.500	-1301
286.558	-996
286.616	-324
286.675	-1607
286.733	-1075
286.791	-790
286.850	-677
286.908	-1505
286.966	-1244
287.024	-1374
287.083	-1300
287.141	-832
287.199	-109
287.257	-1868
287.315	-903
287.374	-1661
287.432	-700
287.490	-809
287.548	-539
287.606	-1457
287.664	-1379
287.723	-1206
287.781	-434
287.839	-1369
287.897	-1007
287.955	-976
288.013	-1155
288.071	-686
288.129	-1116
288.187	-1780
288.245	-910
288.303	-951
288.361	-1765
288.419	-1564
288.477	-1139
288.535	-1352
288.593	-1139
288.651	-1858
288.709	-1402
288.767	-1576
288.825	-1146
288.883	-1981
288.941	-662
288.999	-2623
289.057	-1537
289.115	-1354
289.173	-1403
289.231	-1254
289.289	-1196
289.346	-1697
289.404	-1012
289.462	-1795
289.520	-406
289.578	-1241
289.636	-1647
289.694	-1782
289.751	-592
289.809	-1031
289.867	-1781
289.925	-555
289.983	-1794
290.040	-1269
290.098	-1262
290.156	-1725
290.214	-826
290.271	-1783
290.329	-758
290.387	-1384
290.444	-1306
290.502	-1731
290.560	-956
290.617	-1704
290.675	-1172
290.733	-849
290.790	-603
290.848	-1147
290.906	-1604
290.963	-2104
291.021	-1277
291.078	-1514
291.136	-1441
291.194	-1521
291.251	-843
291.309	-1312
291.366	-801
291.424	-1249
291.481	-1483
291.539	-1123
291.596	-523
291.654	-520
291.711	-949
291.769	-1237
291.826	-1456
291.884	-1198
291.941	-949
291.999	-1663
292.056	-917
292.114	-1427
292.171	-1339
292.228	-1047
292.286	-1354
292.343	-1708
292.401	-993
292.458	-322
292.515	-1351
292.573	-629
292.630	-1800
292.687	-1350
292.745	-1353
292.802	-1722
292.859	-208
292.917	-371
292.974	-954
293.031	-1544
293.089	-656
293.146	-1343
293.203	-1408
293.260	-1361
293.318	-1017
293.375	-1176
293.432	-998
293.489	-774
293.546	-835
293.604	-1497
293.661	-218
293.718	1154
293.775	-221
293.832	-1108
293.889	-332
293.947	-911
294.004	-896
294.061	-1056
294.118	-980
294.175	-1364
294.232	-266
294.289	-904
294.346	-1191
294.403	-967
294.460	-552
294.517	-1551
294.574	-948
294.631	-872
294.688	-1017
294.745	-1705
294.802	519
294.859	-455
294.916	-532
294.973	-1477
295.030	-1494
295.087	-1726
295.144	-1476
295.201	-1528
295.258	-572
295.315	-1586
295.372	-835
295.429	-770
295.486	-638
295.542	-1176
295.599	-1219
295.656	-1329
295.713	-846
295.770	-836
295.827	-853
295.883	-786
295.940	-2002
295.997	-1607
296.054	-1441
296.111	-1418
296.167	-819
296.224	-1632
296.281	-1559
296.338	-1716
296.394	-1239
296.451	-1022
296.508	-1190
296.564	-1368
296.621	-251
296.678	-82
296.734	-214
296.791	-1125
296.848	-755
296.904	-893
296.961	-404
297.018	-369
297.074	-614
297.131	-1428
297.187	-740
297.244	-1712
297.301	-363
297.357	1898
297.414	-632
297.470	-1479
297.527	-1713
297.583	-1755
297.640	-1153
297.696	-1111
297.753	-1356
297.809	-1437
297.866	-1733
297.922	-1364
297.979	-1018
298.035	-2480
298.092	-1637
298.148	-1119
298.204	-429
298.261	-1136
298.317	-1227
298.374	-210
298.430	-1119
298.486	-1620
298.543	-745
298.599	-1826
298.656	-1576
298.712	-1556
298.768	-1067
298.824	-2397
298.881	-1150
298.937	-678
298.993	-1587
299.050	-1658
299.106	-812
299.162	-1444
299.218	-879
299.275	-1583
299.331	-1299
299.387	-689
299.443	761
299.500	1725
299.556	1298
299.612	-757
299.668	-359
299.724	309
299.780	2827
299.837	75
299.893	-998
299.949	605
300.005	2537
300.061	907
300.117	3088
300.173	1209
300.229	-588
300.285	-820
300.341	-410
300.397	-919
300.453	-153
300.510	-1165
300.566	-1215
300.622	-406
300.678	3198
300.734	4738
300.790	2809
300.845	674
300.901	1504
300.957	2809
301.013	1040
301.069	-1350
301.125	-59
301.181	-1202
301.237	-1306
301.293	-1265
301.349	-1253
301.405	-1558
301.461	-329
301.516	-804
301.572	-963
301.628	-1323
301.684	-923
301.740	-979
301.796	-532
301.851	-987
301.907	-415
301.963	-719
302.019	-129
302.074	2524
302.130	3438
302.186	492
302.242	178
302.297	-1368
302.353	-788
302.409	-1098
302.464	-1362
302.520	-1390
302.576	-249
302.631	292
302.687	-692
302.743	-1259
302.798	-1601
302.854	-2296
302.910	-717
302.965	-2026
303.021	-1123
303.076	-626
303.132	-1294
303.187	-1213
303.243	-1248
303.299	-1003
303.354	-1557
303.410	-1259
303.465	-1504
303.521	-1496
303.576	-1524
303.632	-1256
303.687	-1370
303.743	-212
303.798	629
303.853	-1316
303.909	-1106
303.964	-1556
304.020	-1309
304.075	-776
304.130	-1538
304.186	-485
304.241	5
304.297	-1139
304.352	-536
304.358	-598
304.407	-1105
304.449	-643
304.463	-485
304.518	-1579
304.539	-1405
304.573	-1134
304.629	-1472
304.630	-1448
304.684	-436
304.720	-769
304.739	-949
304.794	144
304.811	-66
304.850	-554
304.902	-699
304.905	-710
304.960	-848
304.992	-1214
305.015	-1457
305.071	-1079
305.083	-1035
305.126	-940
305.173	-1249
305.181	-1287
305.236	-1634
305.264	-1312
305.292	-1044
305.347	-1476
305.354	-1413
305.402	-918
305.445	-1111
305.457	-1194
305.512	-1381
305.535	-1460
305.567	-1497
305.622	-797
305.626	-818
305.678	-1139
305.716	-705
305.733	-549
305.788	142
305.807	-17
305.843	-235
305.897	21
305.898	24
305.953	640
305.988	329
306.008	133
306.063	-477
306.078	-626
306.118	-930
306.168	-1313
306.173	-1338
306.228	-935
306.259	-905
306.283	-947
306.338	-1788
306.349	-1658
306.393	-1208
306.440	-1274
306.448	-1246
306.503	-1372
306.530	-853
306.558	-373
306.613	-715
306.620	-740
306.668	-809
306.711	-376
306.723	-280
306.778	45
306.801	-132
306.833	-398
306.888	-674
306.892	-672
306.943	-466
306.982	-307
306.997	-244
307.052	-261
307.072	-324
307.107	-567
307.162	-747
307.163	-751
307.217	-718
307.253	-824
307.272	-854
307.327	-749
307.343	-762
307.381	-662
307.434	-363
307.436	-358
307.491	-474
307.524	-469
307.546	-356
307.600	-70
307.614	8
307.655	-227
307.704	-679
307.710	-647
307.765	-651
307.795	-422
307.819	-465
307.874	-443
307.885	-576
307.929	-586
307.975	69
307.984	86
308.038	-266
308.065	-198
308.093	-61
308.148	-337
308.156	-333
308.202	-108
308.246	77
308.257	114
308.312	-35
308.336	-65
308.366	-237
308.421	-247
308.426	-280
308.475	-212
308.517	-192
308.530	-235
308.585	-433
308.607	-450
308.639	-337
308.694	31
308.697	31
308.748	-21
308.787	-86
308.803	-176
308.857	-405
308.877	-550
308.912	-455
308.967	416
308.967	419
309.021	748
309.058	1088
309.076	1294
309.130	2354
309.148	2622
309.185	3278
309.238	3528
309.239	3549
309.293	5370
309.328	6450
309.348	5937
309.402	3300
309.418	2473
309.457	2123
309.508	2271
309.511	2305
309.566	2701
309.598	3511
309.620	4660
309.674	7962
309.688	8852
309.729	8447
309.778	6579
309.783	6415
309.837	3910
309.868	2638
309.892	2073
309.946	1120
309.959	1029
310.001	1300
310.049	1607
310.055	1548
310.109	746
310.139	474
310.163	419
310.218	-231
310.229	-264
310.272	40
310.319	219
310.326	184
310.381	-5
310.409	-159
310.435	-45
310.489	298
310.499	353
310.543	155
310.589	-61
310.598	-38
310.652	138
310.679	177
310.706	140
310.760	53
310.769	12
310.814	61
310.859	250
310.868	238
310.923	183
310.948	55
310.977	51
311.031	262
311.038	274
311.085	-135
311.128	-579
311.139	-416
311.193	438
311.218	843
311.247	687
311.301	283
311.308	253
311.356	334
311.398	270
311.410	352
311.464	699
311.488	844
311.518	461
311.572	-95
311.578	-177
311.626	-129
311.668	-9
311.680	81
311.734	410
311.758	536
311.788	378
311.842	190
311.847	161
311.896	323
311.937	463
311.950	512
312.004	722
312.027	809
312.058	486
312.112	-101
312.117	-157
312.165	3
312.207	146
312.297	-73
312.386	227
312.476	-75
312.566	616
312.656	-425
312.745	463
312.835	998
312.925	-98
313.015	58
313.104	98
313.194	-131
313.284	708
313.374	227
313.463	310
313.553	500
313.643	-466
313.732	308
313.822	239
313.912	1170
314.001	754
314.091	1000
314.180	-34
314.270	590
314.360	696
314.449	322
314.539	313
314.628	477
314.718	276
314.808	435
314.897	725
314.987	652
315.076	786
315.166	894
315.255	1110
315.345	754
315.434	-37
315.524	747
315.613	585
315.703	907
315.792	1955
315.881	6937
315.971	1924
316.060	1808
316.150	338
316.239	415
316.328	1052
316.418	405
316.507	1197
316.597	1416
316.686	620
316.775	55
316.865	556
316.954	-17
317.043	889
317.133	880
317.222	522
317.311	571
317.400	-663
317.490	1594
317.579	17
317.668	567
317.757	1256
317.847	3879
317.936	11055
318.025	3334
318.114	2417
318.203	964
318.293	730
318.382	704
318.471	1262
318.560	1225
318.649	429
318.738	431
318.828	904
318.917	424
319.006	266
319.095	393
319.184	61
319.273	881
319.362	45
319.451	-505
319.540	938
319.629	495
319.718	514
319.807	-421
319.896	34
319.985	781
320.074	612
320.163	508
320.252	610
320.341	218
320.430	520
320.519	242
320.608	-859
320.697	488
320.786	621
320.875	1326
320.964	1001
321.053	1402
321.142	1201
321.230	1910
321.319	1276
321.408	2827
321.497	2119
321.586	953
321.675	151
321.764	1016
321.852	987
321.941	776
322.030	803
322.119	343
322.207	1369
322.296	2007
322.385	1494
322.474	2407
322.562	3307
322.651	1675
322.740	1611
322.829	1814
322.917	327
323.006	90
323.095	889
323.183	-164
323.272	26
323.361	827
323.449	1025
323.538	62
323.626	766
323.715	900
323.804	134
323.892	238
323.981	151
324.069	611
324.158	-265
324.246	243
324.335	335
324.424	1011
324.512	-66
324.601	92
324.689	-104
324.778	-28
324.866	-6
324.954	696
325.043	-545
325.131	-1072
325.220	424
325.308	115
325.397	-339
325.485	273
325.574	405
325.662	412
325.750	210
325.839	513
325.927	-3
326.015	594
326.104	-303
326.192	463
326.280	-28
326.369	1083
326.457	113
326.545	300
326.634	271
326.722	365
326.810	-556
326.898	659
326.987	35
327.075	-211
327.163	1198
327.251	-305
327.340	569
327.428	-42
327.516	606
327.604	238
327.692	-617
327.781	17
327.869	-715
327.957	-563
328.045	-636
328.133	81
328.221	-522
328.309	-143
328.397	352
328.485	-95
328.574	832
328.662	1071
328.750	-478
328.838	-307
328.926	4
329.014	194
329.102	-133
329.190	-257
329.278	-418
329.366	-65
329.454	-853
329.542	20
329.630	-385
329.718	656
329.806	103
329.893	-613
329.981	-427
330.069	331
330.157	9
330.245	412
330.333	313
330.421	-202
330.509	745
330.597	236
330.684	11
330.772	560
330.860	-137
330.948	-233
331.036	-366
331.123	-456
331.211	-672
331.299	-387
331.387	-578
331.475	323
331.562	680
331.650	108
331.738	-637
331.825	-215
331.913	-493
332.001	-93
332.089	-760
332.176	88
332.264	-388
332.352	-832
332.439	-31
332.527	-214
332.614	-177
332.702	-522
332.790	-847
332.877	-455
332.965	194
333.052	278
333.140	491
333.228	2040
333.315	78
333.403	-508
333.490	599
333.578	-363
333.665	3470
333.753	1492
333.840	-251
333.928	-53
334.015	127
334.103	572
334.190	401
334.278	1187
334.365	2903
334.452	2727
334.540	601
334.627	1154
334.715	801
334.802	3051
334.889	4048
334.977	9070
335.064	6036
335.151	1837
335.239	904
335.326	370
335.413	1237
335.501	898
335.588	-178
335.675	946
335.762	978
335.850	1750
335.937	2929
336.024	4440
336.111	10460
336.199	12213
336.286	4259
336.373	1597
336.460	192
336.547	740
336.635	260
336.722	345
336.809	-426
336.896	-296
336.983	-399
337.070	18
337.157	396
337.245	447
337.332	60
337.419	231
337.506	244
337.593	206
337.680	264
337.767	753
337.854	-365
337.941	217
338.028	-88
338.115	101
338.202	553
338.289	-292
338.376	-217
338.463	-312
338.550	-139
338.637	86
338.724	200
338.811	-197
338.898	-120
338.984	19
339.071	-704
339.158	519
339.245	-742
339.332	-606
339.419	-575
339.506	21
339.593	-1039
339.679	300
339.766	-1211
339.853	-298
339.940	-319
340.027	51
340.113	-464
340.200	-203
340.287	-482
340.374	-478
340.460	391
340.547	-940
340.634	-138
340.720	363
340.807	-366
340.894	-172
340.980	-67
341.067	-252
341.154	631
341.240	-529
341.327	-334
341.414	-510
341.500	-781
341.587	-10
341.674	-184
341.760	-128
341.847	-641
341.933	-55
342.020	-1412
342.106	333
342.193	-177
342.279	-101
342.366	390
342.452	211
342.539	-908
342.625	-725
342.712	692
342.798	169
342.885	-716
342.971	-49
343.058	-239
343.144	-839
343.230	6
343.317	28
343.403	-850
343.490	-43
343.576	-390
343.662	-66
343.749	-771
343.835	-98
343.921	-128
344.008	2315
344.094	5652
344.180	1760
344.267	-639
344.353	1111
344.439	775
344.525	-670
344.612	-3
344.698	-1218
344.784	-519
344.870	226
344.957	-1078
345.043	54
345.129	-1149
345.215	76
345.301	-631
345.387	-502
345.474	-494
345.560	-277
345.646	-520
345.732	103
345.818	-760
345.904	-301
345.990	-542
346.076	441
346.162	-786
346.249	532
346.335	-443
346.421	226
346.507	-1218
346.593	560
346.679	-1003
346.765	142
346.851	-286
346.937	-438
347.023	1445
347.108	-315
347.194	-419
347.280	148
347.366	544
347.452	2151
347.538	2710
347.624	2184
347.710	741
347.796	-644
347.882	-485
347.967	-282
348.053	-483
348.139	-593
348.225	-70
348.311	-405
348.397	-56
348.482	690
348.568	-411
348.654	15
348.740	2276
348.825	1056
348.911	1523
348.997	434
349.083	2061
349.168	-646
349.254	-383
349.340	-313
349.425	-246
349.511	-575
349.597	-624
349.682	-239
349.768	811
349.854	22
349.939	-275
350.025	-547
350.110	-932
350.196	-243
350.282	-857
350.367	247
350.453	-570
350.538	-912
350.624	-1184
350.709	-520
350.795	-1342
350.880	-781
350.966	411
351.051	-454
351.137	-613
351.222	-277
351.308	-332
351.393	23
351.479	-1093
351.564	-704
351.649	-388
351.735	133
351.820	-338
351.906	-553
351.991	-282
352.076	-53
352.162	286
352.247	-640
352.332	-1021
352.418	-456
352.503	-1611
352.588	1295
352.673	-658
352.759	-210
352.844	-1019
352.929	-309
353.014	-1524
353.100	-267
353.185	754
353.270	-125
353.355	82
353.441	-447
353.526	-831
353.611	-817
353.696	-194
353.781	208
353.866	-679
353.952	438
354.037	-609
354.122	539
354.207	-128
354.292	471
354.377	-891
354.462	107
354.547	-746
354.632	-566
354.717	464
354.802	714
354.887	-2
354.972	-507
355.057	-501
355.142	50
355.227	-9
355.312	64
355.397	-726
355.482	-452
355.567	-565
355.652	-102
355.737	52
355.822	967
355.907	17
355.991	87
356.076	-1206
356.161	-33
356.246	-164
356.331	44
356.416	-1309
356.501	2782
356.585	1837
356.670	-1065
356.755	1350
356.840	110
356.924	2425
357.009	6107
357.094	2658
357.179	-32
357.263	-514
357.348	320
357.433	-293
357.517	113
357.602	-250
357.687	-403
357.771	205
357.856	-368
357.941	-691
358.025	913
358.110	6993
358.195	3387
358.279	-148
358.364	-247
358.448	351
358.533	785
358.617	596
358.702	1364
358.787	-280
358.871	-206
358.956	-708
359.040	-334
359.125	-539
359.209	-63
359.294	-685
359.378	-286
359.462	-364
359.547	285
359.631	-582
359.716	-943
359.800	-346
359.885	813
359.969	-1417
360.053	845
360.138	-939
360.222	-201
360.306	-256
360.391	-34
360.475	179
360.559	432
360.644	29
360.728	-925
360.812	1934
360.896	3893
360.981	631
361.065	-498
361.149	-339
361.233	-464
361.318	-487
361.402	-145
361.486	328
361.570	-162
361.654	-153
361.739	16
361.823	1610
361.907	4226
361.991	674
362.075	603
362.159	-129
362.243	1516
362.327	5780
362.411	14215
362.495	4441
362.580	1405
362.664	694
362.748	325
362.832	2216
362.916	3801
363.000	18696
363.084	33882
363.168	12589
363.252	2375
363.336	1246
363.420	800
363.503	436
363.587	163
363.671	-118
363.755	-580
363.839	1194
363.923	394
364.007	769
364.091	977
364.175	655
364.258	7287
364.342	17847
364.426	48402
364.510	24187
364.594	6783
364.677	2355
364.761	2232
364.845	2469
364.929	21
365.013	-538
365.096	326
365.180	-652
365.264	-386
365.347	221
365.431	-26
365.515	-598
365.598	-899
365.682	1165
365.766	-1401
365.849	121
365.933	-456
366.017	1315
366.100	-479
366.184	-458
366.267	802
366.351	-142
366.435	-1217
366.518	-321
366.602	116
366.685	-62
366.769	-479
366.852	122
366.936	-510
367.019	47
367.103	-939
367.186	131
367.270	-399
367.353	-916
367.436	875
367.520	-81
367.603	664
367.687	-796
367.770	454
367.853	986
367.937	1609
368.020	680
368.104	-598
368.187	113
368.270	524
368.353	-447
368.437	361
368.520	-353
368.603	-11
368.687	-276
368.770	527
368.853	22
368.936	252
369.020	391
369.103	-431
369.186	-835
369.269	-115
369.352	422
369.436	-441
369.519	-779
369.602	-1334
369.685	842
369.768	-1266
369.851	-358
369.934	-219
370.018	-460
370.101	-955
370.184	1119
370.267	287
370.350	-637
370.433	-269
370.516	1475
370.599	4329
370.682	-345
370.765	1299
370.848	1704
370.931	1346
371.014	1027
371.097	-1287
371.180	387
371.263	1507
371.346	-1634
371.429	1233
371.511	-715
371.594	-282
371.677	516
371.760	1498
371.843	310
371.926	3078
372.009	6340
372.091	4580
372.174	994
372.257	2099
372.340	768
372.423	587
372.505	1554
372.588	-441
372.671	1083
372.754	560
372.836	890
372.919	644
373.002	411
373.085	45
373.167	1045
373.250	1303
373.332	1610
373.415	4079
373.498	7529
373.580	3480
373.663	7178
373.746	8917
373.828	1098
373.911	915
373.993	-134
374.076	-384
374.159	-666
374.241	1562
374.324	573
374.406	1840
374.489	1820
374.571	6423
374.654	1245
374.736	1022
374.819	3281
374.901	6538
374.983	5785
375.066	971
375.148	719
375.231	315
375.313	1084
375.395	147
375.478	275
375.560	951
375.643	346
375.725	976
375.807	2975
375.890	3859
375.972	-499
376.054	333
376.136	305
376.219	33
376.301	1112
376.383	1963
376.465	1231
376.548	-631
376.630	962
376.712	2762
376.794	255
376.877	77
376.959	-219
377.041	315
377.123	-299
377.205	-583
377.287	-620
377.369	-292
377.452	-143
377.534	92
377.616	-420
377.698	-564
377.780	-1797
377.862	445
377.944	1248
378.026	-1439
378.108	267
378.190	-429
378.272	682
378.354	-32
378.436	-651
378.518	-1242
378.600	-780
378.682	246
378.764	-457
378.846	953
378.928	-252
379.010	69
379.091	-261
379.173	12
379.255	-474
379.337	-1065
379.419	-902
379.501	1902
379.583	-281
379.664	-520
379.746	-1114
379.828	785
379.910	-288
379.991	1406
380.073	-579
380.155	-376
380.237	-414
380.318	-661
380.400	-570
380.482	166
380.564	-505
380.645	418
380.727	556
380.809	467
380.890	-80
380.972	-599
381.053	941
381.135	1159
381.217	-634
381.298	1191
381.380	66
381.461	207
381.543	1430
381.624	2259
381.706	942
381.787	253
381.869	-200
381.951	1455
382.032	4526
382.113	5999
382.195	-480
382.276	1579
382.358	48
382.439	2389
382.521	3810
382.602	6445
382.684	2512
382.765	4484
382.846	10472
382.928	30800
383.009	15651
383.090	10183
383.172	37923
383.253	58686
383.334	15979
383.416	7240
383.497	4081
383.578	3460
383.659	7605
383.741	29614
383.822	79919
383.903	38978
383.984	7545
384.066	6398
384.147	2931
384.228	1698
384.309	1655
384.390	1320
384.471	907
384.553	-217
384.634	407
384.715	931
384.796	-163
384.877	64
384.958	1023
385.039	-184
385.120	78
385.201	1358
385.282	425
385.363	132
385.444	-159
385.525	1518
385.606	1619
385.687	1350
385.768	-99
385.849	-104
385.930	3357
386.011	5984
386.092	695
386.173	-36
386.254	177
386.335	1519
386.416	569
386.496	215
386.577	44
386.658	248
386.739	-344
386.820	2210
386.901	-246
386.981	512
387.062	925
387.143	531
387.224	1933
387.304	1974
387.385	2785
387.466	616
387.547	1775
387.627	448
387.708	1541
387.789	3276
387.869	2353
387.950	1472
388.031	35
388.111	-2261
388.192	1167
388.273	1745
388.353	-427
388.434	472
388.514	105
388.595	2745
388.676	2814
388.756	991
388.837	281
388.917	718
388.998	-1191
389.078	322
389.159	-10
389.239	-1242
389.320	1217
389.400	-1554
389.480	553
389.561	-176
389.641	1237
389.722	56
389.802	-317
389.883	865
389.963	2441
390.043	287
390.124	-1634
390.204	386
390.284	-52
390.365	-245
390.445	20
390.525	-565
390.605	624
390.686	-811
390.766	658
390.846	718
390.927	-1020
391.007	-1248
391.087	615
391.167	343
391.247	-1569
391.328	356
391.408	443
391.488	646
391.568	-1503
391.648	-285
391.728	209
391.808	879
391.888	27
391.969	156
392.049	225
392.129	1280
392.209	634
392.289	2682
392.369	1473
392.449	788
392.529	799
392.609	1879
392.689	1649
392.769	2219
392.849	3335
392.929	4388
393.009	5929
393.089	8024
393.169	16154
393.248	44532
393.328	127229
393.408	132039
393.488	47805
393.568	15505
393.648	7348
393.728	4324
393.807	1880
393.887	3042
393.967	1412
394.047	720
394.127	33
394.206	751
394.286	143
394.366	405
394.446	1163
394.525	-567
394.605	-524
394.685	436
394.764	1398
394.844	2236
394.924	2404
395.003	-138
395.083	-53
395.163	-342
395.242	161
395.322	313
395.402	-2175
395.481	1374
395.561	-257
395.640	4187
395.720	9322
395.799	3343
395.879	-149
395.958	472
396.038	-723
396.117	9
396.197	986
396.276	1503
396.356	605
396.435	1290
396.515	2287
396.594	5563
396.673	11922
396.753	43787
396.832	114581
396.912	81971
396.991	20993
397.070	8015
397.150	3203
397.229	4318
397.308	7646
397.388	15899
397.467	6974
397.546	983
397.625	-566
397.705	2165
397.784	-142
397.863	-97
397.942	-294
398.022	237
398.101	-1062
398.180	-373
398.259	-56
398.338	613
398.417	-684
398.497	-783
398.576	522
398.655	-1552
398.734	18
398.813	-697
398.892	-142
398.971	42
399.050	-1725
399.129	-1179
399.208	-166
399.287	220
399.366	-961
399.445	-288
399.524	53
399.603	-1874
399.682	-1549
399.761	-482
399.840	-365
399.919	-376
399.998	-899
400.077	-652
400.156	-1721
400.235	1364
400.313	-889
400.392	-1649
400.471	-491
400.550	184
400.629	-1696
400.708	3
400.786	-1512
400.865	-646
400.944	-2406
401.023	770
401.102	-764
401.180	-427
401.259	-659
401.338	-668
401.416	-1125
401.495	-1622
401.574	-341
401.652	-1150
401.731	191
401.810	-1686
401.888	-483
401.967	-1272
402.046	-1189
402.124	123
402.203	-2121
402.281	-40
402.360	-1265
402.438	-453
402.517	-2378
402.596	-807
402.674	-1005
402.753	-1065
402.831	-212
402.910	38
402.988	433
403.066	7919
403.145	4504
403.223	1710
403.302	6097
403.380	5500
403.459	4881
403.537	1016
403.615	85
403.694	-1598
403.772	183
403.850	-215
403.929	-1645
404.007	-1632
404.085	1194
404.164	-115
404.242	-1424
404.320	-881
404.398	-928
404.477	-976
404.555	2407
404.633	1326
404.711	-766
404.789	422
404.868	-1026
404.946	-866
405.024	-600
405.102	-1111
405.180	-829
405.258	-2420
405.336	-515
405.415	-820
405.493	-885
405.571	49
405.649	-1389
405.727	-1758
405.805	-167
405.883	-823
405.961	-748
406.039	-558
406.117	-2151
406.195	-501
406.273	-2686
406.351	1617
406.429	904
406.507	-1004
406.585	-1490
406.663	-735
406.740	-888
406.818	-1926
406.896	-1597
406.974	439
407.052	-2530
407.130	-12
407.208	281
407.285	375
407.363	-2271
407.441	-300
407.519	-1350
407.596	-1173
407.674	-1432
407.752	984
407.830	1266
407.907	104
407.985	-1858
408.063	-1033
408.141	-1617
408.218	-189
408.296	-1963
408.373	-1400
408.451	2
408.529	-937
408.606	-928
408.684	-576
408.762	-624
408.839	-1140
408.917	-1144
408.994	-1538
409.072	-1151
409.149	-560
409.227	603
409.304	1991
409.382	2010
409.459	1841
409.537	4061
409.614	2929
409.692	1516
409.769	678
409.846	2959
409.924	4866
410.001	300
410.079	640
410.156	1193
410.233	-101
410.311	-1340
410.388	-1029
410.465	-187
410.543	-1021
410.620	238
410.697	-147
410.775	-819
410.852	-1171
410.929	45
411.006	271
411.083	-512
411.161	-821
411.238	-122
411.315	-370
411.392	-1053
411.469	-32
411.547	-574
411.624	-2001
411.701	-1600
411.778	-642
411.855	-877
411.932	-1392
412.009	-1272
412.086	-783
412.163	-1086
412.240	-1384
412.317	-631
412.394	-1739
412.471	-1054
412.548	-1326
412.625	-812
412.702	-603
412.779	-871
412.856	-547
412.933	-1647
413.010	-1443
413.087	-1150
413.164	-1635
413.241	-848
413.318	-1787
413.395	-590
413.471	-1773
413.548	-992
413.625	-587
413.702	-1632
413.779	-859
413.855	-798
413.932	-1363
414.009	-1928
414.086	-1570
414.162	-618
414.239	-884
414.316	-731
414.393	-218
414.469	-2303
414.546	-898
414.623	-1828
414.699	-631
414.776	-1139
414.853	-1593
414.929	-959
415.006	-884
415.082	-1537
415.159	-932
415.236	-869
415.312	-830
415.389	-1233
415.465	-1606
415.542	-2157
415.618	-1624
415.695	-723
415.771	-1827
415.848	-1361
415.924	-713
416.000	-1657
416.077	-507
416.153	-1895
416.230	-2062
416.306	-1292
416.383	-1937
416.459	-1599
416.535	-1434
416.612	-1330
416.688	-966
416.764	-2144
416.841	-902
416.917	-1723
416.993	-1518
417.069	-1243
417.146	-2238
417.222	-1585
417.298	-2162
417.374	-1637
417.451	-1065
417.527	-1955
417.603	-1267
417.679	-1290
417.755	-1307
417.831	-1584
417.908	-892
417.984	-1375
418.060	-2483
418.136	-269
418.212	-1849
418.288	-1207
418.364	-416
418.440	-1672
418.516	-1005
418.592	-1479
418.668	-1077
418.744	-1655
418.820	-1336
418.896	-1091
418.972	-2086
419.048	-1675
419.124	-43
419.200	-2037
419.276	-1435
419.352	-2353
419.428	-1283
419.504	-2289
419.579	-1145
419.655	-1234
419.731	-2368
419.807	-913
419.883	-1045
419.959	-1640
420.034	-430
420.110	-1259
420.186	-1527
420.262	195
420.337	-960
420.413	-1124
420.489	-488
420.565	-626
420.640	-760
420.716	-219
420.792	-1873
420.867	-483
420.943	-1351
421.019	-750
421.094	-259
421.170	-176
421.245	-387
421.321	707
421.397	-1078
421.472	1516
421.548	1396
421.623	2164
421.699	1140
421.774	1664
421.850	1184
421.925	2129
422.001	3496
422.076	3763
422.152	4644
422.227	7458
422.302	11781
422.378	18395
422.453	28918
422.529	51609
422.604	75615
422.679	73447
422.755	75429
422.830	55629
422.905	32812
422.981	20370
423.056	14565
423.131	9089
423.207	6674
423.282	5156
423.357	3855
423.432	2506
423.508	3123
423.583	1185
423.658	1511
423.733	937
423.808	988
423.883	890
423.959	211
424.034	857
424.109	2271
424.184	-134
424.259	181
424.334	387
424.409	-343
424.484	-358
424.559	-88
424.634	-715
424.709	-413
424.784	-723
424.859	-87
424.934	-703
425.009	-613
425.084	-634
425.159	-580
425.234	-88
425.309	-1164
425.384	-848
425.459	-2672
425.534	-1167
425.609	-1723
425.683	-1061
425.758	-1434
425.833	-1461
425.908	-225
425.983	-1558
426.058	-460
426.132	-1169
426.207	-1474
426.282	-8
426.357	-1808
426.431	-1237
426.506	-387
426.581	-504
426.655	-1081
426.730	-977
426.805	-1530
426.879	-225
426.954	-1527
427.029	-1786
427.103	-515
427.178	181
427.253	-396
427.327	-1373
427.402	-2040
427.476	-1120
427.551	-2209
427.625	-1158
427.700	-710
427.774	-1786
427.849	-945
427.923	-1210
427.998	-1306
428.072	-1133
428.147	212
428.221	5602
428.296	23861
428.370	12252
428.444	641
428.519	-1256
428.593	-875
428.667	-940
428.742	-1261
428.816	408
428.890	12225
428.965	21714
429.039	4468
429.113	-374
429.188	-1029
429.262	-1658
429.336	-767
429.410	-983
429.485	-394
429.559	-1004
429.633	-1093
429.707	-928
429.781	617
429.855	11370
429.930	19385
430.004	3526
430.078	430
430.152	5895
430.226	30030
430.300	31027
430.374	4294
430.448	845
430.522	-1302
430.596	-1385
430.670	2711
430.744	17387
430.818	20282
430.892	1970
430.966	-1068
431.040	-566
431.114	-1737
431.188	-1219
431.262	-1087
431.336	-2030
431.410	-308
431.484	-2213
431.557	-510
431.631	-1999
431.705	-871
431.779	3276
431.853	22353
431.927	14093
432.000	930
432.074	-471
432.148	-778
432.222	-1349
432.295	-1387
432.369	-1467
432.443	-1486
432.516	-195
432.590	676
432.664	-678
432.737	-1980
432.811	-1495
432.885	-1526
432.958	-1071
433.032	-1170
433.106	-1448
433.179	-981
433.253	-1281
433.326	-2303
433.400	-2222
433.473	-1517
433.547	-1968
433.620	-1211
433.694	-2100
433.767	-1958
433.841	-1509
433.914	-1375
433.988	-1525
434.061	-1068
434.134	-1476
434.208	-1468
434.281	-1926
434.355	-1244
434.428	-1623
434.501	-1805
434.575	-1853
434.648	-1546
434.721	-1402
434.795	-1489
434.868	-1931
434.941	-428
435.014	-1875
435.088	-1605
435.161	-1381
435.234	-1282
435.307	-1235
435.381	-1027
435.454	-990
435.527	1506
435.600	2001
435.673	260
435.746	-251
435.819	-914
435.892	-1700
435.966	-1527
436.039	-1223
436.112	-720
436.185	-1835
436.258	-998
436.331	-2163
436.404	-1377
436.477	-1817
436.550	-1745
436.623	-534
436.696	-1685
436.769	-1597
436.842	-1064
436.915	-1584
436.987	-1569
437.060	-994
437.133	-1576
437.206	-2082
437.279	-627
437.352	-729
437.425	-798
437.498	-1662
437.570	-1561
437.643	-1343
437.716	-1635
437.789	-1620
437.861	-916
437.934	-2027
438.007	-1757
438.080	-2119
438.152	-1101
438.225	-1133
438.298	-641
438.370	2242
438.443	301
438.516	-803
438.588	-1337
438.661	-1104
438.734	-1005
438.806	-1689
438.879	-2248
438.951	-1487
439.024	-1365
439.096	-2119
439.169	-1233
439.241	-1391
439.314	-2124
439.386	-1123
439.459	-856
439.531	-1528
439.604	-1498
439.676	-1239
439.749	-935
439.821	-1280
439.893	-867
439.966	-1629
440.038	-1759
440.110	-1282
440.183	-1788
440.255	-1793
440.327	-963
440.400	-826
440.472	381
440.544	-264
440.617	-1437
440.689	-479
440.761	-935
440.833	-1678
440.905	-1050
440.978	-1344
441.050	-1452
441.122	-906
441.194	-934
441.266	-1613
441.338	-2158
441.411	-1066
441.483	-921
441.555	-1090
441.627	-1252
441.699	-1239
441.771	-1840
441.843	-1824
441.915	-1180
441.987	-1578
442.059	-1553
442.131	-869
442.203	-1064
442.275	-984
442.347	390
442.419	1997
442.491	15956
442.563	38851
442.635	14727
442.706	1284
442.778	-189
442.850	-581
442.922	-1009
442.994	-1206
443.066	-467
443.137	-698
443.209	-415
443.281	786
443.353	4385
443.425	17842
443.496	59316
443.568	61570
443.640	25236
443.711	4467
443.783	1515
443.855	-205
443.926	-128
443.998	-1593
444.070	-465
444.141	-381
444.213	-1639
444.285	-608
444.356	-1045
444.428	-300
444.499	-1110
444.571	-1305
444.642	-551
444.714	-1463
444.785	-130
444.857	-1115
444.928	-774
445.000	-547
445.071	-163
445.143	711
445.214	1703
445.285	3149
445.357	8868
445.428	35287
445.500	75268
445.571	55836
445.642	37623
445.714	12039
445.785	2875
445.856	109
445.928	-313
445.999	-1645
446.070	-1173
446.141	-1704
446.213	-582
446.284	-561
446.355	-912
446.426	-1978
446.497	-744
446.569	-1505
446.640	-567
446.711	-771
446.782	-775
446.853	-1688
446.924	-1486
446.995	-932
447.066	-1366
447.138	-1106
447.209	-1347
447.280	-1873
447.351	-1452
447.422	-1480
447.493	-1331
447.564	-1322
447.635	-1765
447.706	-1975
447.777	-1298
447.847	-1518
447.918	-1463
447.989	-996
448.060	-1038
448.131	-1441
448.202	-2102
448.273	-1275
448.344	-1315
448.414	-1331
448.485	-1324
448.556	-859
448.627	-2107
448.698	-614
448.768	-1990
448.839	-1473
448.910	-1185
448.981	-971
449.051	-1321
449.122	-1362
449.193	-1026
449.263	-2458
449.334	-2205
449.405	-1245
449.475	-1347
449.546	-1470
449.616	-853
449.687	-1320
449.758	-927
449.828	-2509
449.899	-1789
449.969	-2001
450.040	-1700
450.110	-1008
450.181	-1531
450.251	-1596
450.322	-1174
450.392	-1122
450.463	-1288
450.533	-1961
450.604	-239
450.674	-2087
450.744	-1744
450.815	-1969
450.885	-574
450.955	-1179
451.026	-1418
451.096	-1303
451.166	-1443
451.237	-2283
451.307	-112
451.377	-1206
451.447	-2100
451.518	-1432
451.588	-1788
451.658	-1903
451.728	-1871
451.799	-1720
451.869	-663
451.939	-1729
452.009	-1607
452.079	-1207
452.149	-1904
452.219	-1351
452.289	-1948
452.360	-1984
452.430	-1160
452.500	-1079
452.570	-380
452.640	1755
452.710	5095
452.780	6563
452.850	2132
452.920	241
452.990	-1096
453.060	-1190
453.129	-1209
453.199	-1369
453.269	-800
453.339	-1149
453.409	-1517
453.479	-1524
453.549	-1384
453.619	-1710
453.688	-852
453.758	-1192
453.828	-1702
453.898	-1522
453.968	-756
454.037	-1151
454.087	-1188
454.107	-1213
454.168	-1948
454.177	-2068
454.247	-1315
454.249	-1323
454.316	-1841
454.330	-1847
454.386	-1916
454.411	-1681
454.456	-1329
454.492	-1382
454.525	-1433
454.574	-1392
454.595	-1395
454.655	-1491
454.665	-1524
454.734	-1024
454.736	-1015
454.804	-1099
454.817	-1219
454.873	-1796
454.898	-1500
454.943	-985
454.979	-1423
455.013	-1864
455.060	-1212
455.082	-929
455.141	-1535
455.152	-1659
455.221	-994
455.222	-990
455.291	-1402
455.303	-1419
455.360	-1553
455.384	-1309
455.430	-944
455.465	-955
455.499	-994
455.546	-1402
455.569	-1578
455.627	-762
455.638	-642
455.707	-1073
455.708	-1064
455.777	-1256
455.789	-1218
455.846	-971
455.869	-861
455.916	-771
455.950	-843
455.985	-874
456.031	-1049
456.054	-1217
456.112	-664
456.124	-489
456.193	-701
456.193	-718
456.262	-670
456.274	-584
456.332	8
456.355	-382
456.401	-1194
456.436	-1095
456.470	-1055
456.516	-897
456.540	-828
456.597	-1025
456.609	-1081
456.678	-733
456.678	-742
456.747	-833
456.759	-881
456.817	-918
456.840	-690
456.886	-565
456.920	-279
456.955	37
457.001	-162
457.024	-223
457.082	-385
457.093	-445
457.162	-571
457.163	-558
457.232	11
457.243	-43
457.301	-409
457.324	-429
457.370	-360
457.405	14
457.439	458
457.485	360
457.508	179
457.566	303
457.577	425
457.646	2129
457.647	2144
457.715	4477
457.727	5148
457.784	10587
457.808	14637
457.853	18535
457.889	20733
457.922	19179
457.969	11935
457.991	12769
458.050	17045
458.060	17991
458.129	32731
458.130	33169
458.198	28826
458.211	25352
458.267	12749
458.292	7860
458.336	4593
458.372	4504
458.405	7743
458.453	12980
458.474	17287
458.533	33010
458.543	34033
458.611	50503
458.614	50791
458.680	26597
458.694	19558
458.749	8398
458.775	5535
458.818	2654
458.855	1875
458.887	1482
458.936	1301
458.955	1182
459.016	630
459.024	635
459.093	1387
459.097	1394
459.162	534
459.177	404
459.230	707
459.257	895
459.299	658
459.338	621
459.368	779
459.418	798
459.437	739
459.499	583
459.505	572
459.574	903
459.579	921
459.643	933
459.659	697
459.711	346
459.740	647
459.780	583
459.820	361
459.849	590
459.900	993
459.917	940
459.981	671
459.986	663
460.054	533
460.061	568
460.123	733
460.141	579
460.191	555
460.222	929
460.260	1027
460.302	658
460.328	560
460.382	771
460.397	845
460.462	1473
460.465	1532
460.534	2229
460.543	2379
460.602	6472
460.623	7997
460.671	12622
460.703	16755
460.739	14835
460.783	11271
460.808	9404
460.864	3054
460.876	2618
460.944	1036
460.945	1024
461.013	1348
461.024	1354
461.081	607
461.104	569
461.150	752
461.184	709
461.218	919
461.264	1041
461.286	973
461.345	930
461.355	907
461.423	661
461.425	653
461.491	786
461.505	872
461.559	826
461.585	830
461.628	1143
461.665	1310
461.696	1156
461.745	986
461.764	1004
461.825	989
461.832	1010
461.901	1181
461.905	1187
461.969	828
461.985	785
462.037	1364
462.065	1655
462.105	1180
462.145	823
462.173	953
462.225	1193
462.241	1232
462.305	760
462.310	712
462.378	737
462.385	690
462.446	1137
462.465	1365
462.514	1533
462.545	1481
462.582	1273
462.625	1149
462.650	1218
462.705	1523
462.718	1460
462.785	698
462.786	698
462.854	1089
462.865	1097
462.922	1266
462.945	1439
462.990	1368
463.025	1146
463.058	1435
463.104	2057
463.126	2026
463.184	1790
463.194	1845
463.262	1918
463.264	1932
463.330	1496
463.344	1344
463.398	1771
463.424	2159
463.466	1597
463.504	786
463.533	1191
463.583	1965
463.601	1854
463.663	1379
463.669	1312
463.737	863
463.743	785
463.805	1197
463.823	1361
463.873	1598
463.903	1781
463.940	1798
463.982	1691
464.008	1562
464.062	1309
464.076	1402
464.142	1769
464.144	1764
464.211	1652
464.221	1608
464.279	1914
464.301	1985
464.347	1799
464.381	1765
464.414	1507
464.461	1155
464.482	1223
464.540	1222
464.550	1246
464.617	1381
464.620	1388
464.685	2167
464.699	2308
464.753	2018
464.779	1857
464.820	1502
464.859	1226
464.888	1039
464.938	632
464.956	1002
465.018	2388
465.023	2362
465.091	1977
465.098	1932
465.158	1556
465.177	1415
465.226	1962
465.257	2234
465.293	2300
465.336	2475
465.361	2286
465.416	1942
465.428	2035
465.495	2259
465.496	2261
465.563	1610
465.575	1508
465.631	1654
465.654	1737
465.698	1794
465.734	1779
465.765	1782
465.813	1746
465.833	1727
465.893	1697
465.900	1792
465.968	2538
465.972	2583
466.035	1705
466.052	1478
466.102	1752
466.131	1883
466.170	2000
466.210	2181
466.237	2333
466.290	2456
466.304	2179
466.369	981
466.372	1019
466.439	2017
466.449	2161
466.506	2203
466.528	2203
466.573	2261
466.607	2283
466.641	2282
466.687	2295
466.708	2412
466.766	2654
466.775	2571
466.842	1947
466.845	1911
466.909	2143
466.925	2192
466.977	2318
467.004	2380
467.044	2513
467.083	2647
467.111	2516
467.163	2214
467.178	2323
467.242	2776
467.245	2776
467.312	2653
467.321	2633
467.379	2691
467.400	2703
467.446	2214
467.480	1852
467.559	2698
467.638	2115
467.717	2593
467.796	2811
467.875	2832
467.955	2608
468.034	3147
468.113	2770
468.192	4302
468.271	5512
468.350	7288
468.429	10657
468.508	12835
468.588	6769
468.667	3984
468.746	3123
468.825	3211
468.904	2238
468.983	2741
469.062	1996
469.141	3235
469.220	2588
469.299	2760
469.378	1508
469.456	3187
469.535	2051
469.614	3029
469.693	1491
469.772	3014
469.851	2606
469.930	2920
470.009	3113
470.088	2428
470.166	3915
470.245	5893
470.324	6181
470.403	3459
470.482	3512
470.560	3360
470.639	2508
470.718	2742
470.797	2007
470.875	3431
470.954	1981
471.033	2818
471.111	2035
471.190	3027
471.269	2097
471.347	2455
471.426	2756
471.505	2335
471.583	2467
471.662	2821
471.740	2207
471.819	2688
471.898	1619
471.976	2938
472.055	2057
472.133	3482
472.212	3397
472.290	2693
472.369	1997
472.447	2330
472.526	2311
472.604	3043
472.683	2673
472.761	2809
472.839	1588
472.918	2946
472.996	2159
473.075	2996
473.153	3113
473.231	2426
473.310	2602
473.388	2317
473.466	2090
473.545	2461
473.623	1710
473.701	2835
473.780	3269
473.858	1345
473.936	4459
474.014	3144
474.093	2567
474.171	3093
474.249	2290
474.327	2904
474.405	1723
474.484	2660
474.562	2503
474.640	2723
474.718	2890
474.796	2246
474.874	2319
474.952	2055
475.030	2074
475.108	2780
475.187	2010
475.265	3533
475.343	5129
475.421	5859
475.499	2158
475.577	2873
475.655	3296
475.733	2875
475.811	2834
475.889	2230
475.966	2270
476.044	2669
476.122	2754
476.200	4228
476.278	2903
476.356	3232
476.434	2072
476.512	2969
476.590	4598
476.667	3525
476.745	2158
476.823	3001
476.901	2199
476.979	2797
477.056	2129
477.134	2647
477.212	1017
477.290	2812
477.367	2519
477.445	2359
477.523	2395
477.601	1998
477.678	1979
477.756	2923
477.834	2740
477.911	2122
477.989	1966
478.066	2428
478.144	1750
478.222	3956
478.299	5634
478.377	5521
478.454	2351
478.532	2929
478.609	1888
478.687	2465
478.764	2502
478.842	2480
478.919	1990
478.997	2809
479.074	2268
479.152	2398
479.229	2351
479.307	2487
479.384	2078
479.461	2952
479.539	1384
479.616	3061
479.694	2319
479.771	2828
479.848	2166
479.926	566
480.003	3650
480.080	2317
480.157	1867
480.235	1877
480.312	1709
480.389	2004
480.467	1639
480.544	2788
480.621	3305
480.698	3519
480.775	1654
480.853	2034
480.930	2100
481.007	2623
481.084	2160
481.161	3359
481.238	2409
481.315	2277
481.392	1953
481.470	2044
481.547	1513
481.624	2155
481.701	2404
481.778	2615
481.855	2147
481.932	3875
482.009	2376
482.086	2871
482.163	2608
482.240	5293
482.317	8137
482.393	5496
482.470	2546
482.547	2877
482.624	1943
482.701	2683
482.778	1568
482.855	2075
482.932	1912
483.009	2749
483.085	3546
483.162	4181
483.239	3886
483.316	4016
483.393	4232
483.469	3928
483.546	3490
483.623	3023
483.699	2063
483.776	2088
483.853	1745
483.930	2579
484.006	2020
484.083	3514
484.160	1859
484.236	3268
484.313	2153
484.389	2135
484.466	3811
484.543	3692
484.619	4681
484.696	6713
484.772	3669
484.849	2847
484.925	2175
485.002	2578
485.078	2317
485.155	2370
485.231	1704
485.308	1961
485.384	1627
485.461	2694
485.537	1518
485.614	3664
485.690	1334
485.766	3251
485.843	1404
485.919	1840
485.995	1969
486.072	2184
486.148	1467
486.224	1921
486.301	1406
486.377	1994
486.453	1113
486.530	3322
486.606	2432
486.682	1983
486.758	2410
486.835	2509
486.911	1810
486.987	4316
487.063	2733
487.139	4190
487.215	3361
487.292	5983
487.368	5414
487.444	5921
487.520	8806
487.596	11988
487.672	32130
487.748	113958
487.824	171873
487.900	44408
487.976	10046
488.052	5297
488.128	4268
488.204	3036
488.280	3348
488.356	2790
488.432	2578
488.508	2615
488.584	2121
488.660	2146
488.736	2468
488.812	2016
488.888	2441
488.964	2228
489.039	1974
489.115	3796
489.191	3335
489.267	2336
489.343	1789
489.418	1842
489.494	2057
489.570	1466
489.646	2912
489.722	3068
489.797	1004
489.873	2688
489.949	2073
490.024	2524
490.100	1768
490.176	2807
490.251	1747
490.327	2920
490.403	2797
490.478	2291
490.554	2099
490.629	2460
490.705	2244
490.781	2819
490.856	2417
490.932	3136
491.007	2315
491.083	1917
491.158	2169
491.234	2455
491.309	2644
491.385	1241
491.460	1288
491.536	2762
491.611	1083
491.686	2350
491.762	2232
491.837	2492
491.913	2401
491.988	4206
492.063	3114
492.139	3334
492.214	2283
492.289	2619
492.365	1909
492.440	2138
492.515	1757
492.590	2564
492.666	932
492.741	2358
492.816	1725
492.891	1864
492.967	2131
493.042	2424
493.117	1241
493.192	2676
493.267	2036
493.342	3826
493.418	3214
493.493	3031
493.568	2293
493.643	2100
493.718	2096
493.793	2313
493.868	1783
493.943	3081
494.018	2309
494.093	1687
494.168	3144
494.243	2641
494.318	1772
494.393	3135
494.468	1805
494.543	2414
494.618	2471
494.693	1857
494.768	2281
494.842	2385
494.917	2810
494.992	2759
495.067	1448
495.142	2021
495.217	2151
495.292	2534
495.366	1997
495.441	1506
495.516	3113
495.591	2019
495.665	3594
495.740	6046
495.815	3313
495.890	2640
495.964	359
496.039	4327
496.114	1470
496.188	3524
496.263	2624
496.338	1476
496.412	1731
496.487	2622
496.561	1755
496.636	2000
496.710	1149
496.785	2529
496.860	2050
496.934	2152
497.009	2768
497.083	2531
497.158	2237
497.232	3472
497.307	2260
497.381	3383
497.455	2874
497.530	2670
497.604	2379
497.679	2584
497.753	2674
497.827	1781
497.902	1923
497.976	3476
498.050	2395
498.125	3102
498.199	2639
498.273	2411
498.348	2765
498.422	3538
498.496	2956
498.570	3993
498.645	1599
498.719	1301
498.793	2203
498.867	2034
498.941	1917
499.016	1636
499.090	1260
499.164	2532
499.238	2718
499.312	2912
499.386	2496
499.460	3550
499.534	3049
499.609	4394
499.683	2822
499.757	1633
499.831	1519
499.905	2204
499.979	1349
500.053	1587
500.127	2259
500.201	1872
500.275	1931
500.349	2901
500.422	2548
500.496	3057
500.570	3746
500.644	6087
500.718	3968
500.792	2477
500.866	944
500.940	1050
501.013	1548
501.087	1006
501.161	927
501.235	882
501.309	2184
501.382	1074
501.456	2215
501.530	1540
501.603	1224
501.677	1136
501.751	249
501.825	2315
501.898	1316
501.972	1066
502.046	1634
502.119	1466
502.193	1635
502.266	1535
502.340	1099
502.413	1737
502.487	1709
502.561	420
502.634	1651
502.708	1288
502.781	461
502.855	2264
502.928	1134
503.002	1417
503.075	207
503.149	1286
503.222	1828
503.295	1299
503.369	2281
503.442	1415
503.516	1672
503.589	2885
503.662	1793
503.736	3534
503.809	5255
503.882	5581
503.956	7377
504.029	17544
504.102	61164
504.175	93183
504.249	26662
504.322	8999
504.395	4045
504.468	3205
504.542	1364
504.615	1034
504.688	2257
504.761	178
504.834	2393
504.907	1176
504.980	1669
505.053	1547
505.127	-571
505.200	3670
505.273	986
505.346	696
505.419	678
505.492	1746
505.565	647
505.638	1183
505.711	209
505.784	922
505.857	590
505.930	2627
506.003	-694
506.076	2851
506.149	1253
506.221	-563
506.294	2140
506.367	-358
506.440	1073
506.513	951
506.586	1105
506.659	670
506.731	1211
506.804	75
506.877	681
506.950	2215
507.022	1780
507.095	152
507.168	167
507.241	1469
507.313	981
507.386	267
507.459	431
507.531	1384
507.604	62
507.677	1743
507.749	-690
507.822	1805
507.894	785
507.967	1133
508.040	-464
508.112	1735
508.185	693
508.257	-759
508.330	1980
508.402	990
508.475	839
508.547	1592
508.620	179
508.692	1719
508.765	694
508.837	129
508.909	923
508.982	1170
509.054	750
509.127	1071
509.199	739
509.271	-530
509.344	350
509.416	1095
509.488	-646
509.560	983
509.633	553
509.705	630
509.777	614
509.849	2055
509.922	-675
509.994	475
510.066	1454
510.138	-1004
510.210	2247
510.283	14
510.355	922
510.427	1408
510.499	744
510.571	470
510.643	665
510.715	2072
510.787	-1575
510.859	2116
510.931	471
511.003	1090
511.076	1574
511.148	603
511.219	36
511.291	1364
511.363	1111
511.435	1142
511.507	-195
511.579	1963
511.651	1809
511.723	745
511.795	32
511.867	756
511.939	220
512.010	247
512.082	974
512.154	-346
512.226	583
512.298	1484
512.369	1099
512.441	1931
512.513	1829
512.585	-539
512.656	1622
512.728	956
512.800	124
512.871	1686
512.943	1138
513.015	140
513.086	1199
513.158	1146
513.230	343
513.301	830
513.373	1093
513.444	1259
513.516	509
513.588	175
513.659	1644
513.731	268
513.802	-558
513.874	2728
513.945	1305
514.016	854
514.088	2035
514.159	-58
514.231	77
514.302	479
514.374	945
514.445	-1122
514.516	1804
514.588	1030
514.659	733
514.730	-188
514.802	1319
514.873	-815
514.944	2807
515.016	1668
515.087	431
515.158	788
515.229	1903
515.301	389
515.372	807
515.443	70
515.514	197
515.585	-46
515.656	717
515.728	2211
515.799	27
515.870	1828
515.941	921
516.012	1091
516.083	1383
516.154	-21
516.225	2321
516.296	3870
516.367	2049
516.438	3974
516.509	4243
516.580	7395
516.651	28522
516.722	97893
516.793	32069
516.864	6852
516.935	5843
517.006	8077
517.077	9908
517.148	24737
517.219	125415
517.289	182606
517.360	19517
517.431	6465
517.502	3074
517.573	3720
517.643	2405
517.714	3404
517.785	3680
517.856	4017
517.926	6732
517.997	7405
518.068	7909
518.138	13746
518.209	20400
518.280	78674
518.350	293308
518.421	94368
518.492	13240
518.562	9782
518.633	10400
518.703	12586
518.774	35580
518.845	108418
518.915	99012
518.986	21248
519.056	7698
519.127	5961
519.197	3210
519.268	3306
519.338	3106
519.408	1980
519.479	2382
519.549	1993
519.620	3128
519.690	976
519.760	1809
519.831	1253
519.901	1078
519.971	1290
520.042	1018
520.112	806
520.182	1702
520.253	1694
520.323	774
520.393	218
520.463	1834
520.534	-2160
520.604	2866
520.674	2143
520.744	1214
520.814	94
520.885	1457
520.955	56
521.025	76
521.095	-75
521.165	1358
521.235	804
521.305	4
521.375	1639
521.445	1972
521.515	935
521.585	1349
521.655	-526
521.725	938
521.795	1564
521.865	-940
521.935	2644
522.005	-306
522.075	596
522.145	2194
522.215	-45
522.285	1000
522.355	1268
522.424	218
522.494	260
522.564	1206
522.634	658
522.704	4152
522.774	268
522.843	819
522.913	539
522.983	876
523.053	55
523.122	1246
523.192	1038
523.262	1113
523.331	85
523.401	1036
523.471	790
523.540	934
523.610	920
523.680	1332
523.749	1397
523.819	1052
523.888	1272
523.958	457
524.027	1632
524.097	958
524.166	1592
524.236	-238
524.305	2952
524.375	287
524.444	-463
524.514	2988
524.583	836
524.653	-169
524.722	1520
524.791	-94
524.861	3055
524.930	766
524.999	1611
525.069	2073
525.138	1360
525.207	738
525.277	2179
525.346	896
525.415	1982
525.484	2192
525.554	3064
525.623	3844
525.692	5339
525.761	5234
525.830	8486
525.900	9635
525.969	16823
526.038	31420
526.107	66731
526.176	204092
526.245	149186
526.314	38992
526.383	99092
526.452	127506
526.522	196061
526.591	170554
526.660	24764
526.729	14651
526.797	17500
526.867	22782
526.935	76998
527.004	302659
527.073	174762
527.142	18826
527.211	7915
527.280	6134
527.349	4750
527.418	1738
527.487	4251
527.555	1064
527.624	2390
527.693	289
527.762	3106
527.831	539
527.899	2690
527.968	1822
528.037	497
528.106	2288
528.174	1786
528.243	822
528.312	2076
528.380	970
528.449	439
528.518	2093
528.586	-526
528.655	2458
528.723	2040
528.792	686
528.861	744
528.929	109
528.998	2287
529.066	682
529.135	1102
529.203	-192
529.272	136
529.340	1907
529.409	2909
529.477	146
529.545	512
529.614	3144
529.682	100
529.751	317
529.819	3898
529.887	1074
529.956	825
530.024	2281
530.092	874
530.161	1465
530.229	1225
530.297	672
530.365	2932
530.434	1093
530.502	349
530.570	1892
530.638	535
530.707	1433
530.775	3848
530.843	747
530.911	1431
530.979	1332
531.047	1261
531.115	1657
531.183	1058
531.252	2103
531.320	1630
531.388	-112
531.456	2244
531.524	-573
531.592	3088
531.660	3132
531.728	684
531.796	1542
531.864	1051
531.932	1324
532.000	1481
532.067	576
532.135	2446
532.203	2644
532.271	1126
532.339	2892
532.407	2722
532.475	2878
532.542	2828
532.610	2724
532.678	1714
532.746	5080
532.814	7913
532.881	3056
532.949	3565
533.017	1879
533.084	2344
533.152	2124
533.220	2031
533.287	1112
533.355	3029
533.423	3038
533.490	1589
533.558	2109
533.625	2350
533.693	1567
533.761	2750
533.828	2320
533.896	1180
533.963	3286
534.031	3866
534.098	4968
534.166	3998
534.233	3400
534.300	5633
534.368	5410
534.435	3945
534.503	5212
534.570	6044
534.637	6145
534.705	7278
534.772	9364
534.840	17797
534.907	86501
534.974	101659
535.041	11970
535.109	5818
535.176	4168
535.243	5773
535.310	4092
535.378	3157
535.445	4500
535.512	4954
535.579	5188
535.646	3138
535.714	4304
535.781	5899
535.848	5370
535.915	5701
535.982	3513
536.049	4114
536.116	5002
536.183	3858
536.250	4456
536.317	4720
536.384	4973
536.451	5817
536.518	5257
536.585	4133
536.652	6311
536.719	5445
536.786	3424
536.853	4771
536.920	5531
536.987	5828
537.053	3671
537.120	7542
537.187	8472
537.254	5719
537.321	5746
537.388	6769
537.454	4438
537.521	6182
537.588	5033
537.654	6929
537.721	4524
537.788	6080
537.855	6097
537.921	5845
537.988	4807
538.055	6778
538.121	3780
538.188	4560
538.254	4357
538.321	5342
538.388	5220
538.454	6398
538.521	6772
538.587	5837
538.654	5614
538.720	6254
538.787	5634
538.853	5889
538.920	4923
538.986	5676
539.053	4964
539.119	4673
539.185	5216
539.252	6975
539.318	4614
539.385	8285
539.451	5079
539.517	6267
539.583	6191
539.650	6297
539.716	6191
539.782	5226
539.849	5078
539.915	5995
539.981	4810
540.047	5021
540.114	5070
540.180	7030
540.246	4245
540.312	6291
540.378	5807
540.444	6550
540.510	6809
540.576	7816
540.643	6122
540.709	5029
540.775	4949
540.841	5231
540.907	5950
540.973	5693
541.039	5430
541.105	5772
541.171	6308
541.237	5529
541.303	7553
541.369	7070
541.435	6686
541.500	5817
541.566	4167
541.632	5322
541.698	5436
541.764	7617
541.830	4449
541.896	4809
541.961	6060
542.027	5367
542.093	6002
542.159	7318
542.224	3693
542.290	6669
542.356	4711
542.421	6102
542.487	6027
542.553	4710
542.618	5935
542.684	5155
542.750	5401
542.815	6836
542.881	5451
542.947	7270
543.012	7033
543.078	5284
543.143	4341
543.209	6122
543.274	4291
543.340	6373
543.405	5523
543.471	6174
543.536	6021
543.602	6342
543.667	4070
543.732	7985
543.798	4937
543.863	6611
543.928	5350
543.994	6261
544.059	6359
544.124	6582
544.190	5981
544.255	6801
544.320	6710
544.386	5003
544.451	7035
544.516	6887
544.581	5719
544.646	7517
544.712	8359
544.777	8008
544.842	6375
544.907	6703
544.972	6328
545.037	7341
545.102	7544
545.168	7196
545.233	8065
545.298	8897
545.363	7015
545.428	7714
545.493	8548
545.558	8514
545.623	8236
545.688	8170
545.753	9012
545.818	9282
545.883	10390
545.947	9977
546.012	9628
546.077	10028
546.142	12248
546.207	10849
546.272	11806
546.337	12624
546.401	13690
546.466	13794
546.531	13029
546.596	15568
546.661	16730
546.725	17769
546.790	17603
546.855	20467
546.919	21071
546.984	25487
547.049	26236
547.113	31580
547.178	32818
547.243	39340
547.307	44132
547.372	49385
547.436	49448
547.501	51732
547.565	55517
547.630	52097
547.695	49760
547.759	48400
547.823	50633
547.888	51218
547.952	52107
548.017	54736
548.081	56720
548.146	56586
548.210	57323
548.274	62493
548.339	60372
548.403	55802
548.468	50949
548.532	51061
548.596	52775
548.660	52728
548.725	58350
548.789	61495
548.853	61156
548.917	57984
548.982	55620
549.046	50983
549.110	44478
549.174	48463
549.238	56952
549.303	61052
549.367	63427
549.431	59709
549.495	57122
549.559	56535
549.623	64969
549.687	70291
549.751	69270
549.815	84317
549.879	85186
549.943	81209
550.007	85441
550.071	85167
550.135	76461
550.199	71908
550.263	70396
550.327	66804
550.391	67479
550.455	76071
550.519	80800
550.582	86095
550.646	94143
550.710	96312
550.774	95562
550.838	97031
550.901	99220
550.965	104544
551.029	107362
551.093	113059
551.156	117681
551.220	125610
551.284	135831
551.347	113079
551.411	100758
551.475	101403
551.538	104290
551.602	98465
551.666	93269
551.729	87951
551.793	86769
551.856	86777
551.920	82940
551.983	84446
552.047	82778
552.110	84196
552.174	83007
552.237	85958
552.301	80292
552.364	78600
552.428	75043
552.491	77843
552.554	78613
552.618	79528
552.681	80344
552.745	75512
552.808	82374
552.871	87892
552.934	82081
552.998	79507
553.061	77940
553.124	75151
553.187	73752
553.251	77672
553.314	76777
553.377	77397
553.440	82935
553.503	84326
553.567	85049
553.630	84364
553.693	83564
553.756	84985
553.819	82983
553.882	80987
553.945	80839
554.008	81613
554.071	81413
554.134	82647
554.197	76886
554.260	77628
554.323	79143
554.386	80773
554.449	82170
554.512	81824
554.575	76803
554.638	77262
554.701	76178
554.764	76579
554.827	74443
554.889	71561
554.952	68348
555.015	65225
555.078	65390
555.141	68350
555.203	65343
555.266	65851
555.329	65542
555.391	63450
555.454	62142
555.517	58766
555.580	56189
555.642	54227
555.705	54254
555.768	53517
555.830	51154
555.893	49719
555.955	48690
556.018	46590
556.080	47164
556.143	48858
556.206	47593
556.268	46497
556.330	45715
556.393	44144
556.455	42679
556.518	41658
556.580	39020
556.643	40069
556.705	37760
556.767	36041
556.830	37637
556.892	37000
556.955	35111
557.017	34693
557.079	33654
557.142	33866
557.204	32979
557.266	32863
557.328	29775
557.391	28864
557.453	27655
557.515	27920
557.577	28759
557.639	27961
557.701	27477
557.764	26487
557.826	27800
557.888	28699
557.950	28702
558.012	29930
558.074	36134
558.136	67431
558.198	139464
558.260	52852
558.322	27528
558.384	28798
558.446	29548
558.508	31503
558.570	34550
558.632	38109
558.694	45381
558.756	71805
558.818	181108
558.880	375795
558.942	142329
559.003	145968
559.065	70989
559.127	34040
559.189	32325
559.251	35408
559.312	47865
559.374	101064
559.436	279623
559.498	135667
559.559	34978
559.621	31754
559.683	34819
559.744	55120
559.806	151804
559.868	207685
559.929	46366
559.991	33861
560.052	50648
560.114	132571
560.176	82017
560.237	77158
560.299	116700
560.360	27022
560.422	14320
560.483	14115
560.545	12607
560.606	11951
560.667	11239
560.729	11677
560.790	10327
560.852	9582
560.913	10350
560.974	9835
561.036	9910
561.097	10022
561.158	9116
561.220	10100
561.281	8704
561.342	9439
561.403	10047
561.465	9389
561.526	9964
561.587	9562
561.648	7097
561.709	8303
561.771	8688
561.832	7947
561.893	7083
561.954	8413
562.015	7130
562.076	8352
562.137	7266
562.198	6967
562.259	7655
562.320	7086
562.381	8188
562.442	8216
562.503	7059
562.564	7212
562.625	7200
562.686	6783
562.747	6037
562.808	6819
562.869	6039
562.930	6293
562.991	6052
563.051	6001
563.112	6670
563.173	6800
563.234	5450
563.294	6459
563.355	5673
563.416	6725
563.477	6425
563.537	6165
563.598	5503
563.659	5680
563.720	5375
563.780	6753
563.841	4989
563.901	6706
563.962	5978
564.023	5124
564.083	6065
564.144	5273
564.204	5666
564.265	4574
564.325	4603
564.386	6076
564.446	5239
564.507	5904
564.567	4951
564.628	6311
564.688	4843
564.749	4927
564.809	5470
564.869	6130
564.930	5128
564.990	5851
565.050	4844
565.111	5936
565.171	4841
565.231	6125
565.292	5737
565.352	4255
565.412	5275
565.472	5305
565.532	5528
565.593	5707
565.653	5782
565.713	6068
565.773	5775
565.833	5873
565.893	6015
565.953	5256
566.013	4947
566.074	4972
566.134	5281
566.194	5005
566.254	6127
566.314	5399
566.374	4298
566.434	4990
566.494	5284
566.554	5455
566.614	4489
566.673	5486
566.733	6592
566.793	6048
566.853	5443
566.913	5388
566.973	4901
567.033	6756
567.092	5474
567.152	5739
567.212	4815
567.272	5601
567.331	5126
567.391	5297
567.451	6449
567.511	6452
567.570	5209
567.630	6230
567.690	5491
567.749	5793
567.809	5239
567.868	5325
567.928	5563
567.988	5972
568.047	5917
568.107	6457
568.166	5463
568.226	6258
568.285	6519
568.345	6453
568.404	5360
568.464	5596
568.523	4913
568.582	6501
568.642	4943
568.701	5856
568.761	5256
568.820	5436
568.879	5382
568.939	5253
568.998	4877
569.057	5178
569.116	5179
569.176	4752
569.235	5798
569.294	6151
569.353	5006
569.413	5730
569.472	4479
569.531	4245
569.590	5406
569.649	5128
569.708	4566
569.767	5919
569.827	4908
569.886	4285
569.945	4907
570.004	4759
570.063	4569
570.122	5171
570.181	5614
570.240	6155
570.299	5435
570.358	6100
570.417	6464
570.475	5925
570.534	5758
570.593	6236
570.652	5258
570.711	5960
570.770	5816
570.829	6073
570.887	5536
570.946	6235
571.005	5015
571.064	6599
571.122	5622
571.181	6715
571.240	5216
571.299	5395
571.357	5026
571.416	5340
571.475	5341
571.533	5650
571.592	5528
571.650	5772
571.709	5717
571.768	7112
571.826	6644
571.885	7520
571.943	6397
572.002	5526
572.060	5126
572.119	5487
572.177	5582
572.236	5713
572.294	6488
572.352	6847
572.411	5137
572.469	6786
572.528	5595
572.586	6235
572.644	5983
572.703	6432
572.761	4700
572.819	5418
572.877	5438
572.936	5907
572.994	4759
573.052	5236
573.110	5592
573.169	5969
573.227	4601
573.285	5602
573.343	4850
573.401	5852
573.459	5240
573.517	5385
573.576	5373
573.634	6167
573.692	5112
573.750	5562
573.808	4602
573.866	4748
573.924	4869
573.982	5825
574.040	5343
574.098	5379
574.155	4648
574.213	5035
574.271	4623
574.329	5644
574.387	3671
574.445	4412
574.503	4215
574.560	4632
574.618	3813
574.676	4573
574.734	4106
574.792	3863
574.849	4601
574.907	3981
574.965	3257
575.022	3575
575.080	3011
575.138	3994
575.195	3191
575.253	3509
575.311	3673
575.368	4476
575.426	2567
575.483	4246
575.541	3628
575.598	3676
575.656	3800
575.713	3831
575.771	4253
575.828	2777
575.886	3455
575.943	3882
576.001	3558
576.058	3218
576.115	2982
576.173	3633
576.230	3662
576.287	3914
576.345	3798
576.402	4403
576.459	4030
576.517	3832
576.574	3541
576.631	4481
576.688	2548
576.746	3687
576.803	4382
576.860	3539
576.917	3700
576.974	4163
577.031	2567
577.089	4385
577.146	2408
577.203	2647
577.260	3663
577.317	3123
577.374	3582
577.431	3571
577.488	2478
577.545	3500
577.602	3895
577.659	4069
577.716	4100
577.773	4038
577.830	2864
577.886	2845
577.943	3584
578.000	3374
578.057	3113
578.114	4175
578.171	3301
578.227	3709
578.284	3288
578.341	3457
578.398	4129
578.454	3966
578.511	3108
578.568	4241
578.625	2495
578.681	3468
578.738	3297
578.794	3664
578.851	3146
578.908	3357
578.964	3038
579.021	3855
579.077	2501
579.134	4429
579.190	3764
579.247	4068
579.303	3262
579.360	2971
579.416	2831
579.473	4018
579.529	2717
579.586	4806
579.642	4066
579.698	4072
579.755	3347
579.811	3484
579.867	3941
579.924	3214
579.980	3596
580.036	3435
580.093	3790
580.149	4098
580.205	3524
580.261	3813
580.317	3586
580.374	4345
580.430	4463
580.486	4495
580.542	3129
580.598	4021
580.619	3937
580.654	3793
580.692	3732
580.710	3711
580.765	4573
580.767	4604
580.823	4608
580.838	4575
580.879	4508
580.911	4118
580.935	3832
580.984	3708
580.991	3699
581.047	4578
581.057	4520
581.103	4249
581.130	4327
581.159	4418
581.203	3853
581.215	3710
581.270	4738
581.276	4618
581.326	3500
581.349	3766
581.382	4161
581.422	4185
581.438	4184
581.494	3881
581.494	3868
581.550	2786
581.567	3116
581.606	3799
581.640	3113
581.661	2695
581.713	4427
581.717	4570
581.773	3574
581.786	3771
581.829	4319
581.859	4214
581.885	4193
581.932	4056
581.940	4036
581.996	4412
582.004	4367
582.052	3936
582.077	3892
582.107	3959
582.150	4006
582.163	3999
582.219	3495
582.223	3482
582.274	3409
582.296	3553
582.330	3764
582.368	4100
582.386	4296
582.441	3875
582.441	3874
582.497	3418
582.514	3333
582.552	3401
582.587	3818
582.608	4039
582.659	3426
582.663	3373
582.719	4346
582.732	4098
582.774	3329
582.805	3597
582.830	3847
582.877	3910
582.885	3918
582.941	3915
582.950	4006
582.996	4320
583.023	4017
583.052	3909
583.095	3888
583.107	3827
583.162	4114
583.168	4102
583.218	3993
583.240	4130
583.273	4173
583.313	3753
583.328	3724
583.384	3821
583.385	3827
583.439	3612
583.458	3556
583.494	3596
583.531	3556
583.549	3545
583.603	4072
583.605	4086
583.660	3447
583.676	3759
583.715	4470
583.748	4079
583.770	3925
583.820	3942
583.825	3912
583.881	4227
583.893	4156
583.936	4162
583.965	3777
583.991	3415
584.038	3989
584.046	4068
584.101	4301
584.110	4244
584.156	4025
584.183	3872
584.211	3671
584.255	3984
584.266	4115
584.321	4347
584.328	4404
584.376	4685
584.400	4584
584.431	4526
584.472	4983
584.486	5073
584.541	4876
584.545	4879
584.596	4944
584.617	4846
584.651	5031
584.689	5500
584.706	5547
584.761	5268
584.762	5268
584.816	5396
584.834	5508
584.871	5754
584.906	5751
584.926	5757
584.978	6093
584.980	6105
585.035	6266
585.051	6459
585.090	7218
585.123	7946
585.145	8323
585.195	9097
585.200	9209
585.254	10755
585.267	11099
585.309	12106
585.340	12992
585.364	13687
585.412	16027
585.419	16487
585.473	20670
585.484	21789
585.528	27735
585.556	33853
585.583	45697
585.628	74871
585.637	85383
585.692	171873
585.700	186829
585.747	238348
585.772	205732
585.801	130663
585.845	45935
585.856	35576
585.910	18715
585.917	17149
585.965	13552
585.989	12269
586.019	11265
586.061	9738
586.074	9358
586.128	8888
586.133	8859
586.183	8999
586.205	9028
586.237	8912
586.277	8867
586.292	8917
586.346	8802
586.349	8821
586.401	8921
586.421	8807
586.455	8734
586.493	8635
586.509	8590
586.564	8498
586.565	8499
586.618	9045
586.637	9447
586.672	10702
586.709	12306
586.727	12809
586.781	13510
586.781	13508
586.835	11010
586.853	10580
586.889	10236
586.925	9420
586.944	9164
586.996	9662
586.998	9676
587.052	9563
587.068	9702
587.106	9736
587.140	9427
587.161	9610
587.212	10172
587.215	10166
587.269	9243
587.284	9384
587.323	10080
587.356	10192
587.377	10160
587.427	10485
587.431	10529
587.485	10491
587.499	10718
587.539	11407
587.571	11695
587.593	11881
587.643	12211
587.648	12259
587.702	12494
587.715	12768
587.755	13141
587.786	12775
587.810	12512
587.858	12622
587.864	12727
587.917	13347
587.930	13448
587.971	13022
588.001	12854
588.025	12777
588.073	12818
588.079	12914
588.133	13487
588.145	13592
588.187	13272
588.217	13096
588.241	13287
588.288	13731
588.295	13773
588.348	14155
588.360	14197
588.402	13899
588.431	13727
588.456	14139
588.503	15556
588.510	15697
588.564	16123
588.575	16230
588.617	17085
588.646	18091
588.671	18800
588.718	19922
588.725	20175
588.778	22728
588.789	23638
588.832	33231
588.861	41074
588.886	57624
588.932	95170
588.939	99554
588.993	133603
589.004	132892
589.047	71583
589.075	37669
589.100	28856
589.147	19824
589.154	19519
589.207	17582
589.218	17230
589.261	17523
589.290	18140
589.314	18539
589.361	19505
589.368	20060
589.421	25254
589.433	26803
589.475	42799
589.504	55503
589.528	74059
589.576	115702
589.582	112908
589.635	61241
589.647	51205
589.689	29453
589.718	17960
589.742	17095
589.790	15908
589.795	15890
589.849	15499
589.861	15454
589.902	15137
589.932	14932
589.955	14809
590.004	14472
590.009	14500
590.062	14692
590.075	14796
590.115	14739
590.146	14567
590.168	14498
590.218	14489
590.222	14499
590.275	14212
590.289	14210
590.328	14865
590.360	15429
590.381	15324
590.431	15035
590.435	15070
590.488	15386
590.503	15556
590.541	15820
590.574	15894
590.594	15994
590.645	16311
590.647	16354
590.700	17211
590.716	17582
590.753	18077
590.787	18328
590.806	18453
590.859	18867
590.859	18880
590.912	18932
590.930	19037
590.965	19235
591.001	19231
591.018	19032
591.071	18633
591.072	18620
591.124	18842
591.143	18935
591.177	18869
591.214	18750
591.230	18907
591.283	19530
591.285	19535
591.336	19340
591.356	19328
591.389	19334
591.427	19275
591.442	19171
591.495	18749
591.498	18699
591.547	18803
591.569	18934
591.600	19424
591.640	19959
591.653	19949
591.706	19916
591.711	19899
591.759	20920
591.782	21454
591.811	21707
591.853	21954
591.864	22085
591.917	22665
591.924	22744
591.969	22691
591.995	22604
592.022	22451
592.066	22206
592.075	22310
592.127	22883
592.137	22979
592.180	23742
592.208	24223
592.233	24019
592.279	23598
592.285	23742
592.338	24910
592.350	25153
592.390	24328
592.421	23735
592.443	24552
592.491	26277
592.495	26256
592.548	25763
592.562	25618
592.600	26052
592.633	26418
592.653	26243
592.704	25633
592.705	25797
592.775	26724
592.846	27370
592.916	26996
592.987	27539
593.058	28344
593.128	28111
593.199	29666
593.270	29004
593.341	28600
593.411	31594
593.482	32508
593.553	32418
593.623	33653
593.694	34659
593.764	34724
593.835	34133
593.906	34368
593.976	35701
594.047	35870
594.117	37523
594.188	38984
594.258	39015
594.329	39793
594.399	40051
594.470	41430
594.540	41770
594.611	43733
594.681	42968
594.751	42600
594.822	44449
594.892	47000
594.963	47513
595.033	48983
595.103	49805
595.174	51682
595.244	51906
595.314	53177
595.384	54351
595.455	57112
595.525	58182
595.595	59806
595.665	61458
595.736	59436
595.806	61326
595.876	62793
595.946	62452
596.016	64568
596.087	67438
596.157	67207
596.227	67287
596.297	70325
596.367	75313
596.437	81341
596.507	80260
596.577	78523
596.647	81924
596.717	87042
596.787	87738
596.857	86005
596.927	89280
596.997	87441
597.067	88744
597.137	91850
597.207	91053
597.277	91857
597.347	87591
597.417	84878
597.487	84785
597.557	87039
597.626	88420
597.696	91896
597.766	89432
597.836	84700
597.906	80925
597.975	79239
598.045	80246
598.115	83891
598.185	90260
598.254	100667
598.324	109678
598.394	113262
598.464	107709
598.533	105096
598.603	98588
598.672	95213
598.742	97589
598.812	97986
598.881	100590
598.951	99580
599.020	101231
599.090	106233
599.159	107617
599.229	103384
599.299	99282
599.368	104785
599.437	102010
599.507	94146
599.576	90469
599.646	87537
599.715	88564
599.785	88066
599.854	83448
599.924	82183
599.993	82745
600.062	82967
600.132	87371
600.201	91521
600.270	105866
600.340	111849
600.409	110280
600.478	109762
600.547	112850
600.617	101226
600.686	79852
600.755	70668
600.824	68724
600.894	67243
600.963	66873
601.032	66345
601.101	62195
601.170	59772
601.239	57631
601.308	59552
601.378	57814
601.447	58310
601.516	58154
601.585	59784
601.654	59603
601.723	61001
601.792	61204
601.861	63749
601.930	65126
601.999	65751
602.068	67134
602.137	68841
602.206	67909
602.275	69037
602.343	70531
602.412	70006
602.481	70220
602.550	71242
602.619	73419
602.688	74578
602.756	74051
602.825	75578
602.894	76235
602.963	78840
603.032	79605
603.100	80161
603.169	80282
603.238	82978
603.307	81697
603.375	83553
603.444	85352
603.513	86928
603.581	87598
603.650	87740
603.719	88521
603.787	90648
603.856	92985
603.924	95808
603.993	99018
604.061	103136
604.130	108586
604.198	109067
604.267	111846
604.335	113182
604.404	115196
604.472	116762
604.541	116560
604.609	118925
604.678	118735
604.746	119594
604.815	124745
604.883	124512
604.951	125563
605.020	126536
605.088	130638
605.156	135205
605.225	136724
605.293	136789
605.361	134498
605.429	138154
605.498	141485
605.566	145128
605.634	151445
605.702	156908
605.771	161633
605.839	161833
605.907	159572
605.975	152925
606.043	150319
606.111	152520
606.180	150884
606.248	150105
606.316	149265
606.384	147592
606.452	149060
606.520	154314
606.588	158919
606.656	161671
606.724	158039
606.792	150742
606.860	136604
606.928	122335
606.996	118053
607.064	115747
607.132	119136
607.200	125974
607.267	130176
607.335	133493
607.403	135863
607.471	132341
607.539	127077
607.607	128735
607.674	112094
607.742	110143
607.810	110226
607.878	110201
607.946	112586
608.013	119828
608.081	122148
608.149	122408
608.216	127032
608.284	133148
608.352	131894
608.419	130455
608.487	127088
608.555	124302
608.622	129352
608.690	135536
608.757	152240
608.825	154924
608.893	148188
608.960	141114
609.028	137017
609.095	137183
609.163	135592
609.230	121769
609.298	109968
609.365	117802
609.432	127456
609.500	137229
609.567	156896
609.635	177907
609.702	189639
609.769	178663
609.837	138931
609.904	119812
609.971	120757
610.039	128433
610.106	148994
610.173	228575
610.241	442617
610.308	277245
610.375	141733
610.442	127655
610.509	122432
610.577	124464
610.644	125105
610.711	130963
610.778	132068
610.845	140143
610.912	147444
610.980	155212
611.047	153055
611.114	151342
611.181	148237
611.248	146384
611.315	154873
611.382	158430
611.449	164677
611.516	167079
611.583	165065
611.650	166499
611.717	166077
611.784	168956
611.851	171493
611.918	177267
611.984	193202
612.051	233944
612.118	358987
612.185	677158
612.252	481731
612.319	226411
612.386	205552
612.452	193037
612.519	186129
612.586	181133
612.653	186744
612.719	193764
612.786	187208
612.853	174642
612.919	171368
612.986	173749
613.053	164264
613.120	155705
613.186	149443
613.253	151310
613.319	151069
613.386	152987
613.453	155029
613.519	155062
613.586	151497
613.652	154639
613.719	152034
613.785	153971
613.852	157187
613.918	154293
613.985	154907
614.051	163598
614.118	161534
614.184	154738
614.250	154564
614.317	159451
614.383	156405
614.449	158992
614.516	158917
614.582	159950
614.648	156429
614.715	155399
614.781	152331
614.847	151873
614.914	150756
614.980	147854
615.046	146899
615.112	151871
615.179	152145
615.245	154989
615.311	152127
615.377	154758
615.443	156743
615.509	157698
615.575	161224
615.642	159688
615.708	163843
615.774	167268
615.840	173560
615.906	177125
615.972	193311
616.038	245796
616.104	407728
616.170	732451
616.236	633418
616.302	276135
616.368	236780
616.434	186868
616.500	180075
616.565	191416
616.631	226046
616.697	193611
616.763	194597
616.829	257922
616.895	405463
616.961	378958
617.026	200787
617.092	164838
617.158	160760
617.224	158399
617.289	148817
617.355	141341
617.421	141590
617.487	142353
617.552	135464
617.618	134237
617.684	134443
617.749	137276
617.815	130204
617.880	127483
617.946	127209
618.012	130945
618.077	134447
618.143	128609
618.208	130172
618.274	137871
618.339	139009
618.405	115934
618.470	116934
618.536	115792
618.601	114545
618.667	105707
618.732	102950
618.798	101402
618.863	98394
618.928	99461
618.994	100666
619.059	97416
619.124	100655
619.190	98887
619.255	98842
619.320	98307
619.386	98928
619.451	99256
619.516	96063
619.581	97027
619.647	99478
619.712	99701
619.777	96551
619.842	96803
619.907	97498
619.972	99650
620.038	100416
620.103	97178
620.168	97697
620.233	99866
620.298	100582
620.363	102622
620.428	104243
620.493	107167
620.558	106321
620.623	108558
620.688	107637
620.753	107929
620.818	109226
620.883	110601
620.948	109131
621.013	108294
621.078	105615
621.143	105813
621.207	108967
621.272	106198
621.337	102960
621.402	103048
621.467	101116
621.532	101577
621.596	102710
621.661	99273
621.726	98059
621.791	99546
621.855	99450
621.920	98528
621.985	99880
622.049	102110
622.114	102319
622.179	103571
622.243	104923
622.308	108811
622.373	113387
622.437	110455
622.502	105105
622.566	103637
622.631	102890
622.695	105716
622.760	104026
622.824	105624
622.889	105633
622.953	105374
623.018	112079
623.082	111886
623.147	109291
623.211	107763
623.276	110268
623.340	104852
623.404	102571
623.469	103779
623.533	103572
623.597	99832
623.662	100668
623.726	93357
623.790	88719
623.854	85415
623.919	88305
623.983	88463
624.047	90636
624.111	92114
624.176	92744
624.240	93035
624.304	96546
624.368	92939
624.432	93296
624.496	94860
624.560	100004
624.625	99215
624.689	99181
624.753	103886
624.817	99251
624.881	96992
624.945	88659
625.009	85612
625.073	88648
625.137	87958
625.201	92504
625.265	94058
625.329	88049
625.393	90739
625.456	91850
625.520	93916
625.584	95376
625.648	95924
625.712	98359
625.776	98128
625.839	92718
625.903	80999
625.967	73670
626.031	81098
626.095	93194
626.158	87509
626.222	69027
626.286	65062
626.349	62266
626.413	58076
626.477	58007
626.540	59686
626.604	56871
626.668	57253
626.731	55900
626.795	57262
626.858	55213
626.922	54748
626.986	54794
627.049	54487
627.113	57564
627.176	55219
627.240	53021
627.303	53695
627.366	51475
627.430	53665
627.493	51726
627.557	51440
627.620	53554
627.684	54975
627.747	54224
627.810	49562
627.874	46882
627.937	41717
628.000	46528
628.064	45007
628.127	38769
628.190	38846
628.253	39085
628.317	37283
628.380	34623
628.443	34445
628.506	33043
628.569	32740
628.632	30711
628.696	31784
628.759	30709
628.822	29263
628.885	27614
628.948	28348
629.011	27030
629.074	27120
629.137	25177
629.200	24229
629.263	25062
629.326	24258
629.389	23973
629.452	24342
629.515	24151
629.578	22795
629.641	23605
629.704	24087
629.767	23324
629.830	22751
629.892	23005
629.955	21394
630.018	24297
630.081	20982
630.144	23538
630.207	20695
630.269	22609
630.332	20542
630.395	21198
630.458	20471
630.520	18672
630.583	21046
630.646	20949
630.708	20354
630.771	20589
630.834	22727
630.896	22066
630.959	20497
631.021	19338
631.084	19653
631.146	20604
631.209	21371
631.272	19897
631.334	21167
631.397	19327
631.459	19736
631.522	21419
631.584	21351
631.646	23206
631.709	22667
631.771	22490
631.834	22989
631.896	22951
631.958	20647
632.021	20679
632.083	19413
632.145	19762
632.208	18191
632.270	19895
632.332	18617
632.395	17862
632.457	20038
632.519	18484
632.581	20076
632.643	17735
632.706	18794
632.768	17339
632.830	19928
632.892	19981
632.954	18911
633.016	20315
633.078	18651
633.141	18762
633.203	19716
633.265	18955
633.327	19818
633.389	18233
633.451	20131
633.513	17720
633.575	18891
633.637	18717
633.698	18768
633.760	21194
633.822	21346
633.884	21014
633.946	20917
634.008	21542
634.070	21055
634.132	22748
634.193	23162
634.255	25646
634.317	25553
634.379	26892
634.441	23433
634.502	21564
634.564	20654
634.626	18681
634.687	18939
634.749	18772
634.811	18615
634.873	17855
634.934	17313
634.996	18585
635.057	17007
635.119	16752
635.181	17996
635.242	20141
635.304	18122
635.365	20287
635.427	17768
635.488	18202
635.550	17021
635.611	18050
635.673	16786
635.734	20021
635.796	19946
635.857	21934
635.918	21111
635.980	24361
636.041	24552
636.102	25853
636.164	26913
636.225	25999
636.286	20166
636.348	20367
636.409	18831
636.470	17242
636.531	18176
636.593	16929
636.654	17635
636.715	16640
636.776	16708
636.838	16287
636.899	15901
636.960	15411
637.021	16299
637.082	14883
637.143	15595
637.204	14313
637.265	14049
637.326	14986
637.387	15829
637.448	13585
637.509	16113
637.570	15032
637.631	15760
637.692	14017
637.753	13525
637.814	14823
637.875	14106
637.936	14419
637.997	13622
638.058	13775
638.119	14750
638.179	14535
638.240	13664
638.301	14104
638.362	13795
638.423	13219
638.483	14443
638.544	12577
638.605	14161
638.666	12214
638.726	14359
638.787	14481
638.848	13004
638.908	13436
638.969	12822
639.030	12349
639.090	11984
639.151	13280
639.211	12696
639.272	13095
639.332	12908
639.393	12708
639.453	13552
639.514	14822
639.574	12180
639.635	11901
639.695	12741
639.756	11152
639.816	11846
639.877	11503
639.937	12701
639.997	12382
640.058	10405
640.118	11289
640.178	12311
640.239	11744
640.299	11844
640.359	12548
640.420	12039
640.480	14003
640.540	15142
640.600	14870
640.661	13695
640.721	12151
640.781	13812
640.841	10807
640.901	12869
640.961	12642
641.021	12988
641.082	12353
641.142	10692
641.202	13159
641.262	10452
641.322	12121
641.382	10419
641.442	12473
641.502	11304
641.562	12392
641.622	11812
641.682	12500
641.742	13108
641.802	11954
641.861	12153
641.921	11180
641.981	10921
642.041	10034
642.101	10331
642.161	8185
642.221	10165
642.280	11595
642.340	10712
642.400	10381
642.460	11895
642.519	11238
642.579	10476
642.639	11828
642.698	8699
642.758	12898
642.818	11302
642.877	10404
642.937	10984
642.997	10681
643.056	10699
643.116	9623
643.175	12998
643.235	10833
643.294	11718
643.354	11578
643.414	12506
643.473	14403
643.532	14602
643.592	18981
643.651	28292
643.711	46361
643.770	87933
643.830	201111
643.889	392184
643.948	111452
644.008	28206
644.067	17003
644.126	15035
644.186	12760
644.245	12891
644.304	9910
644.363	12924
644.423	9308
644.482	10310
644.541	10595
644.600	10644
644.659	14539
644.719	15382
644.778	22440
644.837	36129
644.896	73144
644.955	165046
645.014	55458
645.073	15817
645.132	11810
645.191	12180
645.250	11156
645.309	12188
645.368	12432
645.427	16544
645.486	25553
645.545	45825
645.604	14988
645.663	11037
645.722	8974
645.781	10935
645.840	11816
645.898	13221
645.957	18532
646.016	24384
646.075	44439
646.134	84535
646.192	216121
646.251	307535
646.310	56624
646.369	20136
646.427	17513
646.486	12851
646.545	10528
646.603	10949
646.662	9993
646.721	9649
646.779	9286
646.838	9210
646.896	11541
646.955	14663
647.014	22842
647.072	41898
647.131	113302
647.189	54098
647.248	10706
647.306	10153
647.365	8561
647.423	7222
647.481	8746
647.540	6841
647.598	7970
647.657	7744
647.715	8425
647.773	6970
647.832	8233
647.890	5775
647.948	6369
648.007	6872
648.065	5286
648.123	5016
648.181	7425
648.240	6652
648.298	4853
648.356	5938
648.414	5788
648.472	6319
648.531	6265
648.589	5350
648.647	5642
648.705	5873
648.763	5206
648.821	6099
648.879	4817
648.937	6483
648.995	7709
649.053	8791
649.111	12518
649.169	20321
649.227	37654
649.285	77262
649.343	219452
649.401	103808
649.459	14760
649.516	9713
649.574	6398
649.632	7518
649.690	7715
649.748	11135
649.806	14240
649.863	28339
649.921	81108
649.979	52761
650.037	8775
650.094	3832
650.152	5665
650.210	4578
650.268	4381
650.325	4205
650.383	3536
650.440	2869
650.498	4294
650.556	4381
650.613	3780
650.671	4301
650.728	3629
650.786	4328
650.843	5943
650.901	3805
650.958	3481
651.016	4062
651.073	2715
651.131	3001
651.188	2390
651.246	3386
651.303	1911
651.360	3499
651.418	2903
651.475	2902
651.532	2502
651.590	3545
651.647	2549
651.704	3217
651.762	2308
651.819	2618
651.876	1792
651.933	2130
651.990	3017
652.048	1109
652.105	2111
652.162	2977
652.219	1814
652.276	2604
652.333	2805
652.390	1941
652.448	1845
652.505	1786
652.562	2353
652.619	2716
652.676	2514
652.733	2954
652.790	1876
652.847	299
652.904	2138
652.961	1342
653.017	740
653.074	2070
653.131	1796
653.188	1467
653.245	1870
653.302	1606
653.359	1988
653.415	1843
653.472	1492
653.529	2038
653.586	733
653.642	1702
653.699	1840
653.756	1502
653.813	1185
653.869	2782
653.926	1983
653.983	774
654.039	2491
654.096	1820
654.152	2041
654.209	641
654.266	1918
654.322	511
654.379	1989
654.435	2424
654.492	1917
654.548	1657
654.605	1122
654.661	2148
654.717	737
654.774	1279
654.830	1394
654.887	1507
654.943	1631
655.000	1108
655.056	1688
655.112	1725
655.168	-174
655.225	1352
655.281	1668
655.337	1300
655.394	144
655.450	1061
655.506	983
655.562	869
655.618	2575
655.675	513
655.731	821
655.787	537
655.843	1587
655.899	848
655.955	2289
656.011	1730
656.067	1088
656.123	1791
656.179	1061
656.235	1912
656.291	-118
656.347	2301
656.403	1187
656.459	537
656.515	688
656.571	897
656.627	997
656.683	860
656.739	2316
656.795	706
656.850	1295
656.906	1097
656.962	2365
657.018	587
657.074	2321
657.129	3636
657.185	6155
657.241	15330
657.297	7511
657.352	1473
657.408	986
657.464	1785
657.519	1158
657.575	521
657.630	662
657.686	738
657.742	424
657.797	955
657.853	685
657.908	1601
657.964	476
658.019	1018
658.075	1196
658.130	990
658.186	238
658.241	1453
658.297	429
658.352	272
658.407	1253
658.463	406
658.518	1262
658.573	1361
658.629	291
658.684	1243
658.739	676
658.795	-130
658.850	1352
658.905	547
658.960	1196
659.016	358
659.071	478
659.126	734
659.181	1150
659.236	1160
659.291	1224
659.346	677
659.401	323
659.457	1088
659.512	-162
659.567	789
659.622	989
659.677	-94
659.732	-1225
659.787	581
659.842	324
659.897	302
659.952	776
660.007	760
660.061	930
660.116	234
660.171	-479
660.226	505
660.281	1148
660.336	663
660.391	339
660.445	399
660.500	1637
660.555	1182
660.610	-578
660.664	353
660.719	42
660.774	585
660.828	844
660.883	369
660.938	861
660.992	-647
661.047	1135
661.101	622
661.156	86
661.211	-141
661.265	511
661.320	737
661.374	0
661.429	-144
661.483	913
661.538	-685
661.592	679
661.647	958
661.701	833
661.755	652
661.810	578
661.864	-259
661.919	-191
661.973	1050
662.027	-524
662.081	-342
662.136	-63
662.190	698
662.244	-41
662.299	28
662.353	730
662.407	335
662.461	200
662.515	1440
662.569	-100
662.624	250
662.678	-725
662.732	-412
662.786	-6
662.840	404
662.894	409
662.948	290
663.002	-291
663.056	887
663.110	-86
663.164	-1
663.218	504
663.272	1130
663.326	296
663.380	277
663.434	1168
663.488	502
663.542	617
663.595	125
663.649	-127
663.703	239
663.757	962
663.811	281
663.864	-342
663.918	703
663.972	383
664.026	280
664.079	182
664.133	451
664.187	-186
664.240	-269
664.294	-307
664.348	1093
664.401	512
664.455	665
664.508	586
664.562	408
664.615	-765
664.669	-547
664.722	299
664.776	606
664.829	-122
664.883	183
664.936	-322
664.990	-493
665.043	766
665.097	340
665.150	595
665.203	-95
665.257	140
665.310	147
665.363	-61
665.417	-122
665.470	419
665.523	238
665.576	212
665.630	-225
665.683	570
665.736	185
665.789	183
665.842	-2
665.895	8
665.949	-32
666.002	488
666.055	275
666.108	325
666.161	808
666.214	382
666.267	1023
666.320	679
666.373	1042
666.426	-87
666.479	827
666.532	-117
666.585	387
666.638	839
666.691	342
666.744	397
666.796	-307
666.849	117
666.902	616
666.955	399
667.008	31
667.060	134
667.113	-20
667.166	105
667.219	744
667.271	468
667.324	201
667.377	-116
667.430	597
667.482	852
667.535	97
667.587	-61
667.640	75
667.693	250
667.745	-47
667.798	389
667.850	456
667.903	681
667.955	431
668.008	904
668.060	550
668.113	341
668.165	123
668.218	763
668.270	310
668.322	85
668.375	-809
668.427	897
668.479	-485
668.532	283
668.584	316
668.636	-502
668.689	154
668.741	-21
668.793	664
668.845	-314
668.898	95
668.950	151
669.002	-757
669.054	63
669.106	-161
669.158	393
669.211	612
669.263	-67
669.315	670
669.367	300
669.419	-406
669.471	447
669.523	-45
669.575	-6
669.627	-111
669.679	-663
669.731	104
669.783	260
669.835	-312
669.886	-340
669.938	-191
669.990	337
670.042	-601
670.094	356
670.146	-202
670.197	-213
670.249	79
670.301	-1087
670.353	220
670.404	517
670.456	444
670.508	-645
670.560	1312
670.611	848
670.663	2380
670.715	7147
670.766	9709
670.818	2225
670.869	325
670.921	172
670.972	664
671.024	-281
671.075	-8
671.127	164
671.178	-50
671.230	296
671.281	462
671.333	983
671.384	792
671.436	666
671.487	2440
671.538	4741
671.590	8776
671.641	16086
671.692	31542
671.744	62335
671.795	36414
671.846	9068
671.897	3752
671.949	1858
672.000	1545
672.051	-24
672.102	1142
672.153	69
672.204	-565
672.256	-65
672.307	50
672.358	-597
672.409	-763
672.460	-864
672.511	-395
672.562	-401
672.613	-1364
672.664	162
672.715	-155
672.766	-983
672.817	260
672.868	-740
672.919	-561
672.970	5
673.021	-558
673.071	-1373
673.122	-200
673.173	-109
673.224	-37
673.275	-611
673.326	-1096
673.376	-336
673.427	-1242
673.478	-367
673.528	-415
673.579	-947
673.630	-195
673.680	159
673.731	-329
673.782	-22
673.832	-777
673.883	-288
673.934	-669
673.984	-1058
674.035	-19
674.085	-296
674.136	-769
674.186	-1043
674.237	-58
674.287	-336
674.338	-835
674.388	-834
674.438	-1044
674.489	-392
674.539	392
674.589	-1264
674.640	-486
674.690	-1450
674.740	-439
674.791	-823
674.841	-597
674.891	-794
674.942	-535
674.992	-1508
675.042	-1698
675.092	-442
675.142	-1426
675.193	-1338
675.243	-972
675.293	-157
675.343	-1029
675.393	-896
675.443	-153
675.493	-513
675.543	-1025
675.593	-748
675.643	-861
675.693	-761
675.743	-871
675.793	-483
675.843	-1144
675.893	-772
675.943	34
675.993	-1552
676.043	-1367
676.093	-1132
676.142	-1315
676.192	-774
676.242	-1021
676.292	-1023
676.341	-1773
676.391	-1036
676.441	-2030
676.491	-871
676.540	-867
676.590	-783
676.640	20
676.689	-668
676.739	-1563
676.789	-1075
676.838	-1306
676.888	-471
676.937	-1504
676.987	-760
677.037	-1140
677.086	-1081
677.136	-1396
677.185	-579
677.235	-860
677.284	-652
677.333	-1878
677.383	-1623
677.432	-2030
677.482	-1158
677.531	-808
677.580	-1675
677.630	-1802
677.679	-1386
677.728	-1300
677.778	-818
677.827	-1261
677.876	-924
677.925	-1833
677.975	-951
678.024	-1390
678.073	-1033
678.122	-466
678.171	-992
678.220	-1815
678.269	-874
678.319	-470
678.368	-1559
678.417	-864
678.466	-1078
678.515	-1353
678.564	-1493
678.613	-984
678.662	-1022
678.711	-1833
678.760	-1285
678.809	-1150
678.857	-1375
678.906	-1206
678.955	-1099
679.004	-876
679.053	-1299
679.102	-1661
679.151	-1833
679.199	-1444
679.248	-1039
679.297	-1301
679.346	-467
679.394	-1459
679.443	-1175
679.492	-813
679.540	-893
679.589	-1477
679.638	-1738
679.686	-737
679.735	-630
679.784	-1235
679.832	-974
679.881	-917
679.929	-1575
679.978	-1568
680.026	-1334
680.075	-1112
680.123	-1110
680.172	-1923
680.220	-1524
680.268	-1056
680.317	-1499
680.365	-1237
680.414	-1838
680.462	-911
680.510	-835
680.559	-1679
680.607	-1487
680.655	-555
680.703	-1328
680.752	-1831
680.800	-1146
680.848	-2398
680.896	-1104
680.945	-1238
680.993	-2079
681.041	-2281
681.089	-482
681.137	-1338
681.185	-1601
681.233	-1522
681.258	-1588
681.281	-1685
681.329	-1520
681.377	-1590
681.380	-1523
681.425	-898
681.473	-806
681.502	-985
681.521	-1168
681.569	-1456
681.617	-887
681.624	-937
681.665	-1542
681.713	-222
681.745	-784
681.761	-1094
681.809	-936
681.857	-15
681.867	-150
681.904	-792
681.952	-724
681.989	-414
682.000	-355
682.048	-972
682.096	-936
682.111	-758
682.143	-488
682.191	-176
682.233	521
682.239	588
682.286	120
682.334	-350
682.354	-69
682.382	248
682.430	583
682.476	243
682.477	204
682.525	257
682.572	88
682.598	602
682.620	1008
682.667	1030
682.715	680
682.720	702
682.763	597
682.810	1142
682.841	1030
682.857	925
682.905	397
682.952	1794
682.963	1744
683.000	1416
683.047	476
683.085	1828
683.095	2183
683.142	1393
683.190	1684
683.206	1802
683.237	1885
683.284	1743
683.328	723
683.332	616
683.379	2207
683.426	1397
683.449	1714
683.473	1990
683.521	2017
683.568	1579
683.571	1650
683.615	2286
683.662	2470
683.693	2303
683.709	2132
683.757	1759
683.804	2262
683.814	2246
683.851	2173
683.898	2566
683.936	2091
683.945	1958
683.992	2722
684.039	2928
684.057	2741
684.086	2325
684.133	2609
684.179	2241
684.180	2211
684.227	2721
684.274	2897
684.300	2972
684.321	3023
684.368	2473
684.415	3081
684.422	3089
684.462	2982
684.509	2267
684.543	3004
684.556	3261
684.603	3402
684.649	3937
684.665	3915
684.696	3805
684.743	2882
684.786	4059
684.790	4127
684.837	3648
684.883	3855
684.908	3780
684.930	3800
684.977	4218
685.023	4396
685.029	4405
685.070	4221
685.117	4110
685.150	4006
685.164	3964
685.210	3947
685.257	4409
685.272	4697
685.303	5216
685.350	4294
685.393	4432
685.396	4423
685.443	4417
685.490	4520
685.514	4303
685.536	4146
685.583	4275
685.629	4303
685.636	4350
685.675	4617
685.722	4481
685.757	4969
685.768	5097
685.815	4110
685.861	4689
685.878	4665
685.908	4720
685.954	4825
686.000	5599
686.000	5601
686.047	4855
686.093	5335
686.121	5389
686.139	5446
686.185	5260
686.232	5889
686.242	5897
686.278	5772
686.324	5339
686.363	5723
686.370	5793
686.416	5460
686.463	5719
686.484	5668
686.509	5702
686.555	5645
686.601	5862
686.606	5933
686.647	6378
686.693	6079
686.727	5888
686.739	5797
686.785	6132
686.831	5868
686.848	6028
686.877	6338
686.923	6305
686.969	5859
686.969	5857
687.015	6637
687.061	7319
687.090	7188
687.107	6882
687.153	7380
687.199	6977
687.211	6853
687.245	6752
687.291	6718
687.332	6448
687.336	6417
687.382	7011
687.428	6685
687.453	7011
687.474	7266
687.520	7552
687.565	7095
687.574	7017
687.611	6901
687.657	7169
687.695	7423
687.702	7474
687.748	8209
687.794	8641
687.816	8607
687.839	8404
687.885	8190
687.931	8380
687.937	8316
687.976	8068
688.022	8013
688.058	8198
688.067	8219
688.113	7915
688.158	7862
688.179	7763
688.204	7833
688.249	8256
688.295	8148
688.300	8161
688.340	8113
688.386	8422
688.421	7779
688.431	7661
688.477	8342
688.522	8608
688.542	8691
688.567	8814
688.613	8934
688.658	9163
688.663	9156
688.703	9013
688.749	9413
688.784	9068
688.794	9005
688.839	9284
688.884	9733
688.905	9663
688.930	9450
688.975	9689
689.020	9274
689.026	9232
689.065	9303
689.110	9343
689.146	9429
689.155	9402
689.201	8876
689.246	9428
689.267	9120
689.291	8950
689.336	9484
689.381	9299
689.388	9319
689.426	9503
689.471	9455
689.509	9886
689.516	9994
689.561	9915
689.606	10053
689.630	10087
689.651	9916
689.696	9434
689.741	9448
689.750	9358
689.785	9518
689.830	9475
689.871	9885
689.875	9920
689.920	10095
689.965	10290
689.992	10000
690.010	9788
690.054	9526
690.099	9802
690.112	9727
690.144	9859
690.189	9989
690.233	9950
690.233	9965
690.278	10029
690.323	10065
690.354	9784
690.367	9811
690.412	10030
690.457	9960
690.474	10247
690.501	10506
690.546	10147
690.590	10052
690.595	9993
690.635	10027
690.680	10372
690.716	10308
690.724	10265
690.769	10655
690.813	10686
690.836	10562
690.857	10512
690.902	10397
690.946	10521
690.957	10507
690.991	10638
691.035	10868
691.077	11036
691.080	11070
691.124	11207
691.168	11324
691.198	11441
691.213	11404
691.257	11556
691.301	11219
691.318	11271
691.346	11481
691.390	11114
691.434	10806
691.439	10789
691.478	10807
691.522	10936
691.559	10503
691.567	10546
691.611	11310
691.655	11525
691.680	11955
691.699	12067
691.743	12005
691.787	11836
691.800	11699
691.831	11607
691.875	11700
691.919	12317
691.921	12288
691.964	11849
692.008	11500
692.041	11363
692.052	11483
692.096	11545
692.139	12031
692.162	12146
692.183	12198
692.227	12560
692.271	12479
692.282	12429
692.315	12112
692.359	12139
692.402	12020
692.403	12050
692.447	11659
692.490	12578
692.523	12366
692.534	12203
692.578	12039
692.622	11748
692.643	11527
692.666	11681
692.709	12139
692.753	12433
692.763	12577
692.797	12760
692.840	12155
692.884	12301
692.884	12333
692.928	12628
692.971	12235
693.004	12431
693.015	12486
693.059	12278
693.102	12342
693.124	12284
693.146	12321
693.189	11973
693.233	12363
693.245	12256
693.276	12217
693.320	12736
693.363	12433
693.365	12422
693.407	12868
693.450	12441
693.485	12758
693.493	12893
693.537	13059
693.580	12920
693.605	12987
693.624	12866
693.667	12561
693.710	12143
693.725	12002
693.753	12267
693.797	12337
693.840	12501
693.845	12537
693.883	12716
693.926	12656
693.966	12189
693.970	12229
694.013	13051
694.056	13505
694.086	13789
694.099	13762
694.142	13266
694.185	13235
694.206	13096
694.229	13307
694.272	13580
694.315	14030
694.326	14103
694.358	14225
694.401	14052
694.444	14035
694.446	14000
694.487	14059
694.530	14092
694.566	13959
694.573	13968
694.616	13876
694.659	13976
694.686	13984
694.702	14181
694.745	14371
694.787	14682
694.806	14778
694.830	14723
694.873	14501
694.916	14472
694.926	14355
694.959	14643
695.002	15256
695.044	15713
695.046	15694
695.087	16114
695.130	16288
695.166	16763
695.172	16810
695.215	16283
695.258	15974
695.286	15908
695.301	16224
695.343	16789
695.386	17390
695.406	17601
695.428	18174
695.471	19162
695.514	20185
695.526	20479
695.556	21700
695.599	23257
695.641	24686
695.646	24795
695.684	23640
695.726	22133
695.766	20787
695.769	20820
695.811	20467
695.854	19955
695.886	19737
695.896	19945
695.938	20350
695.981	20824
696.005	21078
696.023	21634
696.065	22776
696.108	24025
696.125	24367
696.150	24590
696.192	25081
696.235	25583
696.245	25640
696.277	25678
696.319	25518
696.361	25559
696.365	25479
696.404	25121
696.446	24664
696.485	24330
696.488	24409
696.530	24399
696.572	24478
696.604	24481
696.614	24491
696.656	24219
696.698	24046
696.724	23746
696.740	23931
696.783	24534
696.825	24873
696.844	25018
696.867	25063
696.909	24983
696.951	24861
696.964	24799
696.992	25415
697.034	26076
697.076	26875
697.083	26916
697.118	27478
697.160	28077
697.202	28754
697.203	28695
697.244	28542
697.286	28232
697.323	27883
697.327	27954
697.369	27948
697.411	27977
697.442	27835
697.453	27894
697.494	27898
697.536	27890
697.562	27793
697.578	27856
697.620	27837
697.661	27764
697.682	27723
697.703	28412
697.744	29503
697.786	30675
697.801	30989
697.828	30889
697.869	30573
697.911	30303
697.921	30158
697.952	30009
697.994	29630
698.035	29347
698.040	29228
698.077	29666
698.118	30025
698.160	30449
698.160	30367
698.201	31698
698.243	33006
698.279	34089
698.284	34182
698.325	34174
698.367	34161
698.399	33995
698.408	34222
698.449	34872
698.491	35534
698.518	35862
698.532	35962
698.573	35977
698.614	35990
698.638	35905
698.656	35986
698.697	35916
698.738	35880
698.757	35743
698.779	35864
698.820	35934
698.862	35991
698.877	35917
698.903	35976
698.944	35898
698.985	35824
698.996	35705
699.026	35546
699.067	35187
699.116	34661
699.235	35667
699.354	34773
699.474	32686
699.593	32204
699.713	32805
699.832	32955
699.951	34257
700.070	33296
700.190	32803
700.309	31379
700.428	30604
700.547	30037
700.667	30315
700.786	29745
700.905	28564
701.024	29717
701.143	27935
701.262	30600
701.381	29887
701.500	31513
701.619	29106
701.738	31031
701.857	30445
701.976	28507
702.095	28448
702.214	30462
702.333	27645
702.452	30294
702.571	29996
702.690	29186
702.809	29541
702.928	27755
703.047	26477
703.165	26987
703.284	26373
703.403	25950
703.522	25988
703.640	25619
703.759	25493
703.878	24899
703.997	24987
704.115	25233
704.234	24603
704.353	25873
704.471	23085
704.590	23244
704.708	22554
704.827	22998
704.946	22587
705.064	24253
705.183	21881
705.301	23718
705.420	21776
705.538	22652
705.656	20276
705.775	20055
705.893	20791
706.012	21728
706.130	21788
706.249	22027
706.367	21540
706.485	20940
706.604	19721
706.722	19155
706.840	21745
706.958	21977
707.077	20143
707.195	19302
707.313	19384
707.431	18550
707.549	18356
707.668	17300
707.786	19662
707.904	17600
708.022	18796
708.140	18508
708.258	17709
708.376	19946
708.494	16976
708.612	19483
708.730	18416
708.848	17381
708.966	18689
709.084	18165
709.202	19007
709.320	16258
709.438	16932
709.556	17485
709.674	15671
709.791	15722
709.909	15268
710.027	16340
710.145	15979
710.263	15845
710.380	15931
710.498	15753
710.616	14913
710.733	15109
710.851	15170
710.969	15397
711.086	13705
711.204	16595
711.322	15129
711.439	15650
711.557	13101
711.674	14460
711.792	14521
711.909	13790
712.027	13370
712.144	14181
712.262	14114
712.379	14681
712.497	13726
712.614	13544
712.732	13568
712.849	13434
712.966	14786
713.084	14659
713.201	12857
713.318	12913
713.436	14926
713.553	12521
713.670	13637
713.787	12962
713.905	12397
714.022	12446
714.139	14193
714.256	14838
714.373	18914
714.490	31140
714.608	71751
714.725	263481
714.842	251047
714.959	33954
715.076	17254
715.193	15733
715.310	14576
715.427	12245
715.544	12699
715.661	12380
715.778	11294
715.895	12052
716.011	11852
716.128	11801
716.245	12279
716.362	11259
716.479	10553
716.596	11192
716.713	10894
716.829	11864
716.946	10851
717.063	10412
717.180	10342
717.296	11204
717.413	10764
717.530	10714
717.646	9364
717.763	10231
717.880	10781
717.996	10240
718.113	9437
718.229	10735
718.346	9180
718.462	9764
718.579	9561
718.695	9676
718.812	9378
718.928	9690
719.045	8921
719.161	8820
719.277	9444
719.394	11434
719.510	10112
719.626	9473
719.743	11797
719.859	15552
719.975	27931
720.092	98281
720.208	207657
720.324	30210
720.440	12020
720.557	10757
720.673	10057
720.789	10091
720.905	8111
721.021	9280
721.137	7909
721.253	7397
721.369	8337
721.486	9186
721.602	7500
721.718	8343
721.834	8629
721.950	8064
722.066	7391
722.181	8942
722.297	8140
722.413	7965
722.529	7841
722.645	8051
722.761	8156
722.877	7966
722.993	7542
723.108	9355
723.224	8152
723.340	7900
723.456	6891
723.571	6976
723.687	6985
723.803	6651
723.918	7672
724.034	6786
724.150	6840
724.265	7159
724.381	6698
724.497	6583
724.612	7821
724.728	7026
724.843	6961
724.959	7235
725.074	7382
725.190	6824
725.305	6558
725.421	6952
725.536	7016
725.651	7992
725.767	6871
725.882	7497
725.997	6423
726.113	7783
726.228	6344
726.343	7243
726.459	6117
726.574	7042
726.689	7166
726.804	7406
726.920	6921
727.035	6596
727.150	6979
727.265	7205
727.380	7345
727.495	7133
727.610	6347
727.725	6676
727.841	6506
727.956	6739
728.071	6967
728.186	6655
728.301	5170
728.416	7776
728.531	6460
728.645	6315
728.760	6280
728.875	7043
728.990	6377
729.105	6405
729.220	6240
729.335	7222
729.449	6808
729.564	5629
729.679	5840
729.794	6777
729.908	6382
730.023	6717
730.138	6547
730.253	7034
730.367	6238
730.482	6429
730.596	6070
730.711	7260
730.826	10336
730.940	9958
731.055	8224
731.169	8694
731.284	8223
731.398	9024
731.513	8891
731.627	10124
731.742	12842
731.856	16092
731.970	14088
732.085	16328
732.199	20419
732.313	31414
732.428	71854
732.542	205234
732.656	124019
732.771	28883
732.885	20292
732.999	19713
733.113	22215
733.227	21583
733.342	20860
733.456	20959
733.570	20231
733.684	19391
733.798	18712
733.912	17171
734.026	18310
734.140	18490
734.254	17421
734.368	18290
734.482	18235
734.596	17837
734.710	17772
734.824	17319
734.938	16999
735.052	17864
735.166	16712
735.280	16752
735.393	16213
735.507	16561
735.621	15337
735.735	15438
735.849	17014
735.962	14811
736.076	16429
736.190	15022
736.303	16216
736.417	15891
736.531	14482
736.644	15089
736.758	14891
736.872	15329
736.985	14290
737.099	14449
737.212	13743
737.326	14333
737.439	14885
737.553	13243
737.666	13548
737.780	12786
737.893	14018
738.007	12562
738.120	14606
738.233	12154
738.347	14410
738.460	12343
738.573	14182
738.687	12387
738.800	12708
738.913	13235
739.026	13439
739.140	12208
739.253	12997
739.366	12212
739.479	12134
739.592	12469
739.705	10787
739.818	13602
739.932	11385
740.045	12221
740.158	11622
740.271	12504
740.384	12418
740.497	9921
740.610	12387
740.723	11205
740.836	11685
740.949	11372
741.062	11889
741.174	10858
741.287	10580
741.400	11944
741.513	9485
741.626	11497
741.739	10621
741.851	10304
741.964	11589
742.077	10235
742.189	8660
742.302	10507
742.415	10875
742.527	10235
742.640	10503
742.753	8958
742.865	10094
742.978	10194
743.090	8994
743.203	9464
743.316	9191
743.428	9864
743.541	9991
743.653	9006
743.766	9531
743.878	9898
743.990	7558
744.103	8924
744.215	8748
744.327	8232
744.440	10987
744.552	9231
744.664	8095
744.777	9225
744.889	8765
745.001	8180
745.113	9409
745.226	8522
745.338	7472
745.450	9790
745.562	8143
745.674	7923
745.786	9390
745.898	9701
746.010	7742
746.122	8720
746.234	9032
746.347	8734
746.459	8529
746.570	6368
746.682	8793
746.794	9353
746.906	6636
747.018	7318
747.130	8460
747.242	7207
747.354	7785
747.466	8816
747.577	7721
747.689	7802
747.801	8213
747.913	6850
748.024	6924
748.136	6686
748.248	6547
748.359	7593
748.471	7900
748.583	6747
748.694	6468
748.806	7947
748.918	7348
749.029	7627
749.141	7202
749.252	6781
749.364	5225
749.475	6956
749.587	5928
749.698	5954
749.809	6652
749.921	6361
750.032	6215
750.144	5988
750.255	5466
750.366	6520
750.478	5461
750.589	7292
750.700	5802
750.811	6870
750.923	6407
751.034	5039
751.145	6744
751.256	5686
751.367	5786
751.479	5904
751.590	5588
751.701	5494
751.812	5907
751.923	5197
752.034	7302
752.145	5784
752.256	5867
752.367	5480
752.478	5932
752.589	6033
752.700	6122
752.811	5590
752.922	5582
753.032	5205
753.143	5591
753.254	4650
753.365	5834
753.476	5968
753.586	5529
753.697	4770
753.808	5914
753.919	5241
754.029	5845
754.140	4721
754.251	5836
754.361	4498
754.472	6361
754.582	4890
754.693	4763
754.804	6515
754.914	5059
755.025	4783
755.135	5423
755.246	6411
755.356	4894
755.466	4796
755.577	5372
755.687	5087
755.798	4174
755.908	4528
756.018	4688
756.129	5545
756.239	5689
756.349	4873
756.460	4672
756.570	5302
756.680	4610
756.790	4894
756.900	5631
757.011	4577
757.121	3964
757.231	4901
757.341	5886
757.451	4115
757.561	3641
757.671	4841
757.781	5382
757.891	5038
758.001	3682
758.111	4998
758.221	4951
758.331	5971
758.441	4204
758.551	4568
758.661	4720
758.771	5100
758.880	4836
758.990	3552
759.100	4254
759.210	4675
759.320	5482
759.429	4504
759.539	4839
759.649	4753
759.758	5910
759.868	5192
759.978	5515
760.087	5894
760.197	6038
760.307	5478
760.416	5456
760.526	4293
760.635	4710
760.745	5820
760.854	5953
760.964	7038
761.073	5436
761.182	6473
761.292	5209
761.401	5055
761.511	3895
761.620	3992
761.729	4269
761.839	3451
761.948	4467
762.057	3694
762.166	4199
762.276	3734
762.385	4345
762.494	3869
762.603	3571
762.712	3884
762.822	4363
762.931	3176
763.040	2291
763.149	3003
763.258	3923
763.367	4015
763.476	3317
763.585	3495
763.694	3586
763.803	3008
763.912	3415
764.021	3098
764.130	3375
764.238	4247
764.347	3574
764.456	4110
764.565	3569
764.674	2556
764.783	2882
764.891	3301
765.000	3880
765.109	4008
765.217	3055
765.326	3404
765.435	3418
765.543	3891
765.652	3492
765.761	2873
765.869	3571
765.978	3855
766.086	3852
766.195	4982
766.303	10263
766.412	38165
766.520	36330
766.629	4673
766.737	4397
766.846	4100
766.954	2593
767.062	3437
767.171	2987
767.279	3159
767.387	3081
767.496	3039
767.604	2547
767.712	3755
767.820	3401
767.928	3279
768.037	3079
768.145	3226
768.253	3363
768.361	3124
768.469	2370
768.577	1990
768.685	3763
768.793	3558
768.901	2661
769.009	2997
769.117	3243
769.225	2549
769.333	3633
769.441	3719
769.549	4566
769.657	5753
769.765	13525
769.873	38705
769.981	9779
770.088	3717
770.196	3849
770.304	4027
770.412	3811
770.519	4852
770.627	4455
770.735	4584
770.842	4693
770.950	4554
771.058	5452
771.165	5751
771.273	7190
771.380	6883
771.488	10216
771.595	12063
771.703	10451
771.810	9545
771.918	10444
772.025	12637
772.133	14531
772.240	12686
772.348	16441
772.455	15435
772.562	13341
772.670	12551
772.777	13939
772.884	13038
772.991	12853
773.099	13858
773.206	11880
773.313	13294
773.420	11577
773.528	12599
773.635	11591
773.742	13662
773.849	11034
773.956	12554
774.063	10797
774.170	12850
774.277	12170
774.384	10831
774.491	11191
774.598	11623
774.705	11709
774.812	10839
774.919	10960
775.026	11071
775.133	10967
775.239	11042
775.346	10849
775.453	10740
775.560	9535
775.667	10890
775.773	9710
775.880	10864
775.987	10896
776.093	10332
776.200	12102
776.307	7884
776.413	9754
776.520	11919
776.627	10189
776.733	8801
776.840	7198
776.946	13142
777.053	8903
777.159	9233
777.266	7666
777.372	9495
777.478	10157
777.585	9263
777.691	8143
777.798	9376
777.904	8194
778.010	7900
778.117	9761
778.223	8454
778.329	8851
778.435	8395
778.542	9619
778.648	8675
778.754	7645
778.860	8678
778.966	8546
779.072	8188
779.178	8278
779.284	6980
779.391	6967
779.497	8236
779.603	9933
779.708	6993
779.815	6331
779.920	8474
780.026	6141
780.132	8046
780.238	7246
780.344	6506
780.450	10022
780.556	6857
780.661	6410
780.767	8685
780.873	5578
780.979	6377
781.085	7765
781.190	6330
781.296	6488
781.402	7040
781.507	8311
781.613	5397
781.719	6526
781.824	7681
781.930	7344
782.035	6519
782.141	8284
782.246	4848
782.352	5183
782.457	6292
782.563	5971
782.668	7742
782.773	5851
782.879	5984
782.984	6241
783.090	5782
783.195	6068
783.300	7446
783.405	5567
783.511	5091
783.616	5424
783.721	6028
783.826	5714
783.932	4846
784.037	5507
784.142	5815
784.247	5238
784.352	5716
784.457	4054
784.562	4995
784.667	6499
784.772	4551
784.877	3442
784.982	6052
785.087	5928
785.192	4724
785.297	4422
785.402	5700
785.507	4963
785.611	5402
785.716	4416
785.821	5728
785.926	5199
786.031	4330
786.135	5066
786.240	5065
786.345	3272
786.450	4050
786.554	4705
786.659	4222
786.763	4592
786.868	5274
786.973	5818
787.077	4108
787.182	3538
787.286	4874
787.391	5766
787.495	3611
787.600	3307
787.704	4217
787.809	4074
787.913	3951
788.017	4533
788.122	4586
788.226	3264
788.330	2481
788.435	4191
788.539	6143
788.643	3509
788.747	2843
788.852	3659
788.956	3221
789.060	4753
789.164	4688
789.268	3553
789.372	4103
789.476	3861
789.580	2301
789.684	2801
789.788	4834
789.892	4756
789.996	3154
790.100	2776
790.204	4193
790.308	4871
790.412	2229
790.516	2402
790.620	2837
790.724	4614
790.828	4120
790.931	2211
791.035	4571
791.139	2989
791.242	3371
791.346	3287
791.450	3612
791.554	2027
791.657	1321
791.761	4076
791.864	4595
791.968	4085
792.072	3810
792.175	3088
792.279	3312
792.382	2299
792.486	2298
792.589	2870
792.693	3116
792.796	2170
792.899	3017
793.003	3304
793.106	1707
793.209	3019
793.313	2594
793.416	814
793.519	2891
793.623	4863
793.726	3860
793.829	2419
793.932	2213
794.035	1267
794.138	4057
794.242	4681
794.345	1745
794.448	1702
794.551	1358
794.654	3230
794.757	3867
794.860	1855
794.963	2306
795.066	1835
795.169	3838
795.272	1779
795.375	4354
795.477	1257
795.580	2587
795.683	930
795.786	2839
795.889	1182
795.991	2519
796.094	2477
796.197	1583
796.300	3558
796.402	2567
796.505	987
796.608	1231
796.710	2040
796.813	2668
796.915	2816
797.018	3112
797.120	2510
797.223	1309
797.326	3173
797.428	2024
797.530	752
797.633	1296
797.735	2784
797.838	1569
797.940	3171
798.042	1907
798.145	1312
798.247	2212
798.349	481
798.452	2192
798.554	1754
798.656	2203
798.758	2915
798.860	2394
798.962	1052
799.065	1440
799.167	658
799.269	2119
799.371	2559
799.473	3464
799.575	1196
799.677	2233
799.779	2648
799.881	348
799.983	2633
800.085	1768
800.187	1322
800.289	1600
800.390	2330
800.492	2666
800.594	3029
800.696	1113
800.798	1719
800.899	1731
801.001	1260
801.103	1641
801.205	1146
801.306	1872
801.408	1151
801.509	1908
801.611	2382
801.713	1643
801.814	1510
801.916	1403
802.017	41
802.119	339
802.220	1353
802.322	513
802.423	3211
802.525	120
802.626	1801
802.727	1627
802.829	2538
802.930	-1202
803.031	1580
803.133	771
803.234	1656
803.335	1655
803.436	678
803.538	2089
803.639	627
803.740	1925
803.841	1085
803.942	1497
804.043	2105
804.144	1030
804.245	1467
804.346	2038
804.447	927
804.548	1199
804.649	2275
804.750	1114
804.851	763
804.952	941
805.053	1659
805.154	2120
805.255	2172
805.355	1868
805.456	1069
805.557	1216
805.658	974
805.758	1466
805.859	2013
805.960	1518
806.061	1157
806.161	1087
806.262	1889
806.362	634
806.463	739
806.564	2980
806.664	1210
806.765	1369
806.865	1012
806.966	1046
807.066	1055
807.166	2205
807.267	2408
807.367	1216
807.468	1084
807.568	-322
807.668	1710
807.769	3099
807.869	1257
807.969	2006
808.069	816
808.170	1745
808.270	1186
808.370	1905
808.470	1106
808.570	778
808.670	1133
808.770	840
808.870	649
808.970	1895
809.070	-467
809.170	1023
809.271	1419
809.370	990
809.470	991
809.570	836
809.670	-270
809.770	481
809.870	2123
809.970	1818
810.070	1146
810.169	1205
810.269	522
810.369	2187
810.469	285
810.568	582
810.668	350
810.768	555
810.867	1209
810.967	33
811.066	330
811.166	781
811.265	1936
811.365	513
811.464	175
811.564	854
811.663	1257
811.763	558
811.862	1799
811.962	1979
812.061	480
812.160	1099
812.260	526
812.359	1057
812.458	171
812.557	1406
812.657	291
812.756	1601
812.855	158
812.954	905
813.053	804
813.153	1430
813.252	824
813.351	1453
813.450	1372
813.549	1520
813.648	1099
813.747	825
813.846	2193
813.945	974
814.044	2022
814.143	821
814.242	1863
814.341	1139
814.439	1800
814.538	1680
814.637	1609
814.736	2201
814.835	2443
814.933	1941
815.032	2953
815.131	4255
815.229	7454
815.328	12011
815.427	9002
815.525	7980
815.624	7415
815.722	7039
815.821	7937
815.919	8096
816.018	7310
816.116	8730
816.215	7596
816.313	8841
816.412	10274
816.510	10704
816.609	11006
816.707	12586
816.805	9669
816.904	8668
817.002	10090
817.100	10707
817.198	10681
817.296	8589
817.395	9386
817.493	9657
817.591	8744
817.689	8269
817.787	9177
817.885	8800
817.983	7964
818.081	9318
818.179	8984
818.277	13076
818.375	10069
818.473	8536
818.571	8493
818.669	8613
818.767	9802
818.865	7971
818.963	6408
819.061	8451
819.158	8449
819.256	10363
819.354	9300
819.452	13894
819.549	9572
819.647	10347
819.745	7484
819.842	7226
819.940	8157
820.038	7431
820.135	6390
820.233	8928
820.330	6907
820.428	7295
820.525	8210
820.623	6863
820.720	5668
820.818	7991
820.915	7767
821.012	7259
821.110	5542
821.207	7808
821.304	6007
821.402	7200
821.499	7592
821.596	6514
821.693	6414
821.791	7222
821.888	7277
821.985	7665
822.082	5505
822.179	6684
822.276	7513
822.373	6566
822.470	4497
822.567	6946
822.664	5149
822.761	6273
822.858	7004
822.955	6026
823.052	4611
823.149	5836
823.246	6202
823.343	5178
823.440	5645
823.536	6681
823.633	6573
823.730	5118
823.827	5359
823.923	5513
824.020	5550
824.117	6212
824.213	5716
824.310	5266
824.407	3911
824.503	6088
824.600	5078
824.696	3612
824.793	6966
824.889	5785
824.986	4151
825.082	2832
825.179	4243
825.275	5865
825.371	7365
825.468	4018
825.564	1560
825.660	5232
825.757	7518
825.853	5348
825.949	3371
826.045	3637
826.142	4405
826.238	5882
826.334	5236
826.430	4801
826.526	3600
826.622	2309
826.718	6057
826.814	6244
826.910	4933
827.006	3070
827.102	2166
827.198	6175
827.294	5781
827.390	5177
827.486	4100
827.582	2346
827.678	2022
827.774	6106
827.869	2481
827.965	4753
828.061	2904
828.157	5504
828.252	4858
828.348	3488
828.444	4298
828.539	3665
828.635	3581
828.731	4130
828.826	1787
828.922	4017
829.017	4697
829.113	4826
829.208	1927
829.304	2951
829.399	4588
829.495	3670
829.590	3762
829.685	2888
829.781	4016
829.876	4027
829.971	1072
830.066	1774
830.162	1641
830.257	6580
830.352	4420
830.447	1837
830.543	2205
830.638	3310
830.733	4966
830.828	2449
830.923	3861
831.018	3465
831.113	4406
831.208	1856
831.303	893
831.398	2567
831.493	2667
831.588	5658
831.683	1600
831.778	2091
831.873	2701
831.967	4078
832.062	3637
832.157	3585
832.252	2853
832.346	2349
832.441	3667
832.536	2859
832.631	3074
832.725	2079
832.820	2794
832.914	3155
833.009	2026
833.104	1384
833.198	1966
833.293	2086
833.387	3899
833.482	2350
833.576	2628
833.670	3364
833.765	2666
833.859	2881
833.954	2956
834.048	2549
834.142	2915
834.237	1221
834.331	2114
834.425	3121
834.519	2647
834.613	1997
834.708	2864
834.802	2039
834.896	2368
834.990	2550
835.084	1520
835.178	703
835.272	1944
835.366	3103
835.460	3718
835.554	1937
835.648	979
835.742	770
835.836	1621
835.930	1484
836.024	2907
836.117	3130
836.211	1749
836.305	1838
836.399	1446
836.493	419
836.586	2957
836.680	1390
836.774	1490
836.867	2383
836.961	1706
837.055	1795
837.148	1170
837.242	1502
837.335	2355
837.429	1528
837.522	1080
837.616	1902
837.709	1543
837.803	1131
837.896	2833
837.989	2708
838.083	2030
838.176	610
838.269	16
838.363	1810
838.456	1167
838.549	3501
838.642	2016
838.735	1613
838.829	1522
838.922	1353
839.015	2349
839.108	522
839.201	1330
839.294	1951
839.387	1587
839.480	947
839.573	2053
839.666	170
839.759	1678
839.852	684
839.945	2724
840.038	1300
840.131	-36
840.223	896
840.316	1415
840.409	1615
840.502	1844
840.594	2938
840.687	763
840.780	549
840.873	-154
840.965	1214
841.058	1709
841.150	2391
841.243	102
841.336	2009
841.428	820
841.521	950
841.613	1027
841.706	1136
841.798	1374
841.890	808
841.983	-19
842.075	1913
842.167	1617
842.260	1043
842.352	2808
842.444	1294
842.537	-75
842.629	718
842.721	117
842.813	1186
842.905	365
842.997	1034
843.090	1197
843.182	1138
843.274	-69
843.366	-29
843.458	1366
843.550	2243
843.642	525
843.734	2217
843.826	513
843.918	446
844.009	634
844.101	704
844.193	492
844.285	1543
844.377	1484
844.469	1276
844.560	-1011
844.652	211
844.744	396
844.835	974
844.927	1450
845.019	1820
845.110	442
845.202	1884
845.293	186
845.385	241
845.476	783
845.568	1005
845.659	299
845.751	414
845.842	-77
845.934	1004
846.025	772
846.116	452
846.208	475
846.299	868
846.390	-483
846.482	257
846.573	921
846.664	1084
846.755	-865
846.846	1680
846.937	4
847.029	-461
847.120	-361
847.211	133
847.302	2041
847.393	1296
847.484	1122
847.575	288
847.666	-105
847.757	340
847.847	1333
847.938	1352
848.029	687
848.120	472
848.211	422
848.302	-691
848.392	-314
848.483	763
848.574	156
848.664	-128
848.755	537
848.846	458
848.936	-567
849.027	1059
849.118	556
849.208	-118
849.299	785
849.389	1962
849.480	4086
849.570	6850
849.661	11924
849.751	22523
849.841	7684
849.932	848
850.022	780
850.112	1226
850.203	513
850.293	-125
850.383	281
850.474	-68
850.564	-184
850.654	93
850.744	-195
850.834	937
850.924	106
851.014	1595
851.104	323
851.194	-40
851.284	-331
851.374	49
851.464	-29
851.554	-144
851.644	-159
851.734	212
851.824	115
851.914	301
852.004	1926
852.094	79
852.183	110
852.273	-4
852.363	164
852.452	-596
852.542	-726
852.632	379
852.721	-558
852.811	906
852.901	756
852.990	813
853.080	475
853.169	939
853.259	203
853.348	265
853.438	318
853.527	1030
853.617	1377
853.706	4348
853.795	6528
853.885	14029
853.974	26201
854.063	46121
854.152	66318
854.242	28025
854.331	6684
854.420	2809
854.509	1945
854.598	1616
854.687	1211
854.777	1853
854.866	342
854.955	608
855.044	-180
855.133	504
855.222	237
855.311	5
855.400	580
855.488	-550
855.577	-123
855.666	129
855.755	531
855.844	195
855.933	-10
856.021	456
856.110	710
856.199	-759
856.288	-300
856.376	284
856.465	-1203
856.554	239
856.642	321
856.731	1949
856.819	237
856.908	-244
856.996	262
857.085	-437
857.173	-586
857.262	-18
857.350	11
857.438	-834
857.527	-527
857.615	-402
857.703	284
857.792	297
857.880	-774
857.968	978
858.056	-332
858.145	272
858.233	-535
858.321	-259
858.409	1417
858.497	-406
858.585	-152
858.673	209
858.761	-1031
858.849	-564
858.937	-24
859.025	729
859.113	79
859.201	-207
859.289	487
859.377	243
859.465	172
859.552	288
859.640	-523
859.728	635
859.816	423
859.903	819
859.991	-642
860.079	-351
860.166	-316
860.254	-102
860.342	580
860.429	-876
860.517	808
860.604	313
860.692	-350
860.779	-379
860.867	-314
860.954	861
861.042	-328
861.129	1306
861.216	761
861.304	787
861.391	-326
861.478	-492
861.565	97
861.653	848
861.740	-1362
861.827	-639
861.914	478
862.001	465
862.089	-548
862.176	747
862.263	124
862.350	205
862.437	-219
862.524	102
862.611	285
862.698	314
862.785	1214
862.871	982
862.958	796
863.045	177
863.132	479
863.219	236
863.306	-401
863.392	1020
863.479	663
863.566	-29
863.652	363
863.739	93
863.826	711
863.912	-8
863.999	34
864.086	1300
864.172	1250
864.259	1052
864.345	1011
864.432	619
864.518	745
864.604	828
864.691	1675
864.777	1414
864.863	2175
864.950	4452
865.036	5184
865.122	11851
865.209	11853
865.295	9736
865.381	9054
865.467	9139
865.553	8804
865.639	9055
865.726	10755
865.812	14052
865.898	21126
865.984	28448
866.070	45155
866.156	48193
866.242	19430
866.328	10926
866.414	7664
866.499	8358
866.585	7821
866.671	8600
866.757	7122
866.843	7910
866.928	6807
867.014	7083
867.100	7922
867.186	7397
867.271	7140
867.357	7823
867.442	6381
867.528	7536
867.614	6653
867.699	7083
867.785	7138
867.870	7362
867.956	6726
868.041	6808
868.127	5421
868.212	5808
868.297	5866
868.383	6917
868.468	6674
868.553	7341
868.639	6547
868.724	6258
868.809	6818
868.894	5890
868.979	6675
869.065	6465
869.150	5812
869.235	5498
869.320	5411
869.405	5127
869.490	6101
869.575	6555
869.660	4353
869.745	6280
869.830	6534
869.915	4595
870.000	5834
870.085	5407
870.169	7293
870.254	6991
870.339	4481
870.424	4394
870.509	6287
870.593	6779
870.678	6580
870.763	5936
870.847	4132
870.932	5452
871.016	6357
871.101	3622
871.186	5171
871.270	7348
871.355	4458
871.439	4407
871.523	5823
871.608	4832
871.692	3808
871.777	6133
871.861	6079
871.945	4568
872.030	5053
872.114	5140
872.198	3201
872.282	4294
872.367	3607
872.451	3989
872.535	3943
872.619	4650
872.703	4636
872.787	4459
872.871	4662
872.955	3413
873.039	2874
873.123	3628
873.207	4781
873.291	2881
873.375	3840
873.459	4985
873.543	4476
873.627	3651
873.711	3298
873.794	5481
873.878	3831
873.962	2862
874.045	2816
874.129	3668
874.137	3687
874.213	3887
874.245	3895
874.296	3907
874.352	3385
874.380	3130
874.460	3570
874.464	3589
874.547	3351
874.568	3586
874.631	4282
874.676	4014
874.714	3777
874.784	4141
874.798	4219
874.881	3515
874.892	3320
874.965	1979
874.999	2706
875.048	3699
875.107	3450
875.131	3348
875.215	1750
875.215	1750
875.298	2081
875.323	2240
875.381	2621
875.430	4058
875.465	5055
875.538	3677
875.548	3492
875.631	2333
875.646	2130
875.714	1179
875.753	1840
875.798	2591
875.861	3076
875.881	3225
875.964	3163
875.968	3136
876.047	2636
876.076	2785
876.130	3040
876.183	2802
876.213	2723
876.291	3619
876.296	3669
876.379	2541
876.398	2539
876.462	2560
876.506	1994
876.545	1519
876.613	2063
876.628	2172
876.711	2379
876.721	2524
876.794	3686
876.828	3489
876.877	3116
876.935	2178
876.960	1837
877.043	1903
877.043	1907
877.125	2655
877.150	2776
877.208	3155
877.258	3128
877.291	3035
877.365	2020
877.374	1910
877.456	2563
877.472	2329
877.539	1223
877.579	1889
877.622	2744
877.687	2445
877.704	2272
877.787	1938
877.794	1963
877.869	2735
877.901	2945
877.952	2944
878.008	1707
878.034	1213
878.115	1378
878.117	1377
878.199	1310
878.222	1482
878.282	2171
878.329	2459
878.364	2551
878.437	2548
878.447	2532
878.529	785
878.544	687
878.611	561
878.651	1343
878.694	2198
878.758	2234
878.776	2173
878.858	1534
878.865	1543
878.941	1565
878.972	1318
879.023	1050
879.078	1347
879.105	1567
879.185	1521
879.187	1512
879.269	2147
879.292	2270
879.351	2817
879.399	2049
879.433	1322
879.506	1765
879.516	1856
879.598	1278
879.613	1197
879.680	627
879.720	1278
879.762	2222
879.827	2011
879.844	1848
879.926	1593
879.933	1566
880.007	1369
880.040	1322
880.089	1339
880.147	1643
880.171	1820
880.253	2904
880.254	2906
880.335	2174
880.360	2438
880.417	3407
880.467	4045
880.499	4384
880.574	4692
880.580	4683
880.662	3330
880.680	2871
880.744	1363
880.787	1220
880.825	1102
880.893	1820
880.907	1926
880.989	1061
881.000	1121
881.070	1797
881.106	1625
881.152	1359
881.213	1183
881.233	1077
881.315	1131
881.319	1136
881.396	1512
881.426	1453
881.478	1210
881.532	1664
881.559	1985
881.639	1494
881.641	1465
881.722	942
881.745	814
881.803	990
881.852	1159
881.885	1123
881.958	794
881.966	769
882.047	853
882.064	902
882.129	1306
882.171	1270
882.210	950
882.277	256
882.291	219
882.372	893
882.383	1033
882.454	1866
882.489	1810
882.535	1428
882.596	1209
882.616	1263
882.697	1546
882.702	1497
882.778	539
882.808	712
882.859	891
882.914	1005
882.940	1143
883.020	942
883.021	940
883.102	1299
883.127	1412
883.183	1566
883.233	1276
883.264	1025
883.339	614
883.345	570
883.426	56
883.445	76
883.507	630
883.551	965
883.587	1252
883.657	1735
883.668	1807
883.749	2101
883.763	2086
883.830	1201
883.869	774
883.910	608
883.975	837
883.991	864
884.072	521
884.081	487
884.152	979
884.187	1392
884.233	1569
884.292	1287
884.314	1016
884.394	-223
884.398	-247
884.475	159
884.504	343
884.555	483
884.610	180
884.636	101
884.716	461
884.716	466
884.797	1549
884.821	1725
884.877	1341
884.927	976
884.958	885
885.033	651
885.038	620
885.118	371
885.139	197
885.199	-53
885.244	244
885.279	642
885.350	1164
885.359	1193
885.439	1247
885.456	1155
885.520	769
885.561	811
885.600	599
885.667	405
885.680	528
885.760	1066
885.773	1097
885.840	752
885.878	811
885.920	711
885.984	293
886.000	268
886.080	406
886.089	398
886.160	787
886.195	909
886.240	558
886.300	306
886.320	429
886.400	965
886.406	984
886.480	938
886.511	985
886.560	692
886.616	177
886.640	159
886.720	334
886.722	338
886.800	358
886.827	403
886.879	876
886.932	1245
886.959	1361
887.038	1588
887.039	1583
887.119	835
887.143	705
887.198	949
887.248	1075
887.278	1038
887.354	850
887.358	841
887.437	760
887.459	714
887.517	797
887.564	843
887.596	716
887.669	294
887.676	255
887.755	-28
887.774	-111
887.835	283
887.880	678
887.914	566
887.985	139
887.994	208
888.073	969
888.090	1111
888.153	967
888.195	797
888.232	732
888.300	738
888.311	801
888.391	1200
888.405	1290
888.470	938
888.510	656
888.549	553
888.615	492
888.628	527
888.708	698
888.720	714
888.787	794
888.825	835
888.866	391
888.930	-225
888.945	-176
889.024	130
889.035	159
889.103	388
889.140	543
889.182	626
889.245	759
889.261	753
889.340	698
889.349	698
889.419	390
889.454	215
889.498	394
889.559	675
889.577	624
889.656	419
889.664	403
889.735	903
889.768	1147
889.814	1327
889.873	1558
889.978	179
890.083	599
890.187	531
890.292	59
890.397	691
890.501	513
890.606	70
890.710	546
890.815	842
890.919	994
891.024	640
891.128	303
891.233	-450
891.337	693
891.442	442
891.546	850
891.650	128
891.755	1189
891.859	1357
891.963	84
892.068	820
892.172	212
892.276	602
892.380	217
892.484	216
892.589	-293
892.693	845
892.797	231
892.901	100
893.005	1008
893.109	454
893.213	799
893.317	585
893.421	218
893.525	645
893.629	-122
893.733	754
893.837	699
893.941	-230
894.045	1080
894.148	156
894.252	-157
894.356	556
894.460	522
894.564	937
894.667	1062
894.771	139
894.875	252
894.978	1395
895.082	338
895.186	866
895.289	1026
895.393	490
895.496	114
895.600	-188
895.703	191
895.807	339
895.910	402
896.014	337
896.117	-13
896.221	551
896.324	513
896.427	76
896.531	198
896.634	-9
896.737	89
896.840	425
896.944	541
897.047	604
897.150	-106
897.253	376
897.356	490
897.460	-549
897.563	-126
897.666	327
897.769	-81
897.872	601
897.975	1134
898.078	458
898.181	55
898.284	371
898.387	-113
898.490	594
898.593	347
898.695	-42
898.798	236
898.901	663
899.004	-252
899.107	620
899.209	95
899.312	524
899.415	-172
899.518	-142
899.620	181
899.723	-176
899.826	97
899.928	-262
900.031	323
900.133	-86
900.236	-626
900.338	-630
900.441	-553
900.543	-246
900.646	358
900.748	144
900.851	565
900.953	406
901.055	361
901.158	569
901.260	363
901.362	305
901.465	-743
901.567	601
901.669	75
901.771	78
901.873	-34
901.976	615
902.078	-612
902.180	-162
902.282	-300
902.384	-264
902.486	171
902.588	706
902.690	140
902.792	689
902.894	407
902.996	-52
903.098	454
903.200	93
903.302	-678
903.404	-173
903.505	24
903.607	873
903.709	1117
903.811	121
903.913	333
904.014	-264
904.116	146
904.218	147
904.319	209
904.421	1179
904.523	550
904.624	-5
904.726	692
904.827	-191
904.929	141
905.030	-21
905.132	324
905.233	283
905.335	-384
905.436	-353
905.537	-65
905.639	304
905.740	-106
905.841	444
905.943	427
906.044	138
906.145	543
906.247	-408
906.348	262
906.449	-189
906.550	236
906.651	-290
906.752	-540
906.854	-795
906.955	-714
907.056	-754
907.157	385
907.258	-212
907.359	36
907.460	-279
907.561	-180
907.662	-586
907.762	-345
907.863	-163
907.964	-62
908.065	-612
908.166	-248
908.267	431
908.367	-646
908.468	-310
908.569	-157
908.670	283
908.770	73
908.871	-243
908.971	-538
909.072	-136
909.173	-671
909.273	651
909.374	681
909.474	-223
909.575	341
909.675	-81
909.776	23
909.876	-401
909.977	225
910.077	524
910.177	-625
910.278	108
910.378	226
910.478	-118
910.579	237
910.679	217
910.779	45
910.879	138
910.980	-816
911.080	107
911.180	-728
911.280	-520
911.380	111
911.480	-352
911.580	-164
911.680	-231
911.780	415
911.880	237
911.980	139
912.080	427
912.180	191
912.280	264
912.380	459
912.480	-416
912.580	105
912.679	254
912.779	392
912.879	656
912.979	-194
913.078	-432
913.178	-244
913.278	323
913.377	-223
913.477	-881
913.577	109
913.676	613
913.776	-569
913.875	-191
913.975	310
914.074	-424
914.174	17
914.273	-857
914.373	331
914.472	198
914.572	-973
914.671	-868
914.770	-100
914.870	-122
914.969	-1259
915.068	-416
915.167	-161
915.267	-835
915.366	189
915.465	54
915.564	416
915.663	-176
915.763	-185
915.862	-161
915.961	-143
916.060	401
916.159	-576
916.258	-470
916.357	-763
916.456	-102
916.555	-512
916.654	-866
916.752	-253
916.851	420
916.950	-251
917.049	-108
917.148	-480
917.247	-419
917.345	-48
917.444	-437
917.543	-718
917.642	244
917.740	-312
917.839	-120
917.937	-170
918.036	974
918.135	-838
918.233	-197
918.332	-410
918.430	-388
918.529	87
918.627	-583
918.726	367
918.824	-362
918.923	-604
919.021	337
919.119	-500
919.218	-232
919.316	165
919.414	585
919.512	321
919.611	-352
919.709	-160
919.807	1261
919.905	-110
920.003	127
920.102	-219
920.200	233
920.298	633
920.396	-600
920.494	223
920.592	-233
920.690	-597
920.788	124
920.886	226
920.984	612
921.082	212
921.180	573
921.277	827
921.375	611
921.473	283
921.571	72
921.669	790
921.766	364
921.864	782
921.962	1003
922.060	1067
922.157	1048
922.255	1217
922.352	1200
922.450	979
922.548	1180
922.645	603
922.743	1855
922.840	2950
922.938	3474
923.035	2618
923.133	1884
923.230	3389
923.327	3722
923.425	3870
923.522	3862
923.619	3841
923.717	3026
923.814	3170
923.911	3200
924.008	3863
924.106	2378
924.203	2914
924.300	2211
924.397	3403
924.494	3162
924.591	3042
924.688	1926
924.786	2096
924.883	3247
924.979	2889
925.077	3098
925.173	2978
925.270	2643
925.367	1752
925.464	3677
925.561	3355
925.658	3360
925.755	2188
925.852	3217
925.948	2751
926.045	3356
926.142	3210
926.239	2841
926.335	2067
926.432	2441
926.529	2726
926.625	2649
926.722	2290
926.818	2326
926.915	3081
927.011	2816
927.108	2536
927.204	3611
927.301	2136
927.397	3315
927.494	3287
927.590	1678
927.687	1749
927.783	2521
927.879	2338
927.976	1173
928.072	2040
928.168	2921
928.264	2314
928.361	1711
928.457	3412
928.553	2598
928.649	2980
928.745	2409
928.841	2550
928.937	2261
929.033	2441
929.129	1893
929.225	2251
929.321	2629
929.417	1489
929.513	3098
929.609	1845
929.705	1905
929.801	2541
929.897	1565
929.993	2091
930.089	2765
930.184	1798
930.280	2464
930.376	2706
930.471	1810
930.567	1528
930.663	2419
930.758	2414
930.854	2020
930.950	1361
931.045	2216
931.141	1923
931.236	2154
931.332	909
931.427	877
931.523	1937
931.618	2596
931.714	883
931.809	1975
931.905	2632
932.000	1393
932.095	929
932.191	1669
932.286	1958
932.381	1376
932.476	930
932.572	1451
932.667	1271
932.762	742
932.857	1901
932.952	2435
933.047	1829
933.142	1359
933.237	884
933.332	1704
933.427	1790
933.522	1069
933.617	1268
933.712	1266
933.807	2661
933.902	1883
933.997	2685
934.092	1101
934.187	1443
934.282	1496
934.376	1162
934.471	2504
934.566	1760
934.661	980
934.755	1514
934.850	2245
934.945	1121
935.039	855
935.134	356
935.228	793
935.323	2264
935.417	1330
935.512	688
935.606	146
935.701	373
935.795	2047
935.890	1175
935.984	726
936.079	202
936.173	1393
936.267	1127
936.362	946
936.456	1208
936.550	2086
936.644	1703
936.738	1277
936.833	557
936.927	216
937.021	554
937.115	842
937.209	530
937.303	2137
937.397	280
937.491	621
937.585	1246
937.679	1511
937.773	308
937.867	536
937.961	628
938.055	1432
938.149	1792
938.243	89
938.337	196
938.430	811
938.524	1482
938.618	1290
938.712	774
938.805	838
938.899	1114
938.993	1192
939.086	1086
939.180	228
939.274	593
939.367	1094
939.461	813
939.554	1216
939.648	988
939.741	514
939.835	330
939.928	1639
940.022	1330
940.115	427
940.208	699
940.302	1612
940.395	1707
940.488	716
940.582	488
940.675	407
940.768	-22
940.861	1709
940.954	1587
941.048	101
941.141	433
941.234	-185
941.327	266
941.420	753
941.513	1070
941.606	398
941.699	1031
941.792	472
941.885	909
941.978	68
942.071	1305
942.164	406
942.257	313
942.349	197
942.442	1271
942.535	312
942.628	549
942.721	805
942.813	-979
942.906	1258
942.999	33
943.091	-224
943.184	-191
943.277	331
943.369	-492
943.462	-635
943.554	564
943.647	281
943.739	949
943.832	1241
943.924	-562
944.017	798
944.109	-756
944.201	296
944.294	-64
944.386	723
944.478	46
944.571	162
944.663	-249
944.755	187
944.847	98
944.940	794
945.032	-867
945.124	720
945.216	1216
945.308	1009
945.400	323
945.492	-597
945.584	584
945.676	646
945.768	987
945.860	-30
945.952	-90
946.044	916
946.136	-918
946.228	747
946.320	-571
946.412	430
946.503	417
946.595	1631
946.687	-265
946.779	-108
946.870	-301
946.962	-454
947.054	61
947.145	1457
947.237	161
947.329	299
947.420	318
947.512	140
947.603	-932
947.695	236
947.786	-325
947.878	-139
947.969	685
948.061	356
948.152	639
948.243	-20
948.335	426
948.426	-539
948.517	-491
948.609	295
948.700	-818
948.791	-50
948.882	-77
948.973	118
949.065	-618
949.156	641
949.247	-898
949.338	87
949.429	-1146
949.520	324
949.611	-262
949.702	163
949.793	-50
949.884	-64
949.975	-106
950.066	82
950.157	-395
950.247	92
950.338	-223
950.429	-121
950.520	-558
950.611	178
950.701	-776
950.792	520
950.883	115
950.973	153
951.064	-29
951.155	-177
951.245	351
951.336	-540
951.427	382
951.517	1015
951.608	310
951.698	-536
951.788	-973
951.879	-39
951.969	-12
952.060	267
952.150	-406
952.240	489
952.331	-688
952.421	1571
952.511	-655
952.602	48
952.692	-462
952.782	-359
952.872	122
952.962	134
953.052	122
953.143	-1309
953.233	257
953.323	-156
953.413	90
953.503	-777
953.593	-421
953.683	-825
953.773	-955
953.863	-854
953.953	-1231
954.042	-537
954.132	-964
954.222	-40
954.312	-1012
954.402	-358
954.492	-161
954.581	-1095
954.671	-166
954.761	-641
954.850	311
954.940	-81
955.030	-514
955.119	-180
955.209	32
955.298	-539
955.388	130
955.477	533
955.567	-1320
955.656	304
955.746	-243
955.835	-984
955.925	-867
956.014	-597
956.103	-185
956.193	110
956.282	-256
956.371	361
956.461	-134
956.550	-438
956.639	15
956.728	-713
956.817	-395
956.906	-832
956.995	-274
957.085	-778
957.174	-186
957.263	-796
957.352	-399
957.441	-626
957.530	-416
957.619	-629
957.708	-851
957.796	-369
957.885	-242
957.974	-883
958.063	172
958.152	-1760
958.241	-940
958.329	-1811
958.418	-1823
958.507	-1063
958.596	69
958.684	-824
958.773	98
958.861	-1254
958.950	-28
959.039	14
959.127	-463
959.216	351
959.304	-868
959.393	-763
959.481	-1017
959.570	-753
959.658	-754
959.746	-336
959.835	-430
959.923	-667
960.011	-1148
960.100	-543
960.188	-308
960.276	-674
960.365	-836
960.453	-578
960.541	-1303
960.629	-346
960.717	-112
960.805	-1076
960.893	-743
960.981	-1229
961.069	-206
961.158	-676
961.245	-407
961.333	-329
961.421	-471
961.509	230
961.597	-686
961.685	-1054
961.773	-600
961.861	-134
961.949	-119
962.036	-740
962.124	-876
962.212	-437
962.299	-598
962.387	-777
962.475	-556
962.562	-963
962.650	15
962.738	-332
962.825	-862
962.913	-84
963.000	-1135
963.088	-364
963.175	-627
963.263	-784
963.350	-698
963.438	-1260
963.525	-1066
963.612	-312
963.700	-981
963.787	-391
963.874	-1264
963.962	-1241
964.049	-747
964.136	-463
964.223	-1393
964.310	194
964.398	-930
964.485	-1198
964.572	-1007
964.659	-269
964.746	-1464
964.833	-368
964.920	-240
965.007	-433
965.094	-710
965.181	-1144
965.268	113
965.355	-42
965.441	599
965.528	-611
965.615	198
965.702	-816
965.789	-1017
965.875	-495
965.962	-381
966.049	-1256
966.136	193
966.222	-674
966.309	158
966.395	-326
966.482	-872
966.569	-1400
966.655	-421
966.742	120
966.828	-356
966.915	-870
967.001	319
967.087	-237
967.174	-949
967.260	387
967.347	-1204
967.433	-511
967.519	115
967.605	-990
967.692	-1069
967.778	126
967.864	-910
967.950	-134
968.036	-1107
968.123	-746
968.209	-457
968.295	-1436
968.381	743
968.467	-203
968.553	-1582
968.639	699
968.725	-1523
968.811	-1064
968.897	200
968.983	-406
969.069	-722
969.154	187
969.240	-342
969.326	-293
969.412	-473
969.497	-291
969.583	-1397
969.669	622
969.755	-355
969.840	-926
969.926	-216
970.012	-1107
970.097	1166
970.183	-440
970.268	-874
970.354	431
970.439	-1569
970.525	379
970.610	-2031
970.696	23
970.781	-740
970.866	-494
970.952	-613
971.037	-924
971.122	-393
971.208	-184
971.293	-289
971.378	-902
971.463	7
971.549	-492
971.634	-1197
971.719	-404
971.804	-1933
971.889	-265
971.974	-609
972.059	-1243
972.144	-394
972.229	-424
972.314	-1224
972.399	-32
972.484	-1561
972.569	113
972.654	-1478
972.739	-424
972.824	-709
972.908	-997
972.993	-600
973.078	-746
973.163	-908
973.247	-184
973.332	-2106
973.417	414
973.501	-1152
973.586	-588
973.671	-864
973.755	-365
973.840	-564
973.924	-701
974.009	-526
974.093	-476
974.178	190
974.262	-453
974.346	-492
974.431	-550
974.515	-789
974.600	-128
974.684	-71
974.768	-1282
974.852	505
974.937	-596
975.021	-212
975.105	-19
975.189	-721
975.273	-725
975.358	-1049
975.442	-1205
975.526	-299
975.610	-2212
975.694	-1479
975.778	-6
975.862	-836
975.946	-2027
976.030	20
976.114	-1126
976.198	-379
976.281	-1259
976.365	-783
976.449	-1003
976.533	-916
976.617	-996
976.700	-1152
976.784	-1164
976.868	-1215
976.951	-1067
977.035	-824
977.119	-612
977.202	-901
977.286	-805
977.369	-905
977.453	-48
977.536	-313
977.620	-1074
977.703	-219
977.787	-1527
977.870	571
977.953	431
978.037	-1919
978.120	20
978.203	-1288
978.287	-1251
978.370	-1160
978.453	-472
978.536	-76
978.620	-35
978.703	-1008
978.786	-500
978.869	-1321
978.952	-1634
979.035	481
979.118	-188
979.201	-382
979.284	-236
979.367	-1329
979.450	-464
979.533	-1584
979.616	-1163
979.699	-372
979.782	-665
979.865	-1013
979.948	-1522
980.030	-1444
980.113	-787
980.196	-1159
980.279	-973
980.361	-798
980.444	-574
980.526	-967
980.609	-683
980.692	379
980.774	183
980.857	-1332
980.939	-134
981.022	-349
981.104	-212
981.187	-812
981.269	-443
981.352	-341
981.434	-397
981.516	-537
981.599	-710
981.681	-389
981.763	-1169
981.846	-556
981.928	-849
982.010	-746
982.092	-1084
982.174	-176
982.256	-724
982.339	-1063
982.421	-688
982.503	-652
982.585	-1527
982.667	-482
982.749	-874
982.831	-589
982.913	-1187
982.995	-459
983.077	-1565
983.158	-270
983.240	-1868
983.322	89
983.404	-120
983.486	-441
983.568	-327
983.649	-355
983.731	-271
983.813	-1358
983.894	-101
983.976	-1052
984.058	-845
984.139	448
984.221	-1275
984.302	-719
984.384	-753
984.465	-797
984.547	-315
984.628	-1493
984.710	-94
984.791	-106
984.872	-1001
984.954	-1002
985.035	-1112
985.116	-1025
985.198	-863
985.279	956
985.360	-517
985.441	-438
985.522	-289
985.604	-1274
985.685	-2541
985.766	330
985.847	514
985.928	-1286
986.009	-254
986.090	-259
986.171	-286
986.252	-197
986.333	-279
986.414	-1075
986.495	-672
986.576	-314
986.656	451
986.737	-29
986.818	-501
986.899	-637
986.980	-102
987.060	679
987.141	-717
987.222	-546
987.302	16
987.383	-212
987.464	-232
987.544	230
987.625	-457
987.705	-182
987.786	217
987.866	68
987.947	-521
988.027	-442
988.108	-699
988.188	-854
988.268	-246
988.349	220
988.429	59
988.509	90
988.589	-126
988.670	-1971
988.750	1298
988.830	-167
988.910	-447
988.990	-741
989.070	-998
989.151	-926
989.231	-1123
989.311	-707
989.391	-362
989.471	-93
989.551	-596
989.631	-756
989.711	448
989.791	-1168
989.870	-534
989.950	0
990.030	-1005
990.110	-418
990.190	-1198
990.269	-391
990.349	-671
990.429	-699
990.509	-127
990.588	-1842
990.668	-471
990.747	154
990.827	-712
990.907	188
990.986	-987
991.066	-744
991.145	-693
991.225	-273
991.304	-964
991.383	-1527
991.463	-638
991.542	-519
991.622	-1143
991.701	-1027
991.780	-1496
991.859	-1089
991.939	-903
992.018	-911
992.097	-958
992.176	-1166
992.256	-505
992.335	-1722
992.414	-289
992.493	-1030
992.572	-1545
992.651	144
992.730	-1316
992.809	-745
992.888	-1510
992.967	-911
993.046	-625
993.125	-1659
993.203	-998
993.282	-800
993.361	269
993.440	-1388
993.519	-1806
993.597	-503
993.676	-975
993.755	-210
993.834	-568
993.912	-1728
993.991	-751
994.069	-1451
994.148	-920
994.226	-1058
994.305	-468
994.384	-1396
994.462	-235
994.540	-1355
994.619	-967
994.697	-654
994.776	-957
994.854	-1260
994.932	-1594
995.011	-1400
995.089	-1511
995.167	-1255
995.245	-663
995.324	-1953
995.402	-1028
995.480	-1613
995.558	-1024
995.636	-2136
995.714	-1200
995.792	-18
995.870	-2053
995.948	-598
996.026	-788
996.104	-2175
996.182	-580
996.260	-1588
996.338	-876
996.416	-1678
996.494	-1983
996.572	-202
996.649	-1523
996.727	-1136
996.805	-1332
996.883	-1724
996.960	-1458
997.038	-691
997.116	-1446
997.193	-1429
997.271	-846
997.348	-1491
997.426	-760
997.504	-1221
997.581	-614
997.658	-1065
997.736	-1883
997.813	-1989
997.891	383
997.968	-2029
998.046	-1588
998.123	-1291
998.200	-1146
998.277	-1951
998.355	-524
998.432	-2430
998.509	-713
998.586	-1034
998.663	-1101
998.741	-1090
998.818	-1765
998.895	-2110
998.972	-834
999.049	-1454
999.126	-1454
999.203	-412
999.280	-1016
999.357	-836
999.434	-2679
999.511	-1548
999.587	-793
999.664	-2059
999.741	-1908
999.818	-1295
999.895	-1172
999.971	-2916
1000.048	-1540
1000.125	-703
1000.202	-1957
1000.278	-1179
1000.355	-666
1000.431	-1512
1000.508	-1842
1000.584	-1386
1000.661	-2123
1000.738	-1756
1000.814	-1611
1000.890	-2185
1000.967	-1917
1001.043	-1519
1001.120	-1882
1001.196	-1653
1001.272	-1628
1001.349	-1277
1001.425	-859
1001.501	-1633
1001.577	-2206
1001.654	-1189
1001.730	-2084
1001.806	-1426
1001.882	-2498
1001.958	-1576
1002.034	-1160
1002.110	-2372
1002.186	-2232
1002.262	-2511
1002.338	-1904
1002.414	-1489
1002.490	-1368
1002.566	-1299
1002.642	-1894
1002.718	-1173
1002.794	-2274
1002.870	-1073
1002.945	-2136
1003.021	-1342
1003.097	-2177
1003.173	-1654
1003.248	-2826
1003.324	-1809
1003.400	-1472
1003.475	-2341
1003.551	-1918
1003.626	-1323
1003.702	-2129
1003.777	-1063
1003.853	-2373
1003.928	-1424
1004.004	-1289
1004.079	-1232
1004.155	-1064
1004.230	-2808
1004.305	-1042
1004.381	-2280
1004.456	-1240
1004.531	-1394
1004.607	-2064
1004.682	-2107
1004.757	-2171
1004.832	-1297
1004.907	-2189
1004.982	-1847
1005.057	-1307
1005.133	-2600
1005.208	-2296
1005.283	-2768
1005.358	-1063
1005.433	-2568
1005.508	-1261
1005.583	-2894
1005.657	-2103
1005.732	-1326
1005.807	-2299
1005.882	-1668
1005.957	-1179
1006.032	-1571
1006.106	-1321
1006.181	-2373
1006.256	-1767
1006.331	-2404
1006.405	-2052
1006.480	-1584
1006.554	-2239
1006.629	-1853
1006.704	-679
1006.778	-1374
1006.853	-1328
1006.927	-1380
1007.002	-2630
1007.076	-1233
1007.150	-1842
1007.225	-2730
1007.299	-1704
1007.373	-1990
1007.448	-2000
1007.522	-1262
1007.596	-1160
1007.671	-2143
1007.745	-2338
1007.819	-2409
1007.893	-2427
1007.967	-1392
1008.041	-2064
1008.115	-1882
1008.190	-2542
1008.264	-1906
1008.338	-3092
1008.412	-1626
1008.486	-1788
1008.560	-1100
1008.633	-1241
1008.707	-1124
1008.781	-1709
1008.855	-1893
1008.929	-2102
1009.003	-2129
1009.076	-2053
1009.150	-3061
1009.224	-843
1009.298	-1286
1009.371	-2043
1009.445	-876
1009.519	-1789
1009.592	-2875
1009.666	-2118
1009.739	-1226
1009.813	-1987
1009.886	-1337
1009.960	-2365
1010.033	-911
1010.107	-1293
1010.180	-3533
1010.253	-2334
1010.327	-1711
1010.400	-1716
1010.473	-2343
1010.547	-783
1010.620	-2309
1010.693	-1855
1010.766	-2154
1010.840	-1131
1010.913	-1700
1010.986	-2371
1011.059	-1530
1011.132	-2180
1011.205	-1217
1011.278	-1453
1011.351	-2812
1011.424	-1617
1011.497	-2766
1011.570	-2156
1011.643	-1791
1011.716	-2257
1011.789	-1379
1011.862	-2124
1011.934	-1247
1012.007	-2758
1012.080	-1042
1012.153	-1905
1012.225	-1192
1012.298	-1353
1012.371	-1852
1012.443	-2129
1012.516	-2706
1012.588	-1068
1012.661	-1256
1012.733	-2109
1012.806	-1533
1012.879	-1830
1012.951	-1795
1013.023	-2129
1013.096	-1724
1013.168	-2309
1013.241	-1801
1013.313	-1910
1013.385	-2178
1013.458	-1016
1013.530	-1583
1013.602	-2072
1013.674	-857
1013.746	-2263
1013.819	-2325
1013.891	-1186
1013.963	-1952
1014.035	-2066
1014.107	-1382
1014.179	-1529
1014.251	-2692
1014.323	-1730
1014.395	-2122
1014.467	-1749
1014.539	-1941
1014.611	-2205
1014.683	-1521
1014.754	-1589
1014.826	-2715
1014.898	-1937
1014.970	-2212
1015.042	-882
1015.113	-1754
1015.185	-1721
1015.257	-2202
1015.328	-1291
1015.400	-2024
1015.471	-1608
1015.543	-2214
1015.615	-2322
1015.686	-2367
1015.757	-2070
1015.829	-2263
1015.901	-1809
1015.972	-1858
1016.043	-2158
1016.115	-2058
1016.186	-2076
1016.257	-2275
1016.328	-1657
1016.400	-1315
1016.471	-2409
1016.542	-2064
1016.613	-1156
1016.685	-2576
1016.756	-1874
1016.827	-2401
1016.898	-2304
1016.969	-1338
1017.040	-2447
1017.111	-2830
1017.182	-2391
1017.253	-2084
1017.324	-2489
1017.395	-1798
1017.466	-1543
1017.537	-2015
1017.608	-2088
1017.678	-1784
1017.749	-2069
1017.820	-1782
1017.891	-2080
1017.961	-1664
1018.032	-2091
1018.103	-1602
1018.173	-1532
1018.244	-1168
1018.315	-1907
1018.385	-1408
1018.456	-2147
1018.526	-2121
1018.597	-1753
1018.667	-1787
1018.738	-1822
1018.808	-1786
1018.878	-1612
1018.949	-1696
1019.019	-1130
1019.089	-2151
1019.160	-1921
1019.230	-2218
1019.300	-1545
1019.371	-2045
1019.441	-1237
1019.511	-1532
1019.581	-1522
1019.651	-1355
1019.721	-1715
1019.791	-2194
1019.861	-1838
1019.931	-1777
1020.001	-2704
1020.071	-1757
1020.141	-2160
1020.211	-1985
1020.281	-2562
1020.351	-2594
1020.421	-1508
1020.491	-2187
1020.560	-2381
1020.630	-2188
1020.700	-1316
1020.770	-2391
1020.839	-1881
1020.909	-2103
1020.979	-2330
1021.048	-1834
1021.118	-2708
1021.187	-1851
1021.257	-1700
1021.326	-1525
1021.396	-2606
1021.465	-1611
1021.535	-2123
1021.604	-2496
1021.674	-1706
1021.743	-2100
1021.812	-2184
1021.882	-2025
1021.951	-1988
1022.020	-1736
1022.089	-1418
1022.159	-1471
1022.228	-1490
1022.297	-1983
1022.366	-1504
1022.435	-1786
1022.504	-2062
1022.573	-2724
1022.642	-2730
1022.711	-2122
1022.781	-2275
1022.849	-1532
1022.918	-2586
1022.987	-2514
1023.056	-2035
1023.125	-1775
1023.194	-2208
1023.263	-1922
1023.331	-1821
1023.400	-2352
1023.469	-2487
1023.538	-2385
1023.606	-2458
1023.675	-2314
1023.744	-1473
1023.812	-2526
1023.881	-2296
1023.949	-2311
1024.018	-2566
1024.086	-1983
1024.155	-2311
1024.223	-2213
1024.292	-2304
1024.360	-2189
1024.429	-1501
1024.497	-2522
1024.565	-1596
1024.634	-1994
1024.702	-1345
1024.770	-1172
1024.838	-2629
1024.907	-1963
1024.975	-1784
1025.043	-2035
1025.111	-2557
1025.179	-2186
1025.247	-1369
1025.315	-2331
1025.383	-2211
1025.451	-1637
1025.519	-1491
1025.587	-1632
1025.655	-2003
1025.723	-1920
1025.791	-2052
1025.859	-2389
1025.927	-2235
1025.995	-2507
1026.062	-1914
1026.130	-2144
1026.198	-1796
1026.266	-1795
1026.333	-1270
1026.401	-2111
1026.469	-2149
1026.536	-1489
1026.604	-2083
1026.671	-1573
1026.739	-2739
1026.806	-2325
1026.874	-2196
1026.941	-1697
1027.009	-2593
1027.076	-2840
1027.144	-1953
1027.211	-2438
1027.278	-2155
1027.345	-1883
1027.413	-2134
1027.480	-1984
1027.547	-1934
1027.614	-1354
1027.682	-2426
1027.749	-2840
1027.816	-1843
1027.883	-2110
1027.950	-1685
1028.017	-2704
1028.084	-2419
1028.151	-2503
1028.218	-2213
1028.285	-2411
1028.352	-2272
1028.419	-2621
1028.486	-2581
1028.553	-1799
1028.619	-2659
1028.686	-1936
1028.753	-1826
1028.820	-2751
1028.886	-2301
1028.953	-2542
1029.020	-2532
1029.086	-2549
1029.153	-2589
1029.220	-2661
1029.286	-2392
1029.353	-1919
1029.419	-2156
1029.486	-1706
1029.552	-2808
1029.619	-2705
1029.685	-2592
1029.751	-2263
1029.818	-658
1029.884	-2371
1029.951	-1235
1030.017	-2758
1030.083	-1733
1030.149	-1872
1030.216	-2884
1030.282	-2975
1030.348	-2888
1030.414	-2123
1030.480	-1938
1030.546	-1551
1030.612	-2404
1030.678	-3058
1030.744	-2362
1030.810	-3139
1030.876	-1940
1030.942	-1659
1031.008	-2518
1031.074	-3188
1031.140	-2101
1031.206	-2366
1031.272	-2530
1031.337	-2334
1031.403	-2727
1031.469	-1897
1031.534	-2217
1031.600	-2210
1031.666	-2197
1031.731	-2415
1031.797	-2255
1031.863	-1798
1031.928	-2408
1031.994	-2424
1032.059	-2312
1032.125	-2479
1032.190	-3056
1032.256	-2158
1032.321	-3205
1032.386	-3202
1032.452	-1840
1032.517	-2167
1032.582	-1879
1032.647	-1653
1032.713	-2421
1032.778	-2886
1032.843	-2490
1032.908	-2318
1032.974	-1810
1033.039	-2524
1033.104	-1635
1033.169	-2183
1033.234	-2844
1033.299	-2070
1033.364	-2470
1033.429	-2662
1033.494	-2849
1033.559	-3384
1033.624	-2119
1033.688	-2609
1033.753	-2833
1033.818	-2617
1033.883	-2307
1033.948	-2599
1034.013	-2700
1034.077	-2358
1034.142	-2395
1034.207	-2958
1034.271	-1740
1034.336	-736
1034.400	-1663
1034.465	-1499
1034.530	-2502
1034.594	-2822
1034.658	-3277
1034.723	-2412
1034.787	-2484
1034.852	-1703
1034.916	-2022
1034.981	-2941
1035.045	-2454
1035.109	-1579
1035.173	-2098
1035.238	-2839
1035.302	-2511
1035.366	-2125
1035.430	-2958
1035.495	-2128
1035.559	-1637
1035.623	-2419
1035.687	-2791
1035.751	-2752
1035.815	-2454
1035.879	-2542
1035.943	-1885
1036.007	-1906
1036.071	-1687
1036.135	-2683
1036.198	-2531
1036.262	-3397
1036.326	-3047
1036.390	-2154
1036.454	-2428
1036.517	-3130
1036.581	-2694
1036.645	-2068
1036.709	-1589
1036.772	-2880
1036.836	-2100
1036.900	-1902
1036.963	-1631
1037.026	-2658
1037.090	-3138
1037.154	-2408
1037.217	-2630
1037.280	-2848
1037.344	-2680
1037.407	-3215
1037.471	-2340
1037.534	-2749
1037.597	-3272
1037.661	-2265
1037.724	-2951
1037.787	-3242
1037.850	-2742
1037.913	-2394
1037.977	-2149
1038.040	-2945
1038.103	-1954
1038.166	-2905
1038.229	-2505
1038.292	-2448
1038.355	-2504
1038.418	-3175
1038.481	-2277
1038.544	-2238
1038.607	-1613
1038.670	-1595
1038.732	-2163
1038.795	-2564
1038.858	-2757
1038.921	-2552
1038.984	-2434
1039.046	-3034
1039.109	-2231
1039.172	-2657
1039.234	-2808
1039.297	-1590
1039.360	-2846
1039.422	-2288
1039.485	-2339
1039.547	-2947
1039.610	-2785
1039.672	-3155
1039.734	-2150
1039.797	-1831
1039.859	-2812
1039.922	-2321
1039.984	-2511
1040.046	-2969
1040.109	-2800
1040.171	-2432
1040.233	-2333
1040.295	-2810
1040.358	-2767
1040.420	-3064
1040.482	-2398
1040.544	-2622
1040.606	-2139
1040.668	-2078
1040.730	-1992
1040.792	-2411
1040.854	-2522
1040.916	-1846
1040.978	-2660
1041.040	-2099
1041.102	-2998
1041.164	-1771
1041.225	-2308
1041.287	-2486
1041.349	-2785
1041.411	-2158
1041.472	-2436
1041.534	-3064
1041.596	-2457
1041.657	-2941
1041.719	-2420
1041.781	-2134
1041.842	-3089
1041.904	-2946
1041.965	-2844
1042.027	-2533
1042.088	-3237
1042.150	-2925
1042.211	-2839
1042.272	-2111
1042.334	-2524
1042.395	-2238
1042.456	-2677
1042.518	-2262
1042.579	-2200
1042.640	-2939
1042.701	-1685
1042.763	-2155
1042.824	-2875
1042.885	-2694
1042.946	-2906
1043.007	-2416
1043.068	-1827
1043.129	-2920
1043.190	-2547
1043.251	-2761
1043.312	-2317
1043.373	-1935
1043.434	-2862
1043.495	-2774
1043.556	-2391
1043.616	-2569
1043.677	-2308
1043.738	-2790
1043.799	-2513
1043.859	-2239
1043.920	-2281
1043.981	-2637
1044.041	-2044
1044.102	-2400
1044.162	-2395
1044.223	-2708
1044.284	-2280
1044.344	-1700
1044.405	-3554
1044.465	-2343
1044.525	-2206
1044.586	-2587
1044.646	-2670
1044.707	-1991
1044.767	-2396
1044.827	-1534
1044.887	-2071
1044.948	-2058
1045.008	-2433
1045.068	-2182
1045.128	-1891
1045.188	-2492
1045.249	-2312
1045.309	-2273
1045.369	-1142
1045.429	-2300
1045.489	-1971
1045.549	-1637
1045.609	-2155
1045.669	-1932
1045.729	-1589
1045.789	-2444
1045.848	-2577
1045.908	-2600
1045.968	-2062
1046.028	-1408
1046.088	-1918
1046.147	-1597
1046.207	-1469
1046.267	-2597
1046.326	-1552
1046.386	-1722
1046.446	-566
1046.505	-2388
1046.565	-825
1046.624	-967
1046.684	-803
1046.743	-1645
1046.803	-699
1046.862	-542
1046.922	0
