'Start Wavelength	183.907
'End Wavelength	1046.922
'Gate Delay	5.000
'Gate Width (ms)	1.050
'Laser Output Level	0.000
'X Position	0.000
'Y Position	0.000
'Z Position	0.000
'Grid Point Number	1.000
'Shot Number	100.000
183.907	-82.000
183.977	-220.000
184.047	-214
184.116	394
184.186	332
184.256	-77
184.325	-589
184.395	-76
184.465	782
184.534	-471
184.604	-442
184.674	425
184.743	-302
184.813	1116
184.883	97
184.952	-374
185.022	-535
185.092	-46
185.161	-23
185.231	149
185.301	-811
185.370	505
185.440	-181
185.509	-135
185.579	-219
185.649	345
185.718	642
185.788	906
185.857	-323
185.927	-241
185.996	-87
186.066	-157
186.136	94
186.205	-230
186.275	-173
186.344	619
186.414	-318
186.483	29
186.553	831
186.622	840
186.692	-369
186.761	385
186.831	515
186.900	-611
186.970	356
187.039	1047
187.109	854
187.178	631
187.248	249
187.317	440
187.387	-328
187.456	410
187.526	147
187.595	173
187.664	-145
187.734	312
187.803	-584
187.873	20
187.942	-50
188.012	645
188.081	-412
188.150	-33
188.220	832
188.289	895
188.358	457
188.428	209
188.497	-419
188.567	561
188.636	-167
188.705	1056
188.775	-510
188.844	-639
188.913	941
188.983	-104
189.052	-69
189.121	378
189.191	-487
189.260	592
189.329	-505
189.399	-190
189.468	426
189.537	550
189.606	-32
189.676	610
189.745	471
189.814	-218
189.883	594
189.953	672
190.022	452
190.091	711
190.161	8
190.230	188
190.299	-755
190.368	-1
190.437	-185
190.507	755
190.576	356
190.645	426
190.714	-519
190.783	-442
190.853	167
190.922	490
190.991	512
191.060	552
191.129	-882
191.198	-359
191.268	-195
191.337	449
191.406	-92
191.475	334
191.544	72
191.613	-270
191.682	422
191.752	703
191.821	-132
191.890	-546
191.959	-935
192.028	687
192.097	-447
192.166	-46
192.235	-756
192.304	39
192.373	131
192.442	-326
192.511	-246
192.580	-238
192.650	122
192.719	184
192.788	181
192.857	-192
192.926	-147
192.995	-386
193.064	1063
193.133	831
193.202	-206
193.271	-178
193.340	244
193.409	763
193.478	104
193.547	466
193.615	-205
193.684	-208
193.753	-465
193.822	-219
193.891	-577
193.960	295
194.029	171
194.098	148
194.167	-692
194.236	397
194.305	-663
194.374	-95
194.443	193
194.512	538
194.580	893
194.649	-3
194.718	558
194.787	314
194.856	-551
194.925	264
194.994	-886
195.062	-11
195.131	-472
195.200	813
195.269	-53
195.338	-5
195.407	17
195.475	91
195.544	-278
195.613	-432
195.682	-145
195.751	671
195.819	-343
195.888	444
195.957	438
196.026	-138
196.094	-4
196.163	-163
196.232	-78
196.301	-104
196.369	-48
196.438	-287
196.507	-350
196.576	-103
196.644	116
196.713	-170
196.782	-632
196.850	-106
196.919	-548
196.988	-289
197.056	-77
197.125	-542
197.194	314
197.262	232
197.331	475
197.400	-22
197.468	-197
197.537	-466
197.606	152
197.674	86
197.743	190
197.812	143
197.880	-13
197.949	306
198.017	264
198.086	812
198.155	-327
198.223	345
198.292	575
198.360	-7
198.429	326
198.497	114
198.566	407
198.635	947
198.703	891
198.772	-76
198.840	881
198.909	983
198.977	427
199.046	374
199.114	-328
199.183	-160
199.251	632
199.320	602
199.388	-757
199.457	-531
199.525	-269
199.594	314
199.662	-305
199.731	250
199.799	385
199.867	263
199.936	-603
200.004	-232
200.073	10
200.141	774
200.210	-449
200.278	-74
200.346	706
200.415	459
200.483	-471
200.552	-226
200.620	1
200.688	322
200.757	56
200.825	-553
200.893	433
200.962	52
201.030	-393
201.098	-590
201.167	208
201.235	204
201.303	-647
201.372	477
201.440	741
201.508	444
201.577	825
201.645	622
201.713	385
201.781	357
201.850	688
201.918	1067
201.986	177
202.055	457
202.123	-372
202.191	646
202.259	556
202.327	49
202.396	-187
202.464	39
202.532	-318
202.600	2754
202.669	1266
202.737	730
202.805	-555
202.873	-332
202.941	31
203.009	348
203.078	-282
203.146	10
203.214	243
203.282	-775
203.350	8
203.418	525
203.487	86
203.555	-34
203.623	-541
203.691	260
203.759	-95
203.827	-506
203.895	-747
203.963	-860
204.031	-893
204.099	-276
204.168	-599
204.236	307
204.304	-241
204.372	-239
204.440	21
204.508	-658
204.576	-214
204.644	382
204.712	-453
204.780	-260
204.848	-590
204.916	-163
204.984	-691
205.052	-469
205.120	-784
205.188	141
205.256	-99
205.324	-226
205.392	-355
205.460	424
205.528	149
205.596	592
205.664	-29
205.732	-121
205.799	-389
205.867	1061
205.935	-1036
206.003	454
206.071	-467
206.139	-834
206.207	-647
206.275	-25
206.343	-1252
206.411	143
206.478	-111
206.546	748
206.614	-865
206.682	-47
206.750	-640
206.818	1013
206.885	996
206.953	-670
207.021	283
207.089	-124
207.157	-1357
207.225	-201
207.292	-585
207.360	49
207.428	-997
207.496	-26
207.563	-60
207.631	267
207.699	-195
207.767	287
207.834	-742
207.902	5
207.970	44
208.038	-75
208.105	-536
208.173	-153
208.241	-54
208.309	691
208.376	455
208.444	111
208.512	-904
208.579	-223
208.647	731
208.715	1229
208.782	181
208.850	457
208.918	-424
208.985	264
209.053	139
209.120	-203
209.188	-937
209.256	306
209.323	-1083
209.391	-137
209.459	967
209.526	390
209.594	-431
209.661	-30
209.729	-1001
209.796	66
209.864	-178
209.932	-1496
209.999	303
210.067	479
210.134	-94
210.202	-28
210.269	322
210.337	1021
210.404	77
210.472	534
210.539	-338
210.607	-166
210.674	359
210.742	836
210.809	494
210.877	59
210.944	237
211.012	-720
211.079	1084
211.146	-486
211.214	-355
211.281	1258
211.349	1254
211.416	1018
211.484	3
211.551	-240
211.618	-220
211.686	736
211.753	-1079
211.821	372
211.888	-7
211.955	611
212.023	-117
212.090	408
212.157	-223
212.225	71
212.292	638
212.359	1059
212.427	3733
212.494	1273
212.561	-305
212.629	-200
212.696	-233
212.763	543
212.831	-260
212.898	238
212.965	57
213.032	-53
213.100	-530
213.167	18
213.234	123
213.301	369
213.369	-171
213.436	-465
213.503	-721
213.570	48
213.638	-548
213.705	-935
213.772	-1138
213.839	-105
213.906	626
213.973	192
214.041	-60
214.108	-68
214.175	-92
214.242	355
214.309	136
214.376	136
214.444	-340
214.511	-298
214.578	14
214.645	406
214.712	374
214.779	-234
214.846	-741
214.913	1085
214.980	-552
215.048	626
215.115	857
215.182	311
215.249	-238
215.316	-416
215.383	-55
215.450	-17
215.517	-523
215.584	301
215.651	-294
215.718	-758
215.785	-564
215.852	-103
215.919	-351
215.986	407
216.053	260
216.120	203
216.187	372
216.254	785
216.321	25
216.388	-172
216.455	-444
216.522	-36
216.589	-378
216.656	46
216.722	218
216.789	-334
216.856	-864
216.923	-110
216.990	-255
217.057	-55
217.124	-1309
217.191	-680
217.258	13
217.324	-598
217.391	-767
217.458	-4
217.525	-451
217.592	-421
217.659	-1005
217.725	976
217.792	-636
217.859	651
217.926	-495
217.993	218
218.059	-2
218.126	-193
218.193	-1236
218.260	-309
218.327	-688
218.393	-1263
218.460	-191
218.527	-770
218.594	-9
218.660	186
218.727	560
218.794	-1092
218.860	-21
218.927	-280
218.994	-495
219.061	-205
219.127	-811
219.194	476
219.261	-19
219.327	87
219.394	-219
219.461	-917
219.527	-229
219.594	743
219.661	124
219.727	-334
219.794	13
219.860	54
219.927	26
219.994	1113
220.060	2558
220.127	3154
220.193	664
220.260	-142
220.326	35
220.393	1111
220.460	-579
220.526	289
220.593	-1269
220.659	862
220.726	-416
220.792	1067
220.859	339
220.925	1299
220.992	-24
221.058	1907
221.125	2593
221.191	974
221.258	-510
221.324	363
221.391	-312
221.457	-61
221.524	-194
221.590	887
221.657	1933
221.723	919
221.789	187
221.856	1912
221.922	-845
221.989	587
222.055	-24
222.121	-930
222.188	1149
222.254	-133
222.321	17
222.387	-40
222.453	-599
222.520	-31
222.586	-364
222.652	395
222.719	-987
222.785	23
222.851	-424
222.918	-10
222.984	191
223.050	-588
223.116	-1926
223.183	404
223.249	-510
223.315	-712
223.382	76
223.448	271
223.514	-1116
223.580	208
223.647	-658
223.713	-988
223.779	-495
223.845	-318
223.911	-1018
223.978	-1279
224.044	-384
224.110	-663
224.176	-378
224.242	-124
224.309	-1855
224.375	608
224.441	-374
224.507	19
224.573	-1540
224.639	320
224.705	-480
224.772	415
224.838	-930
224.904	830
224.970	-434
225.036	121
225.102	-699
225.168	291
225.234	-183
225.300	-369
225.366	-428
225.432	449
225.499	-784
225.565	-174
225.631	-1407
225.697	-685
225.763	-920
225.829	-157
225.895	224
225.961	-97
226.027	-160
226.093	-893
226.159	-287
226.225	870
226.291	592
226.357	1501
226.423	189
226.489	-424
226.554	-309
226.620	-348
226.686	-1048
226.752	435
226.818	131
226.884	1551
226.950	2237
227.016	705
227.082	38
227.148	94
227.214	84
227.279	-179
227.345	121
227.411	666
227.477	2627
227.543	4734
227.609	5666
227.674	2839
227.740	-47
227.806	401
227.872	-269
227.938	-257
228.003	482
228.069	-626
228.135	-628
228.201	657
228.267	-529
228.332	38
228.398	-1442
228.464	153
228.530	-609
228.595	136
228.661	-1121
228.727	-552
228.792	235
228.858	-659
228.924	-2228
228.990	1432
229.055	-1512
229.121	-137
229.187	473
229.252	-942
229.318	-766
229.384	-209
229.449	417
229.515	-1474
229.581	-1033
229.646	1600
229.712	-855
229.777	-61
229.843	-173
229.909	-161
229.974	113
230.040	-41
230.105	-536
230.171	-40
230.236	305
230.302	843
230.368	-88
230.433	-338
230.499	-697
230.564	1348
230.630	-899
230.695	625
230.761	507
230.826	-1349
230.892	1119
230.957	-179
231.023	-940
231.088	236
231.154	-633
231.219	67
231.284	-1507
231.350	-181
231.415	-978
231.481	733
231.546	-493
231.612	148
231.677	-1440
231.742	-952
231.808	1168
231.873	-510
231.939	-1520
232.004	1649
232.069	161
232.135	-1297
232.200	-1065
232.265	1065
232.331	-716
232.396	-1137
232.461	-1187
232.527	-226
232.592	-1204
232.657	-294
232.723	-253
232.788	-861
232.853	267
232.918	21
232.984	-786
233.049	-363
233.114	-433
233.179	44
233.245	368
233.310	797
233.375	-1780
233.440	182
233.506	-1351
233.571	-586
233.636	-314
233.701	-187
233.766	-297
233.832	65
233.897	-904
233.962	-1247
234.027	1181
234.092	754
234.157	-185
234.222	454
234.288	-121
234.353	1341
234.418	1199
234.483	659
234.548	-466
234.613	-343
234.678	-295
234.743	-163
234.808	1356
234.873	-1307
234.938	734
235.004	-123
235.069	66
235.134	-753
235.199	-763
235.264	-532
235.329	-1505
235.394	927
235.459	404
235.524	-1033
235.589	-20
235.654	-712
235.719	-1187
235.784	449
235.849	-365
235.913	389
235.978	-61
236.043	459
236.108	-822
236.173	-1012
236.238	589
236.303	-865
236.368	-707
236.433	686
236.498	-431
236.563	-108
236.627	-130
236.692	3725
236.757	2764
236.822	109
236.887	-292
236.952	441
237.017	-851
237.081	1497
237.146	-1872
237.211	1282
237.276	3009
237.341	7801
237.405	1438
237.470	571
237.535	-341
237.600	450
237.664	-292
237.729	-774
237.794	-1119
237.859	1110
237.923	-640
237.988	600
238.053	526
238.118	33
238.182	1802
238.247	3194
238.312	-609
238.376	52
238.441	-1372
238.506	1514
238.570	-1149
238.635	1560
238.700	-754
238.764	-672
238.829	696
238.893	-99
238.958	268
239.023	695
239.087	-607
239.152	614
239.216	-471
239.281	871
239.346	502
239.410	362
239.475	662
239.539	2200
239.604	516
239.668	1457
239.733	1296
239.797	4763
239.862	11386
239.926	8682
239.991	2315
240.055	1865
240.120	360
240.184	604
240.249	-224
240.313	-792
240.378	-468
240.442	186
240.507	2256
240.571	99
240.635	-50
240.700	311
240.764	962
240.829	-232
240.893	-759
240.957	471
241.022	572
241.086	1966
241.151	-76
241.215	-428
241.279	1303
241.344	-23
241.408	24
241.472	-318
241.537	-2
241.601	-290
241.665	-1381
241.730	-279
241.794	194
241.858	-1011
241.922	-396
241.987	354
242.051	0
242.115	-740
242.179	-181
242.244	-321
242.308	472
242.372	-392
242.436	-696
242.501	356
242.565	-1289
242.629	-369
242.693	395
242.757	-112
242.822	-1020
242.886	156
242.950	477
243.014	163
243.078	-57
243.142	80
243.206	-472
243.271	269
243.335	-453
243.399	1109
243.463	1851
243.527	11459
243.591	2653
243.655	546
243.719	-902
243.783	1364
243.847	629
243.911	1213
243.975	-361
244.040	-824
244.104	635
244.168	562
244.232	-889
244.296	652
244.360	357
244.424	-860
244.488	-301
244.552	732
244.615	-1633
244.679	883
244.743	-1333
244.807	-600
244.871	180
244.935	865
244.999	-914
245.063	-346
245.127	639
245.191	650
245.255	231
245.319	446
245.383	-915
245.446	544
245.510	-656
245.574	568
245.638	907
245.702	-1104
245.766	133
245.829	1852
245.893	-565
245.957	-448
246.021	-85
246.085	-117
246.149	105
246.212	864
246.276	1921
246.340	85
246.404	-64
246.467	1009
246.531	-2154
246.595	981
246.659	535
246.722	-718
246.786	15
246.850	814
246.913	-310
246.977	-1184
247.041	323
247.104	161
247.168	177
247.232	860
247.295	2729
247.359	2000
247.423	-125
247.486	917
247.550	1355
247.614	630
247.677	416
247.741	-375
247.804	200
247.868	5245
247.932	995
247.995	4278
248.059	94
248.122	-815
248.186	1274
248.249	674
248.313	5152
248.376	6604
248.440	1907
248.503	-618
248.567	1903
248.630	-162
248.694	-90
248.757	1274
248.821	6015
248.884	4379
248.948	1723
249.011	4370
249.075	6645
249.138	6705
249.202	1302
249.265	84
249.328	1272
249.392	-109
249.455	-41
249.519	253
249.582	-418
249.645	1169
249.709	417
249.772	645
249.835	657
249.899	979
249.962	1037
250.025	424
250.089	1082
250.152	3730
250.215	641
250.279	548
250.342	1129
250.405	1184
250.468	-316
250.532	509
250.595	1748
250.658	8086
250.721	21525
250.785	5398
250.848	2583
250.911	390
250.974	1117
251.038	955
251.101	4194
251.164	1398
251.227	1708
251.290	1759
251.354	2176
251.417	15130
251.480	17883
251.543	8216
251.606	30043
251.669	25119
251.732	7223
251.795	5038
251.859	5214
251.922	18711
251.985	11746
252.048	3485
252.111	1572
252.174	823
252.237	1961
252.300	8754
252.363	6883
252.426	26593
252.489	8060
252.552	2802
252.615	1249
252.678	3400
252.741	5214
252.804	8181
252.867	25316
252.930	12137
252.993	3273
253.056	2853
253.119	1095
253.182	772
253.245	1233
253.308	2231
253.371	250
253.434	1200
253.497	887
253.559	3272
253.622	1414
253.685	475
253.748	1048
253.811	103
253.874	1004
253.937	304
254.000	832
254.062	839
254.125	3064
254.188	3139
254.251	1174
254.314	-250
254.376	108
254.439	1778
254.502	1112
254.565	1004
254.628	4606
254.690	1687
254.753	-38
254.816	758
254.878	1012
254.941	1099
255.004	2614
255.067	1605
255.129	104
255.192	-14
255.255	-1045
255.317	411
255.380	625
255.443	-70
255.505	344
255.568	-1324
255.631	-191
255.693	607
255.756	-189
255.819	1981
255.881	-162
255.944	275
256.006	-110
256.069	100
256.132	-518
256.194	609
256.257	853
256.319	1628
256.382	554
256.444	2334
256.507	1393
256.569	589
256.632	38
256.694	-480
256.757	1069
256.819	5882
256.882	1191
256.944	370
257.007	581
257.069	-22
257.132	331
257.194	907
257.257	-409
257.319	-203
257.381	-1095
257.444	2589
257.506	4977
257.569	8014
257.631	2791
257.693	1471
257.756	701
257.818	-54
257.880	-177
257.943	746
258.005	-482
258.067	666
258.130	-48
258.192	637
258.254	355
258.317	566
258.379	3
258.441	1054
258.503	981
258.566	1779
258.628	3187
258.690	399
258.753	872
258.815	861
258.877	-88
258.939	332
259.001	298
259.064	313
259.126	-127
259.188	228
259.250	374
259.312	328
259.375	924
259.437	1450
259.499	596
259.561	746
259.623	837
259.685	-689
259.747	240
259.809	1662
259.872	3563
259.934	7049
259.996	6157
260.058	1987
260.120	-763
260.182	731
260.244	479
260.306	741
260.368	137
260.430	-126
260.492	217
260.554	2815
260.616	1073
260.678	2292
260.740	3480
260.802	57
260.864	386
260.926	-479
260.988	921
261.050	-52
261.112	446
261.174	3986
261.236	3412
261.298	1018
261.359	735
261.421	3479
261.483	-202
261.545	1315
261.607	-902
261.669	927
261.731	48
261.793	1594
261.854	312
261.916	1067
261.978	-17
262.040	1152
262.102	373
262.164	199
262.225	1636
262.287	716
262.349	-56
262.411	1269
262.472	1595
262.534	-102
262.596	1540
262.658	1531
262.719	-347
262.781	1164
262.843	1112
262.904	2081
262.966	181
263.028	1028
263.090	3249
263.151	12877
263.213	5063
263.275	1092
263.336	901
263.398	1089
263.459	292
263.521	613
263.583	1756
263.644	1302
263.706	151
263.767	246
263.829	741
263.891	1113
263.952	-91
264.014	471
264.075	363
264.137	1243
264.198	1229
264.260	655
264.321	-3
264.383	515
264.444	744
264.506	887
264.567	75
264.629	1516
264.690	-434
264.752	863
264.813	120
264.875	-169
264.936	1089
264.998	841
265.059	1046
265.120	1279
265.182	707
265.243	1523
265.305	2309
265.366	795
265.427	764
265.489	1567
265.550	-200
265.611	263
265.673	102
265.734	589
265.795	931
265.857	345
265.918	-244
265.979	989
266.040	3959
266.102	3719
266.163	834
266.224	364
266.286	778
266.347	476
266.408	337
266.469	1157
266.530	1354
266.592	388
266.653	1960
266.714	1449
266.775	1179
266.836	1811
266.898	17
266.959	1870
267.020	207
267.081	2326
267.142	2046
267.203	1862
267.264	483
267.326	2611
267.387	1316
267.448	608
267.509	1163
267.570	1566
267.631	417
267.692	741
267.753	1347
267.814	526
267.875	796
267.936	1878
267.997	413
268.058	630
268.119	333
268.180	1024
268.241	102
268.302	454
268.363	568
268.424	588
268.485	-116
268.546	120
268.607	315
268.668	-426
268.729	188
268.790	528
268.851	438
268.912	-57
268.972	337
269.033	363
269.094	-345
269.155	-514
269.216	337
269.277	0
269.338	-125
269.398	859
269.459	-71
269.520	694
269.581	-202
269.642	156
269.702	-82
269.763	641
269.824	468
269.885	1089
269.945	781
270.006	529
270.067	-322
270.128	598
270.188	-666
270.249	-118
270.310	-717
270.370	886
270.431	-58
270.492	-318
270.553	-232
270.613	644
270.674	709
270.734	407
270.795	-77
270.856	682
270.916	-197
270.977	202
271.038	-208
271.098	1014
271.159	446
271.219	26
271.280	-302
271.340	334
271.401	-45
271.462	760
271.522	1085
271.583	27
271.643	1039
271.704	653
271.764	696
271.825	1968
271.885	4070
271.946	9751
272.006	3473
272.066	2702
272.127	7549
272.187	7214
272.248	3594
272.308	2124
272.369	4632
272.429	3544
272.489	1414
272.550	2995
272.610	2732
272.671	1009
272.731	1641
272.791	2211
272.852	619
272.912	2225
272.972	1957
273.033	1423
273.093	1569
273.153	2616
273.214	2105
273.274	1870
273.334	3663
273.394	8629
273.455	5844
273.515	5482
273.575	6782
273.635	6010
273.696	7172
273.756	10351
273.816	6778
273.876	6200
273.936	5068
273.997	7062
274.057	3512
274.117	1970
274.177	2852
274.237	6219
274.297	6670
274.358	3747
274.418	4194
274.478	4068
274.538	1748
274.598	1090
274.658	2375
274.718	4643
274.778	2406
274.838	1172
274.898	1349
274.958	5557
275.018	6050
275.078	4972
275.138	1712
275.198	1083
275.258	1231
275.318	867
275.378	1110
275.438	1583
275.498	980
275.558	2576
275.618	5846
275.678	3010
275.738	1595
275.798	2383
275.858	687
275.918	575
275.978	965
276.038	606
276.098	1584
276.157	1642
276.217	2604
276.277	1746
276.337	1116
276.397	1466
276.457	1309
276.517	2286
276.576	1003
276.636	1424
276.696	1019
276.756	2673
276.815	1969
276.875	2619
276.935	2239
276.995	2181
277.055	1753
277.114	2460
277.174	2033
277.234	2291
277.293	2872
277.353	2238
277.413	1531
277.472	3224
277.532	2178
277.592	5075
277.651	16368
277.711	39955
277.771	13963
277.830	33085
277.890	35917
277.950	21830
278.009	65209
278.069	31615
278.128	25567
278.188	43163
278.248	18592
278.307	41801
278.367	31464
278.426	9564
278.486	5144
278.545	3977
278.605	4080
278.664	4598
278.724	3808
278.783	6267
278.843	10822
278.902	5801
278.962	5352
279.021	8102
279.081	20880
279.140	22086
279.199	10360
279.259	10466
279.318	13780
279.378	20663
279.437	32275
279.496	75671
279.556	267977
279.615	245533
279.675	85543
279.734	42109
279.793	45465
279.853	55812
279.912	24084
279.971	16653
280.031	15317
280.090	19322
280.149	29052
280.208	44698
280.268	182911
280.327	208755
280.386	65071
280.445	29163
280.505	18558
280.564	12681
280.623	10550
280.682	10272
280.742	8805
280.801	7322
280.860	6016
280.919	5289
280.978	5932
281.037	5365
281.097	4006
281.156	6724
281.215	4523
281.274	3965
281.333	5489
281.392	5413
281.451	3197
281.510	4072
281.569	3409
281.628	3626
281.688	3509
281.747	3583
281.806	2987
281.865	3549
281.924	2481
281.983	2623
282.042	2932
282.101	2581
282.160	2422
282.219	3053
282.278	2250
282.337	3880
282.396	2739
282.454	2449
282.513	2340
282.572	4904
282.631	3781
282.690	3713
282.749	2320
282.808	2690
282.867	2336
282.926	2734
282.985	3213
283.043	3383
283.102	2509
283.161	3889
283.220	3706
283.279	5777
283.338	3865
283.396	3631
283.455	3385
283.514	4178
283.573	4317
283.631	4213
283.690	3744
283.749	4096
283.808	4848
283.866	5392
283.925	4316
283.984	5124
284.043	5374
284.101	5354
284.160	5581
284.219	7401
284.277	7245
284.336	7572
284.395	10083
284.453	11677
284.512	10255
284.570	13019
284.629	14542
284.688	18954
284.746	22194
284.805	27230
284.863	35506
284.922	44215
284.981	54574
285.039	68866
285.098	96285
285.156	132481
285.215	121286
285.273	103431
285.332	131070
285.390	112573
285.449	83401
285.507	62396
285.566	46655
285.624	36388
285.683	30058
285.741	24133
285.799	19291
285.858	17309
285.916	14451
285.975	12182
286.033	11145
286.091	10377
286.150	8456
286.208	8438
286.267	7044
286.325	7391
286.383	6396
286.442	6672
286.500	5678
286.558	5879
286.616	4809
286.675	4762
286.733	4942
286.791	3969
286.850	4360
286.908	4424
286.966	4126
287.024	4233
287.083	3733
287.141	3802
287.199	3878
287.257	3460
287.315	3044
287.374	2581
287.432	2318
287.490	3166
287.548	2865
287.606	3488
287.664	2110
287.723	3517
287.781	3475
287.839	2870
287.897	2787
287.955	3897
288.013	4211
288.071	6475
288.129	18896
288.187	75313
288.245	34391
288.303	10976
288.361	6165
288.419	4423
288.477	3175
288.535	3302
288.593	2414
288.651	2916
288.709	2292
288.767	1595
288.825	1282
288.883	2675
288.941	2124
288.999	2357
289.057	1491
289.115	881
289.173	1564
289.231	2063
289.289	1353
289.346	1127
289.404	1913
289.462	2919
289.520	2190
289.578	1745
289.636	1160
289.694	1669
289.751	1447
289.809	1770
289.867	1395
289.925	1734
289.983	1718
290.040	2160
290.098	1264
290.156	1520
290.214	1341
290.271	1382
290.329	1600
290.387	1716
290.444	905
290.502	1485
290.560	1374
290.617	702
290.675	1002
290.733	1643
290.790	647
290.848	1695
290.906	1331
290.963	1112
291.021	1684
291.078	633
291.136	798
291.194	1864
291.251	3374
291.309	1586
291.366	1272
291.424	1359
291.481	1869
291.539	3295
291.596	4956
291.654	3066
291.711	2441
291.769	1348
291.826	1490
291.884	1644
291.941	879
291.999	1532
292.056	1111
292.114	1882
292.171	758
292.228	2248
292.286	1591
292.343	1405
292.401	1714
292.458	1915
292.515	1089
292.573	2105
292.630	1280
292.687	1546
292.745	1567
292.802	978
292.859	4857
292.917	8104
292.974	3020
293.031	2947
293.089	2226
293.146	718
293.203	1731
293.260	561
293.318	719
293.375	1450
293.432	454
293.489	2334
293.546	2157
293.604	3146
293.661	9484
293.718	16765
293.775	7202
293.832	5732
293.889	8149
293.947	6760
294.004	3764
294.061	2765
294.118	2907
294.175	6806
294.232	10786
294.289	8265
294.346	3754
294.403	3309
294.460	2126
294.517	1556
294.574	2005
294.631	1842
294.688	2035
294.745	2424
294.802	7997
294.859	6925
294.916	2392
294.973	2209
295.030	1132
295.087	1947
295.144	1198
295.201	2429
295.258	1786
295.315	1841
295.372	3057
295.429	5215
295.486	3315
295.542	1405
295.599	2224
295.656	4636
295.713	1565
295.770	5159
295.827	1968
295.883	1617
295.940	1809
295.997	1736
296.054	1345
296.111	1223
296.167	1684
296.224	1287
296.281	1319
296.338	870
296.394	1533
296.451	1012
296.508	1181
296.564	3912
296.621	2566
296.678	6574
296.734	11190
296.791	4301
296.848	2257
296.904	1952
296.961	2614
297.018	5550
297.074	4642
297.131	2635
297.187	1566
297.244	2273
297.301	6016
297.357	12657
297.414	5298
297.470	3121
297.527	1278
297.583	1879
297.640	1000
297.696	1618
297.753	491
297.809	1346
297.866	1576
297.922	1112
297.979	840
298.035	1496
298.092	1519
298.148	3473
298.204	3579
298.261	2960
298.317	3200
298.374	9006
298.430	5928
298.486	3028
298.543	1035
298.599	2168
298.656	1725
298.712	2026
298.768	3737
298.824	4024
298.881	1693
298.937	1537
298.993	1426
299.050	1363
299.106	1420
299.162	1722
299.218	2460
299.275	2165
299.331	2617
299.387	3756
299.443	9919
299.500	21376
299.556	17397
299.612	8004
299.668	5200
299.724	14313
299.780	22055
299.837	9809
299.893	6197
299.949	12904
300.005	22139
300.061	16228
300.117	27437
300.173	15283
300.229	5512
300.285	3915
300.341	3741
300.397	3777
300.453	3405
300.510	3034
300.566	3497
300.622	6519
300.678	22424
300.734	35982
300.790	16991
300.845	13188
300.901	13634
300.957	23379
301.013	12107
301.069	5432
301.125	3730
301.181	3216
301.237	2450
301.293	2156
301.349	2531
301.405	2969
301.461	2248
301.516	2349
301.572	944
301.628	1510
301.684	1508
301.740	2436
301.796	2832
301.851	2489
301.907	3356
301.963	4252
302.019	5782
302.074	20499
302.130	23272
302.186	11325
302.242	4611
302.297	3939
302.353	1565
302.409	2732
302.464	2570
302.520	2589
302.576	4555
302.631	8164
302.687	2750
302.743	1941
302.798	1227
302.854	1043
302.910	1791
302.965	1297
303.021	2208
303.076	2700
303.132	2216
303.187	2707
303.243	1061
303.299	1538
303.354	1108
303.410	2318
303.465	90
303.521	1270
303.576	960
303.632	2020
303.687	1821
303.743	6885
303.798	7071
303.853	3107
303.909	1793
303.964	1135
304.020	1837
304.075	1730
304.130	1488
304.186	3189
304.241	3195
304.297	3234
304.352	2401
304.358	2255
304.407	1069
304.449	912
304.463	862
304.518	1457
304.539	1565
304.573	1722
304.629	1999
304.630	1977
304.684	1118
304.720	3302
304.739	4390
304.794	8539
304.811	7680
304.850	5620
304.902	2290
304.905	2073
304.960	2444
304.992	1845
305.015	1394
305.071	1187
305.083	1193
305.126	1311
305.173	1076
305.181	1025
305.236	879
305.264	1471
305.292	2063
305.347	1230
305.354	1329
305.402	2030
305.445	1618
305.457	1475
305.512	1430
305.535	1608
305.567	1914
305.622	1659
305.626	1637
305.678	1424
305.716	3402
305.733	4185
305.788	6018
305.807	5322
305.843	4182
305.897	5639
305.898	5651
305.953	6614
305.988	4663
306.008	3610
306.063	2737
306.078	2297
306.118	1375
306.168	1290
306.173	1259
306.228	1653
306.259	1010
306.283	565
306.338	1426
306.349	1401
306.393	1161
306.440	1292
306.448	1368
306.503	1985
306.530	1971
306.558	1898
306.613	1983
306.620	2011
306.668	2322
306.711	3510
306.723	3697
306.778	3422
306.801	2780
306.833	2153
306.888	1266
306.892	1257
306.943	1186
306.982	1331
306.997	1361
307.052	1587
307.072	1398
307.107	1130
307.162	1662
307.163	1660
307.217	1443
307.253	1697
307.272	1863
307.327	1620
307.343	1770
307.381	2056
307.434	2154
307.436	2176
307.491	2873
307.524	3222
307.546	3068
307.600	3675
307.614	3173
307.655	2104
307.704	2484
307.710	2544
307.765	2233
307.795	2340
307.819	2336
307.874	2868
307.885	2892
307.929	2893
307.975	3311
307.984	3514
308.038	4414
308.065	5183
308.093	8143
308.148	15667
308.156	17843
308.202	26787
308.246	33996
308.257	34290
308.312	18145
308.336	12299
308.366	8219
308.421	5749
308.426	5557
308.475	4604
308.517	4276
308.530	4185
308.585	5134
308.607	5045
308.639	4743
308.694	5495
308.697	5492
308.748	5695
308.787	6551
308.803	6765
308.857	6745
308.877	6882
308.912	8043
308.967	10204
308.967	10269
309.021	16975
309.058	22484
309.076	25474
309.130	37317
309.148	40353
309.185	54752
309.238	79028
309.239	79232
309.293	98810
309.328	99914
309.348	92262
309.402	57424
309.418	47912
309.457	37129
309.508	28436
309.511	28463
309.566	35134
309.598	41452
309.620	51654
309.674	84854
309.688	94014
309.729	90757
309.778	72032
309.783	70221
309.837	44341
309.868	31568
309.892	26524
309.946	17739
309.959	16594
310.001	14195
310.049	11560
310.055	11152
310.109	8678
310.139	7270
310.163	6320
310.218	5072
310.229	4842
310.272	4641
310.319	4812
310.326	4651
310.381	3280
310.409	2796
310.435	2640
310.489	2201
310.499	2179
310.543	2365
310.589	2398
310.598	2448
310.652	2932
310.679	3222
310.706	2875
310.760	2247
310.769	2094
310.814	2026
310.859	2272
310.868	2273
310.923	2151
310.948	2161
310.977	1987
311.031	1588
311.038	1552
311.085	1757
311.128	1746
311.139	1743
311.193	2082
311.218	2142
311.247	2149
311.301	2344
311.308	2338
311.356	1960
311.398	1786
311.410	1713
311.464	1374
311.488	1225
311.518	1349
311.572	1542
311.578	1569
311.626	1806
311.668	2028
311.680	2059
311.734	2175
311.758	2248
311.788	1873
311.842	1240
311.847	1172
311.896	1593
311.937	2021
311.950	2001
312.004	1925
312.027	1895
312.058	1965
312.112	2099
312.117	2113
312.165	1764
312.207	1471
312.297	1533
312.386	1039
312.476	1575
312.566	1932
312.656	1284
312.745	2017
312.835	2352
312.925	1353
313.015	2018
313.104	1690
313.194	1612
313.284	1709
313.374	2553
313.463	1635
313.553	2142
313.643	2358
313.732	2314
313.822	2160
313.912	2460
314.001	2355
314.091	3450
314.180	2903
314.270	3419
314.360	2425
314.449	3096
314.539	2246
314.628	2591
314.718	2363
314.808	3986
314.897	3496
314.987	4649
315.076	4623
315.166	4771
315.255	3680
315.345	4087
315.434	2722
315.524	4121
315.613	5592
315.703	10313
315.792	35477
315.881	130912
315.971	33018
316.060	7756
316.150	4658
316.239	4018
316.328	3090
316.418	4421
316.507	3678
316.597	3832
316.686	3844
316.775	3752
316.865	3964
316.954	3172
317.043	2892
317.133	1887
317.222	3076
317.311	2640
317.400	2382
317.490	5311
317.579	5592
317.668	7331
317.757	15621
317.847	63154
317.936	188008
318.025	49423
318.114	45719
318.203	16916
318.293	5213
318.382	6343
318.471	5673
318.560	6128
318.649	5448
318.738	2732
318.828	2795
318.917	2190
319.006	2391
319.095	3345
319.184	4833
319.273	3656
319.362	2508
319.451	1781
319.540	1873
319.629	2525
319.718	3047
319.807	3030
319.896	3284
319.985	6394
320.074	3074
320.163	2644
320.252	2245
320.341	2418
320.430	2176
320.519	2463
320.608	2622
320.697	3297
320.786	3282
320.875	5316
320.964	5016
321.053	4938
321.142	4970
321.230	6851
321.319	7234
321.408	9022
321.497	7742
321.586	6359
321.675	4649
321.764	4817
321.852	5186
321.941	5399
322.030	4659
322.119	5864
322.207	6726
322.296	9610
322.385	8683
322.474	11400
322.562	12903
322.651	8541
322.740	6462
322.829	6448
322.917	5258
323.006	4146
323.095	4273
323.183	3287
323.272	3001
323.361	4466
323.449	6858
323.538	3485
323.626	4524
323.715	3745
323.804	2174
323.892	4412
323.981	2953
324.069	3022
324.158	3662
324.246	2929
324.335	2358
324.424	2096
324.512	2476
324.601	2452
324.689	1449
324.778	2565
324.866	2180
324.954	1764
325.043	1676
325.131	1569
325.220	2442
325.308	1603
325.397	2558
325.485	1760
325.574	1535
325.662	2067
325.750	1256
325.839	1660
325.927	1425
326.015	2160
326.104	1577
326.192	1818
326.280	1635
326.369	1938
326.457	1432
326.545	1740
326.634	1558
326.722	1631
326.810	1667
326.898	2585
326.987	2476
327.075	1787
327.163	2665
327.251	1953
327.340	1592
327.428	3986
327.516	3385
327.604	2621
327.692	1733
327.781	1847
327.869	1447
327.957	1098
328.045	1430
328.133	1599
328.221	734
328.309	1389
328.397	805
328.485	2413
328.574	4723
328.662	6331
328.750	2492
328.838	2067
328.926	1624
329.014	1288
329.102	1193
329.190	2331
329.278	1358
329.366	1949
329.454	701
329.542	933
329.630	800
329.718	1512
329.806	1379
329.893	1759
329.981	372
330.069	1160
330.157	2081
330.245	2357
330.333	947
330.421	1411
330.509	1703
330.597	2564
330.684	1538
330.772	1214
330.860	1640
330.948	1714
331.036	1229
331.123	1585
331.211	1237
331.299	1534
331.387	1753
331.475	2103
331.562	1394
331.650	579
331.738	1115
331.825	1329
331.913	1147
332.001	1213
332.089	1925
332.176	1971
332.264	2138
332.352	2120
332.439	1463
332.527	1945
332.614	1434
332.702	2223
332.790	2231
332.877	3596
332.965	9404
333.052	7377
333.140	11506
333.228	24187
333.315	5395
333.403	2960
333.490	4537
333.578	13422
333.665	38835
333.753	11903
333.840	3791
333.928	2776
334.015	3893
334.103	5848
334.190	8916
334.278	7797
334.365	11249
334.452	11841
334.540	6861
334.627	5566
334.715	8147
334.802	14230
334.889	27452
334.977	35134
335.064	18793
335.151	8043
335.239	5975
335.326	4698
335.413	6555
335.501	7299
335.588	4930
335.675	5656
335.762	6494
335.850	9833
335.937	14101
336.024	27685
336.111	49647
336.199	41426
336.286	16290
336.373	7495
336.460	4977
336.547	4315
336.635	3773
336.722	2899
336.809	2643
336.896	2485
336.983	3500
337.070	6245
337.157	7234
337.245	6259
337.332	4743
337.419	2214
337.506	2167
337.593	2497
337.680	2086
337.767	4385
337.854	2576
337.941	2265
338.028	2747
338.115	1829
338.202	2344
338.289	2334
338.376	3492
338.463	2695
338.550	3177
338.637	3066
338.724	2185
338.811	2792
338.898	1726
338.984	1966
339.071	1300
339.158	1093
339.245	1771
339.332	2134
339.419	2383
339.506	2066
339.593	1327
339.679	1752
339.766	1198
339.853	1759
339.940	945
340.027	2489
340.113	1762
340.200	2487
340.287	900
340.374	1127
340.460	1296
340.547	152
340.634	1869
340.720	3377
340.807	915
340.894	1889
340.980	1539
341.067	1381
341.154	2236
341.240	1204
341.327	1605
341.414	2125
341.500	1246
341.587	1471
341.674	1255
341.760	2088
341.847	1168
341.933	1579
342.020	860
342.106	1342
342.193	1412
342.279	973
342.366	1120
342.452	1808
342.539	951
342.625	1319
342.712	2888
342.798	1890
342.885	473
342.971	1026
343.058	1118
343.144	1085
343.230	1467
343.317	1851
343.403	773
343.490	1576
343.576	817
343.662	1436
343.749	928
343.835	2124
343.921	2347
344.008	12308
344.094	18356
344.180	3691
344.267	1737
344.353	3854
344.439	3367
344.525	1845
344.612	1637
344.698	499
344.784	459
344.870	1194
344.957	877
345.043	2228
345.129	954
345.215	1513
345.301	1455
345.387	1219
345.474	1025
345.560	1239
345.646	921
345.732	1963
345.818	1334
345.904	1660
345.990	1255
346.076	864
346.162	988
346.249	1700
346.335	1349
346.421	2130
346.507	2522
346.593	4884
346.679	1101
346.765	2763
346.851	3297
346.937	1985
347.023	2419
347.108	998
347.194	480
347.280	1477
347.366	2737
347.452	9600
347.538	10869
347.624	7538
347.710	3062
347.796	1483
347.882	1103
347.967	1100
348.053	1973
348.139	2143
348.225	966
348.311	844
348.397	1181
348.482	2213
348.568	2118
348.654	4005
348.740	12380
348.825	8150
348.911	4599
348.997	5407
349.083	6738
349.168	1474
349.254	1936
349.340	1890
349.425	1287
349.511	2295
349.597	1027
349.682	2092
349.768	2836
349.854	1666
349.939	1487
350.025	1108
350.110	2245
350.196	1049
350.282	481
350.367	2209
350.453	1653
350.538	2056
350.624	1020
350.709	1494
350.795	857
350.880	39
350.966	2181
351.051	1297
351.137	1816
351.222	1050
351.308	1476
351.393	2981
351.479	794
351.564	1477
351.649	2296
351.735	1431
351.820	1308
351.906	1060
351.991	530
352.076	2542
352.162	1996
352.247	2030
352.332	1309
352.418	849
352.503	1592
352.588	3645
352.673	1322
352.759	1543
352.844	1150
352.929	1714
353.014	954
353.100	2461
353.185	1964
353.270	833
353.355	2105
353.441	2307
353.526	1412
353.611	1559
353.696	952
353.781	2666
353.866	662
353.952	1420
354.037	1265
354.122	2810
354.207	1616
354.292	1317
354.377	1951
354.462	1290
354.547	876
354.632	2081
354.717	1780
354.802	896
354.887	1286
354.972	1785
355.057	1593
355.142	1233
355.227	1673
355.312	1325
355.397	1492
355.482	2836
355.567	1138
355.652	2792
355.737	1780
355.822	4202
355.907	1824
355.991	2348
356.076	617
356.161	1786
356.246	2266
356.331	2146
356.416	1788
356.501	10800
356.585	6207
356.670	1040
356.755	3416
356.840	2953
356.924	8912
357.009	21309
357.094	6749
357.179	2672
357.263	1562
357.348	2589
357.433	2278
357.517	2038
357.602	1247
357.687	1574
357.771	2659
357.856	2034
357.941	2214
358.025	10894
358.110	32487
358.195	11567
358.279	2473
358.364	2530
358.448	4070
358.533	5922
358.617	4385
358.702	4660
358.787	2225
358.871	2039
358.956	2127
359.040	1928
359.125	1476
359.209	1364
359.294	2031
359.378	4098
359.462	2865
359.547	2036
359.631	1880
359.716	1281
359.800	947
359.885	2005
359.969	40
360.053	1271
360.138	582
360.222	1055
360.306	1140
360.391	2867
360.475	2510
360.559	1798
360.644	2644
360.728	1382
360.812	7198
360.896	11751
360.981	3304
361.065	1763
361.149	1684
361.233	1716
361.318	806
361.402	2179
361.486	2753
361.570	2282
361.654	2544
361.739	2715
361.823	9886
361.907	13620
361.991	3808
362.075	3763
362.159	4626
362.243	13243
362.327	32936
362.411	47090
362.495	14982
362.580	7212
362.664	6417
362.748	6427
362.832	12729
362.916	30799
363.000	90706
363.084	120844
363.168	45164
363.252	12549
363.336	6360
363.420	5926
363.503	8004
363.587	7102
363.671	3831
363.755	4000
363.839	5608
363.923	4201
364.007	6859
364.091	9789
364.175	15568
364.258	43164
364.342	102382
364.426	182088
364.510	83330
364.594	22681
364.677	11774
364.761	14322
364.845	9078
364.929	3757
365.013	3614
365.096	3055
365.180	1819
365.264	4574
365.347	8178
365.431	3962
365.515	728
365.598	1160
365.682	2805
365.766	1300
365.849	1966
365.933	1951
366.017	4008
366.100	1121
366.184	1522
366.267	2492
366.351	1669
366.435	2013
366.518	867
366.602	2098
366.685	2100
366.769	2365
366.852	1509
366.936	2457
367.019	1997
367.103	1304
367.186	3234
367.270	2095
367.353	1321
367.436	3568
367.520	2154
367.603	2758
367.687	2043
367.770	2658
367.853	3321
367.937	5445
368.020	4898
368.104	1608
368.187	2597
368.270	2563
368.353	1726
368.437	1863
368.520	3900
368.603	2066
368.687	1956
368.770	4247
368.853	1365
368.936	2059
369.020	1700
369.103	2172
369.186	622
369.269	1082
369.352	2172
369.436	1379
369.519	1174
369.602	444
369.685	2928
369.768	672
369.851	1763
369.934	1755
370.018	1315
370.101	689
370.184	3179
370.267	2284
370.350	2910
370.433	4650
370.516	20162
370.599	60813
370.682	23178
370.765	6987
370.848	6132
370.931	5565
371.014	3596
371.097	1682
371.180	3469
371.263	2273
371.346	1221
371.429	2474
371.511	1832
371.594	1822
371.677	3342
371.760	4517
371.843	4470
371.926	16610
372.009	27773
372.091	13019
372.174	5562
372.257	9749
372.340	4827
372.423	4389
372.505	5141
372.588	3553
372.671	5212
372.754	5525
372.836	4564
372.919	4252
373.002	5485
373.085	3487
373.167	4272
373.250	5659
373.332	8378
373.415	19601
373.498	33811
373.580	26913
373.663	98321
373.746	82472
373.828	11727
373.911	6175
373.993	4245
374.076	5564
374.159	4129
374.241	4243
374.324	6723
374.406	5794
374.489	10738
374.571	20588
374.654	7046
374.736	7220
374.819	13825
374.901	22639
374.983	20999
375.066	5466
375.148	4218
375.231	6811
375.313	7665
375.395	4361
375.478	3947
375.560	4423
375.643	3735
375.725	7796
375.807	16386
375.890	11721
375.972	3113
376.054	3618
376.136	4142
376.219	2695
376.301	6346
376.383	10413
376.465	4997
376.548	3328
376.630	3148
376.712	8889
376.794	3724
376.877	2223
376.959	882
377.041	2478
377.123	1598
377.205	2421
377.287	769
377.369	2620
377.452	1931
377.534	2493
377.616	1188
377.698	1300
377.780	774
377.862	1816
377.944	2942
378.026	1490
378.108	2421
378.190	1825
378.272	2573
378.354	2028
378.436	1424
378.518	1692
378.600	2533
378.682	2517
378.764	3776
378.846	3990
378.928	1722
379.010	1087
379.091	2976
379.173	2652
379.255	1057
379.337	2206
379.419	3269
379.501	6251
379.583	2834
379.664	2250
379.746	809
379.828	5372
379.910	4006
379.991	4723
380.073	2280
380.155	2909
380.237	2128
380.318	3141
380.400	2226
380.482	3933
380.564	3167
380.645	2507
380.727	2858
380.809	4391
380.890	2557
380.972	2026
381.053	2915
381.135	4390
381.217	3908
381.298	6106
381.380	4779
381.461	5273
381.543	10797
381.624	11834
381.706	4755
381.787	5468
381.869	6475
381.951	11751
382.032	25954
382.113	17755
382.195	5102
382.276	9255
382.358	8069
382.439	14431
382.521	20344
382.602	28366
382.684	23607
382.765	45148
382.846	134567
382.928	279367
383.009	142471
383.090	128735
383.172	373396
383.253	449911
383.334	129488
383.416	51449
383.497	39671
383.578	51253
383.659	107760
383.741	326234
383.822	613403
383.903	290582
383.984	69220
384.066	38589
384.147	22441
384.228	16389
384.309	14384
384.390	12417
384.471	9911
384.553	8958
384.634	9028
384.715	8466
384.796	7604
384.877	9046
384.958	11440
385.039	9342
385.120	6654
385.201	7249
385.282	7363
385.363	9329
385.444	11530
385.525	10957
385.606	12991
385.687	11250
385.768	6581
385.849	7532
385.930	17666
386.011	23169
386.092	8770
386.173	7712
386.254	5623
386.335	6552
386.416	4362
386.496	6003
386.577	7287
386.658	5754
386.739	4021
386.820	6598
386.901	5273
386.981	7955
387.062	9038
387.143	8507
387.224	10316
387.304	11568
387.385	10205
387.466	6996
387.547	10153
387.627	9989
387.708	10753
387.789	13868
387.869	11367
387.950	8222
388.031	6853
388.111	4770
388.192	8219
388.273	9650
388.353	6498
388.434	4040
388.514	4355
388.595	11491
388.676	9680
388.756	5240
388.837	5167
388.917	4542
388.998	2342
389.078	4312
389.159	3673
389.239	2198
389.320	5766
389.400	1528
389.480	5392
389.561	6035
389.641	4893
389.722	3995
389.802	2490
389.883	4277
389.963	7334
390.043	4497
390.124	2421
390.204	4229
390.284	5204
390.365	4101
390.445	6417
390.525	11899
390.605	8767
390.686	3546
390.766	4609
390.846	5223
390.927	3506
391.007	3642
391.087	4841
391.167	3411
391.247	2019
391.328	6185
391.408	5488
391.488	4913
391.568	3786
391.648	4418
391.728	6638
391.808	6963
391.888	6207
391.969	8261
392.049	8210
392.129	9050
392.209	9765
392.289	13803
392.369	12091
392.449	13223
392.529	13043
392.609	16818
392.689	19105
392.769	24537
392.849	28671
392.929	38987
393.009	54258
393.089	84070
393.169	166782
393.248	405338
393.328	818052
393.408	772336
393.488	336334
393.568	132267
393.648	67170
393.728	43175
393.807	29118
393.887	24385
393.967	19855
394.047	16383
394.127	12958
394.206	13428
394.286	24999
394.366	68255
394.446	56011
394.525	13974
394.605	7836
394.685	8584
394.764	11518
394.844	17215
394.924	17052
395.003	8546
395.083	6389
395.163	6804
395.242	6197
395.322	6005
395.402	4507
395.481	8461
395.561	8558
395.640	28171
395.720	43561
395.799	19911
395.879	10326
395.958	10941
396.038	29561
396.117	94103
396.197	78492
396.276	23509
396.356	17154
396.435	23485
396.515	33259
396.594	55309
396.673	127919
396.753	373560
396.832	724267
396.912	492848
396.991	149726
397.070	60506
397.150	32678
397.229	29048
397.308	47934
397.388	66794
397.467	27389
397.546	12423
397.625	7344
397.705	9380
397.784	7049
397.863	6099
397.942	5478
398.022	5102
398.101	5176
398.180	7065
398.259	4409
398.338	4979
398.417	3283
398.497	3151
398.576	4601
398.655	2179
398.734	3623
398.813	2827
398.892	3893
398.971	6034
399.050	3465
399.129	1806
399.208	2694
399.287	3039
399.366	1417
399.445	1671
399.524	1519
399.603	1091
399.682	1535
399.761	3459
399.840	6172
399.919	4825
399.998	1864
400.077	137
400.156	1195
400.235	4094
400.313	839
400.392	568
400.471	2855
400.550	4186
400.629	281
400.708	2089
400.786	1283
400.865	1325
400.944	675
401.023	3186
401.102	42
401.180	871
401.259	455
401.338	256
401.416	1831
401.495	104
401.574	826
401.652	508
401.731	1560
401.810	-193
401.888	-81
401.967	462
402.046	59
402.124	465
402.203	-648
402.281	2081
402.360	716
402.438	1168
402.517	-180
402.596	186
402.674	519
402.753	767
402.831	1628
402.910	1636
402.988	1308
403.066	4602
403.145	2647
403.223	3837
403.302	3497
403.380	3631
403.459	3259
403.537	1703
403.615	1286
403.694	298
403.772	1875
403.850	814
403.929	691
404.007	520
404.085	1164
404.164	948
404.242	434
404.320	2894
404.398	4066
404.477	2981
404.555	12033
404.633	8555
404.711	2598
404.789	2188
404.868	848
404.946	311
405.024	676
405.102	288
405.180	-663
405.258	-1592
405.336	1080
405.415	287
405.493	1283
405.571	1612
405.649	36
405.727	543
405.805	2117
405.883	2639
405.961	1673
406.039	182
406.117	121
406.195	1065
406.273	1456
406.351	7263
406.429	3878
406.507	141
406.585	-806
406.663	847
406.740	111
406.818	-372
406.896	-47
406.974	1430
407.052	-45
407.130	4568
407.208	4636
407.285	1774
407.363	-62
407.441	-4
407.519	-54
407.596	899
407.674	3691
407.752	10701
407.830	6743
407.907	1314
407.985	-467
408.063	506
408.141	224
408.218	843
408.296	-910
408.373	205
408.451	717
408.529	932
408.606	155
408.684	1071
408.762	324
408.839	1585
408.917	847
408.994	2101
409.072	1305
409.149	3438
409.227	8063
409.304	12051
409.382	12216
409.459	14515
409.537	19047
409.614	15297
409.692	9987
409.769	12631
409.846	20793
409.924	24444
410.001	12451
410.079	8395
410.156	5987
410.233	5074
410.311	2157
410.388	3434
410.465	2569
410.543	1688
410.620	3401
410.697	2839
410.775	2585
410.852	2097
410.929	3867
411.006	4042
411.083	2529
411.161	2396
411.238	2951
411.315	2093
411.392	1657
411.469	2704
411.547	1765
411.624	37
411.701	407
411.778	1508
411.855	438
411.932	781
412.009	135
412.086	1223
412.163	258
412.240	763
412.317	960
412.394	1048
412.471	970
412.548	806
412.625	299
412.702	429
412.779	1117
412.856	1233
412.933	358
413.010	22
413.087	1376
413.164	603
413.241	1915
413.318	-226
413.395	296
413.471	315
413.548	222
413.625	576
413.702	-994
413.779	457
413.855	1336
413.932	224
414.009	-710
414.086	766
414.162	328
414.239	764
414.316	1168
414.393	3435
414.469	-414
414.546	-112
414.623	-246
414.699	271
414.776	-284
414.853	433
414.929	684
415.006	520
415.082	122
415.159	346
415.236	695
415.312	956
415.389	554
415.465	141
415.542	-103
415.618	-902
415.695	674
415.771	-548
415.848	55
415.924	1198
416.000	-169
416.077	1351
416.153	-1007
416.230	-188
416.306	-606
416.383	-461
416.459	553
416.535	-11
416.612	708
416.688	800
416.764	1606
416.841	1296
416.917	308
416.993	1426
417.069	1371
417.146	-102
417.222	338
417.298	566
417.374	-4
417.451	565
417.527	-86
417.603	-290
417.679	-396
417.755	722
417.831	-656
417.908	783
417.984	358
418.060	-402
418.136	134
418.212	441
418.288	220
418.364	1203
418.440	-614
418.516	512
418.592	815
418.668	852
418.744	-64
418.820	410
418.896	37
418.972	-333
419.048	251
419.124	1357
419.200	-1033
419.276	752
419.352	-782
419.428	42
419.504	565
419.579	1003
419.655	125
419.731	558
419.807	810
419.883	825
419.959	837
420.034	1477
420.110	854
420.186	2348
420.262	1927
420.337	1604
420.413	1565
420.489	1329
420.565	1776
420.640	1231
420.716	1734
420.792	952
420.867	2373
420.943	1803
421.019	2798
421.094	2513
421.170	2266
421.245	3041
421.321	3566
421.397	3619
421.472	6452
421.548	9560
421.623	6826
421.699	6203
421.774	6784
421.850	7941
421.925	9743
422.001	11712
422.076	14804
422.152	19312
422.227	26023
422.302	38918
422.378	59838
422.453	106058
422.529	184697
422.604	255109
422.679	265063
422.755	264856
422.830	167728
422.905	92691
422.981	55482
423.056	37811
423.131	28780
423.207	20962
423.282	16350
423.357	13179
423.432	11383
423.508	10039
423.583	8295
423.658	7556
423.733	5846
423.808	6197
423.883	5858
423.959	7958
424.034	9821
424.109	8753
424.184	4426
424.259	3813
424.334	3634
424.409	1811
424.484	2308
424.559	1964
424.634	2005
424.709	2189
424.784	1972
424.859	1932
424.934	692
425.009	2177
425.084	2646
425.159	1669
425.234	1299
425.309	727
425.384	1294
425.459	422
425.534	1613
425.609	428
425.683	799
425.758	1631
425.833	1141
425.908	1496
425.983	382
426.058	2083
426.132	402
426.207	216
426.282	1765
426.357	-101
426.431	1033
426.506	1047
426.581	638
426.655	793
426.730	527
426.805	-13
426.879	385
426.954	-79
427.029	434
427.103	2631
427.178	5165
427.253	1884
427.327	760
427.402	-434
427.476	802
427.551	-3
427.625	506
427.700	1106
427.774	533
427.849	1694
427.923	-449
427.998	1183
428.072	1306
428.147	7666
428.221	40094
428.296	101166
428.370	44187
428.444	5187
428.519	1753
428.593	1764
428.667	2530
428.742	3754
428.816	14243
428.890	67902
428.965	83334
429.039	17173
429.113	2553
429.188	1459
429.262	1127
429.336	632
429.410	607
429.485	1106
429.559	1510
429.633	1594
429.707	3099
429.781	12831
429.855	64748
429.930	74890
430.004	16052
430.078	12045
430.152	44380
430.226	141029
430.300	111676
430.374	19635
430.448	6020
430.522	4520
430.596	6321
430.670	23184
430.744	84798
430.818	72721
430.892	10203
430.966	2835
431.040	1289
431.114	237
431.188	17
431.262	143
431.336	-564
431.410	29
431.484	-77
431.557	1459
431.631	574
431.705	4333
431.779	31263
431.853	101845
431.927	52820
432.000	6193
432.074	762
432.148	344
432.222	-235
432.295	-342
432.369	-1145
432.443	582
432.516	2566
432.590	4371
432.664	489
432.737	-868
432.811	-1099
432.885	-388
432.958	-98
433.032	-928
433.106	-339
433.179	-431
433.253	-646
433.326	-742
433.400	-1149
433.473	-519
433.547	-1210
433.620	174
433.694	-906
433.767	-394
433.841	-1381
433.914	-800
433.988	-426
434.061	-141
434.134	195
434.208	-358
434.281	-1234
434.355	-764
434.428	-273
434.501	-221
434.575	-677
434.648	-439
434.721	-856
434.795	-815
434.868	-787
434.941	161
435.014	705
435.088	859
435.161	1689
435.234	4389
435.307	3854
435.381	3878
435.454	6288
435.527	11230
435.600	10927
435.673	6938
435.746	4310
435.819	3110
435.892	1626
435.966	1733
436.039	6
436.112	865
436.185	-262
436.258	-198
436.331	-1338
436.404	-374
436.477	205
436.550	-325
436.623	-141
436.696	-148
436.769	-1059
436.842	-14
436.915	-736
436.987	-149
437.060	-522
437.133	-482
437.206	-1266
437.279	684
437.352	-1215
437.425	-949
437.498	-71
437.570	-245
437.643	-687
437.716	-835
437.789	-1080
437.861	-838
437.934	-406
438.007	-174
438.080	-990
438.152	-585
438.225	204
438.298	3995
438.370	10127
438.443	2189
438.516	-461
438.588	-570
438.661	-389
438.734	324
438.806	-138
438.879	350
438.951	-758
439.024	-565
439.096	-1540
439.169	-430
439.241	-477
439.314	-1252
439.386	-890
439.459	-323
439.531	-722
439.604	-120
439.676	-577
439.749	-1077
439.821	-1107
439.893	-431
439.966	-697
440.038	-639
440.110	-1289
440.183	11
440.255	-675
440.327	127
440.400	1117
440.472	3429
440.544	1831
440.617	-31
440.689	307
440.761	-18
440.833	-527
440.905	320
440.978	-377
441.050	-680
441.122	115
441.194	230
441.266	-217
441.338	-783
441.411	-318
441.483	956
441.555	713
441.627	1022
441.699	185
441.771	436
441.843	-355
441.915	486
441.987	-273
442.059	992
442.131	1207
442.203	1694
442.275	2673
442.347	5327
442.419	18903
442.491	86499
442.563	151986
442.635	49845
442.706	8702
442.778	4561
442.850	1878
442.922	960
442.994	1233
443.066	2117
443.137	3209
443.209	5530
443.281	8874
443.353	24381
443.425	98692
443.496	257203
443.568	233918
443.640	83903
443.711	17892
443.783	7209
443.855	3800
443.926	2266
443.998	2390
444.070	2242
444.141	1426
444.213	1446
444.285	760
444.356	1255
444.428	762
444.499	770
444.571	581
444.642	2063
444.714	872
444.785	1837
444.857	1336
444.928	1784
445.000	1819
445.071	3979
445.143	5178
445.214	9663
445.285	17286
445.357	52463
445.428	179434
445.500	297874
445.571	216540
445.642	130324
445.714	39471
445.785	12598
445.856	5253
445.928	3177
445.999	2557
446.070	1480
446.141	1611
446.213	1333
446.284	163
446.355	82
446.426	286
446.497	64
446.569	251
446.640	239
446.711	-163
446.782	278
446.853	98
446.924	11
446.995	-694
447.066	-324
447.138	-194
447.209	398
447.280	-322
447.351	-1454
447.422	-686
447.493	-52
447.564	-1128
447.635	-1083
447.706	-1317
447.777	-562
447.847	-1468
447.918	-735
447.989	26
448.060	-115
448.131	228
448.202	-771
448.273	-584
448.344	-151
448.414	-380
448.485	-1232
448.556	-823
448.627	-872
448.698	480
448.768	-752
448.839	-1419
448.910	-1282
448.981	283
449.051	-220
449.122	-1263
449.193	-571
449.263	-492
449.334	-328
449.405	-342
449.475	-566
449.546	549
449.616	1107
449.687	-376
449.758	-247
449.828	-956
449.899	-991
449.969	-1992
450.040	-604
450.110	-1201
450.181	288
450.251	-1347
450.322	-159
450.392	-304
450.463	-700
450.533	-1488
450.604	-263
450.674	-268
450.744	480
450.815	-557
450.885	445
450.955	720
451.026	708
451.096	-450
451.166	663
451.237	689
451.307	1704
451.377	-348
451.447	-585
451.518	-826
451.588	-996
451.658	-901
451.728	-324
451.799	-332
451.869	626
451.939	-717
452.009	-835
452.079	-1034
452.149	-669
452.219	-1147
452.289	424
452.360	-343
452.430	537
452.500	533
452.570	2645
452.640	10286
452.710	24715
452.780	21950
452.850	10438
452.920	3216
452.990	1946
453.060	867
453.129	-544
453.199	-595
453.269	1380
453.339	1643
453.409	1917
453.479	1814
453.549	3385
453.619	2705
453.688	18
453.758	-203
453.828	-1080
453.898	-1291
453.968	-530
454.037	-1320
454.087	-518
454.107	-237
454.168	-919
454.177	-1072
454.247	-669
454.249	-651
454.316	-1436
454.330	-1275
454.386	-866
454.411	-796
454.456	-872
454.492	-160
454.525	417
454.574	341
454.595	234
454.655	-512
454.665	-683
454.734	-281
454.736	-201
454.804	428
454.817	465
454.873	200
454.898	373
454.943	620
454.979	203
455.013	-272
455.060	521
455.082	839
455.141	483
455.152	378
455.221	1743
455.222	1812
455.291	2175
455.303	2487
455.360	3155
455.384	3836
455.430	4003
455.465	2979
455.499	2158
455.546	1712
455.569	1446
455.627	1960
455.638	2038
455.707	1126
455.708	1179
455.777	1808
455.789	1860
455.846	1758
455.869	1800
455.916	1793
455.950	2081
455.985	2275
456.031	2264
456.054	2162
456.112	1944
456.124	1858
456.193	2378
456.193	2325
456.262	2301
456.274	2501
456.332	3179
456.355	2942
456.401	2286
456.436	2694
456.470	2971
456.516	2645
456.540	2455
456.597	2779
456.609	2772
456.678	2951
456.678	2894
456.747	3270
456.759	3239
456.817	3260
456.840	3728
456.886	4192
456.920	4193
456.955	4358
457.001	5309
457.024	5765
457.082	6360
457.093	6189
457.162	6250
457.163	6315
457.232	5777
457.243	5787
457.301	6187
457.324	6274
457.370	6547
457.405	7273
457.439	7915
457.485	8452
457.508	8965
457.566	11285
457.577	12312
457.646	19584
457.647	19796
457.715	51451
457.727	57852
457.784	103961
457.808	129515
457.853	146872
457.889	156772
457.922	135467
457.969	91462
457.991	103623
458.050	148045
458.060	157514
458.129	252986
458.130	255909
458.198	188154
458.211	168500
458.267	90040
458.292	58567
458.336	50376
458.372	50085
458.405	77367
458.453	122467
458.474	158044
458.533	274421
458.543	280199
458.611	353972
458.614	356139
458.680	171984
458.694	129490
458.749	65450
458.775	43093
458.818	30626
458.855	23957
458.887	20815
458.936	17368
458.955	16420
459.016	13934
459.024	13722
459.093	13358
459.097	13311
459.162	11545
459.177	11510
459.230	11208
459.257	10834
459.299	10681
459.338	10821
459.368	10849
459.418	11115
459.437	11060
459.499	10698
459.505	10648
459.574	10279
459.579	10337
459.643	10567
459.659	10502
459.711	10452
459.740	10479
459.780	10427
459.820	10596
459.849	10631
459.900	10457
459.917	10405
459.981	10689
459.986	10633
460.054	10375
460.061	10321
460.123	10205
460.141	10330
460.191	10828
460.222	10836
460.260	10622
460.302	10684
460.328	10623
460.382	11227
460.397	11608
460.462	12391
460.465	12491
460.534	15471
460.543	15906
460.602	31492
460.623	37292
460.671	53613
460.703	66043
460.739	54303
460.783	36929
460.808	30094
460.864	13054
460.876	12639
460.944	11670
460.945	11634
461.013	10917
461.024	10754
461.081	10727
461.104	10973
461.150	11530
461.184	11773
461.218	12074
461.264	12528
461.286	12296
461.345	11479
461.355	11360
461.423	11269
461.425	11250
461.491	11089
461.505	11188
461.559	11610
461.585	11715
461.628	12522
461.665	13616
461.696	13810
461.745	13621
461.764	13290
461.825	12313
461.832	12305
461.901	12233
461.905	12241
461.969	12341
461.985	12317
462.037	12999
462.065	13510
462.105	13122
462.145	12585
462.173	12795
462.225	13160
462.241	13346
462.305	14199
462.310	14196
462.378	14205
462.385	14190
462.446	14253
462.465	14281
462.514	14120
462.545	13969
462.582	13299
462.625	12363
462.650	12538
462.705	13245
462.718	13330
462.785	13593
462.786	13594
462.854	12845
462.865	12817
462.922	13323
462.945	13394
462.990	13112
463.025	12842
463.058	12999
463.104	13299
463.126	13276
463.184	13205
463.194	13190
463.262	12938
463.264	12925
463.330	13366
463.344	13356
463.398	14026
463.424	14461
463.466	13393
463.504	12395
463.533	13242
463.583	14555
463.601	14395
463.663	13780
463.669	13791
463.737	13887
463.743	13842
463.805	15102
463.823	15553
463.873	15994
463.903	16340
463.940	16445
463.982	16279
464.008	15956
464.062	15025
464.076	14923
464.142	14758
464.144	14784
464.211	14728
464.221	14762
464.279	14979
464.301	14840
464.347	14775
464.381	14898
464.414	14590
464.461	14158
464.482	14458
464.540	15017
464.550	14970
464.617	14295
464.620	14264
464.685	14522
464.699	14501
464.753	15220
464.779	15571
464.820	16171
464.859	16611
464.888	16373
464.938	15925
464.956	16118
465.018	16629
465.023	16634
465.091	16320
465.098	16266
465.158	16519
465.177	16591
465.226	16627
465.257	16519
465.293	16203
465.336	15745
465.361	16119
465.416	16986
465.428	17133
465.495	17703
465.496	17740
465.563	18123
465.575	18229
465.631	18844
465.654	18999
465.698	17907
465.734	16954
465.765	16950
465.813	16739
465.833	16799
465.893	17120
465.900	17105
465.968	16442
465.972	16361
466.035	17115
466.052	17279
466.102	17333
466.131	17353
466.170	17115
466.210	16750
466.237	16825
466.290	16885
466.304	17055
466.369	17519
466.372	17557
466.439	17618
466.449	17576
466.506	17421
466.528	17328
466.573	18963
466.607	20083
466.641	21038
466.687	22345
466.708	22680
466.766	23361
466.775	22975
466.842	19636
466.845	19436
466.909	19882
466.925	19928
466.977	20303
467.004	20436
467.044	20434
467.083	20363
467.111	20809
467.163	21462
467.178	21706
467.242	22488
467.245	22479
467.312	21205
467.321	20987
467.379	21548
467.400	21680
467.446	22497
467.480	22998
467.559	22765
467.638	22879
467.717	22718
467.796	24663
467.875	26422
467.955	26805
468.034	30911
468.113	37619
468.192	45518
468.271	52248
468.350	71818
468.429	97338
468.508	97394
468.588	63215
468.667	40720
468.746	32939
468.825	29043
468.904	27472
468.983	25084
469.062	25599
469.141	25338
469.220	22697
469.299	23020
469.378	22357
469.456	25985
469.535	23833
469.614	23662
469.693	22830
469.772	25787
469.851	26638
469.930	27828
470.009	30994
470.088	36542
470.166	55549
470.245	97861
470.324	128688
470.403	87293
470.482	49614
470.560	35897
470.639	29299
470.718	28034
470.797	24571
470.875	23005
470.954	24218
471.033	24506
471.111	21130
471.190	21739
471.269	21064
471.347	21954
471.426	21890
471.505	21113
471.583	21681
471.662	21557
471.740	21836
471.819	20951
471.898	19762
471.976	21210
472.055	19987
472.133	21779
472.212	22988
472.290	20578
472.369	20591
472.447	20345
472.526	20395
472.604	21699
472.683	20587
472.761	21312
472.839	21512
472.918	23022
472.996	22833
473.075	23775
473.153	22448
473.231	21518
473.310	23030
473.388	22742
473.466	22306
473.545	23221
473.623	23444
473.701	22439
473.780	24057
473.858	21376
473.936	24889
474.014	22038
474.093	23565
474.171	23032
474.249	24656
474.327	22245
474.405	22633
474.484	22462
474.562	21724
474.640	22008
474.718	22198
474.796	21058
474.874	21559
474.952	22214
475.030	20796
475.108	21327
475.187	22391
475.265	22150
475.343	22925
475.421	23848
475.499	20809
475.577	21441
475.655	21985
475.733	22972
475.811	23836
475.889	23632
475.966	22261
476.044	20679
476.122	21418
476.200	21627
476.278	20352
476.356	21130
476.434	21741
476.512	21195
476.590	22766
476.667	22221
476.745	20489
476.823	21153
476.901	20890
476.979	20367
477.056	20499
477.134	21034
477.212	20278
477.290	20419
477.367	20212
477.445	20126
477.523	19646
477.601	19756
477.678	20494
477.756	20830
477.834	20977
477.911	20701
477.989	21246
478.066	20867
478.144	21167
478.222	21638
478.299	23981
478.377	23421
478.454	20663
478.532	20214
478.609	18758
478.687	21291
478.764	19105
478.842	19883
478.919	20158
478.997	19793
479.074	19611
479.152	21653
479.229	20874
479.307	19813
479.384	20143
479.461	20425
479.539	19900
479.616	22064
479.694	19801
479.771	21237
479.848	20071
479.926	19273
480.003	22247
480.080	20625
480.157	21376
480.235	21112
480.312	20888
480.389	20831
480.467	22264
480.544	23808
480.621	24210
480.698	24921
480.775	24805
480.853	22952
480.930	22086
481.007	22239
481.084	22441
481.161	23948
481.238	23074
481.315	21556
481.392	21925
481.470	22946
481.547	23244
481.624	22745
481.701	23687
481.778	24591
481.855	25740
481.932	27222
482.009	29938
482.086	30858
482.163	34261
482.240	38315
482.317	39642
482.393	35030
482.470	30792
482.547	30987
482.624	28362
482.701	27737
482.778	26298
482.855	26131
482.932	27596
483.009	29424
483.085	33302
483.162	36661
483.239	39679
483.316	39735
483.393	39086
483.469	34268
483.546	30316
483.623	28038
483.699	25402
483.776	23939
483.853	24148
483.930	25296
484.006	27669
484.083	31144
484.160	28326
484.236	33062
484.313	32033
484.389	30338
484.466	35402
484.543	41702
484.619	53340
484.696	55649
484.772	37854
484.849	31426
484.925	28702
485.002	28116
485.078	25678
485.155	24642
485.231	23356
485.308	23189
485.384	24149
485.461	25410
485.537	24767
485.614	25185
485.690	22757
485.766	22729
485.843	22545
485.919	23414
485.995	23972
486.072	22413
486.148	22797
486.224	21576
486.301	22951
486.377	23680
486.453	22699
486.530	23251
486.606	26222
486.682	26043
486.758	25845
486.835	28565
486.911	26829
486.987	32858
487.063	34834
487.139	39425
487.215	42613
487.292	47609
487.368	54210
487.444	67369
487.520	93127
487.596	139948
487.672	332842
487.748	983845
487.824	1405502
487.900	466557
487.976	142061
488.052	79302
488.128	57414
488.204	42741
488.280	38627
488.356	35743
488.432	34997
488.508	35820
488.584	28847
488.660	28684
488.736	26058
488.812	24545
488.888	25580
488.964	25086
489.039	29672
489.115	32915
489.191	28073
489.267	23499
489.343	22488
489.418	22859
489.494	22793
489.570	22008
489.646	24073
489.722	23637
489.797	23260
489.873	25407
489.949	27690
490.024	26850
490.100	23867
490.176	23222
490.251	24925
490.327	25808
490.403	24541
490.478	23305
490.554	22861
490.629	23435
490.705	23606
490.781	23458
490.856	23034
490.932	23364
491.007	22430
491.083	22371
491.158	21887
491.234	22301
491.309	26121
491.385	23359
491.460	22203
491.536	22293
491.611	21098
491.686	22479
491.762	23089
491.837	25113
491.913	27002
491.988	31726
492.063	31292
492.139	23843
492.214	22794
492.289	22897
492.365	21768
492.440	21538
492.515	21386
492.590	21237
492.666	20487
492.741	22398
492.816	22934
492.891	21788
492.967	22575
493.042	21367
493.117	21483
493.192	22301
493.267	26586
493.342	40129
493.418	43877
493.493	23850
493.568	22132
493.643	20650
493.718	21996
493.793	22988
493.868	22555
493.943	22242
494.018	22204
494.093	21593
494.168	23494
494.243	20882
494.318	21936
494.393	23115
494.468	22440
494.543	23484
494.618	22982
494.693	24390
494.768	24286
494.842	24723
494.917	24634
494.992	24027
495.067	23707
495.142	22897
495.217	23114
495.292	23834
495.366	23685
495.441	22631
495.516	24118
495.591	25995
495.665	35285
495.740	49323
495.815	32169
495.890	25153
495.964	23086
496.039	27510
496.114	27245
496.188	30879
496.263	28978
496.338	25623
496.412	24303
496.487	25236
496.561	25753
496.636	24940
496.710	24621
496.785	24548
496.860	25902
496.934	24194
497.009	26227
497.083	24862
497.158	25907
497.232	27835
497.307	30467
497.381	32980
497.455	31329
497.530	25577
497.604	22074
497.679	23848
497.753	24965
497.827	24642
497.902	25179
497.976	26077
498.050	35733
498.125	73207
498.199	63491
498.273	30104
498.348	29924
498.422	31312
498.496	36269
498.570	38290
498.645	24856
498.719	20265
498.793	20682
498.867	23549
498.941	25246
499.016	40216
499.090	67703
499.164	35069
499.238	25765
499.312	26980
499.386	29255
499.460	30753
499.534	35500
499.609	42823
499.683	30488
499.757	21139
499.831	25239
499.905	48720
499.979	39948
500.053	23060
500.127	24772
500.201	24329
500.275	27099
500.349	28215
500.422	29455
500.496	33994
500.570	42434
500.644	62837
500.718	65493
500.792	22770
500.866	19276
500.940	18956
501.013	18255
501.087	18029
501.161	19391
501.235	19183
501.309	26720
501.382	39622
501.456	33623
501.530	21249
501.603	21942
501.677	17252
501.751	16751
501.825	19982
501.898	18810
501.972	24048
502.046	19335
502.119	16982
502.193	18894
502.266	24457
502.340	18780
502.413	19951
502.487	24156
502.561	18954
502.634	17714
502.708	19402
502.781	17354
502.855	18657
502.928	15584
503.002	17070
503.075	17161
503.149	16952
503.222	18347
503.295	19014
503.369	19405
503.442	22619
503.516	29791
503.589	41856
503.662	37710
503.736	40023
503.809	54093
503.882	66859
503.956	102681
504.029	205330
504.102	556276
504.175	738389
504.249	271730
504.322	105937
504.395	59955
504.468	43346
504.542	32047
504.615	26029
504.688	24577
504.761	20711
504.834	21902
504.907	19358
504.980	19558
505.053	17591
505.127	15738
505.200	19606
505.273	15168
505.346	15853
505.419	14320
505.492	17232
505.565	14209
505.638	15154
505.711	14236
505.784	13133
505.857	14085
505.930	16392
506.003	12477
506.076	15757
506.149	14283
506.221	11403
506.294	14694
506.367	14301
506.440	24638
506.513	17066
506.586	14012
506.659	13004
506.731	13459
506.804	13399
506.877	12898
506.950	12786
507.022	13533
507.095	11779
507.168	14479
507.241	14069
507.313	12861
507.386	11869
507.459	14438
507.531	12105
507.604	12431
507.677	14133
507.749	10342
507.822	14569
507.894	13716
507.967	14869
508.040	12558
508.112	13911
508.185	13186
508.257	12063
508.330	15612
508.402	12868
508.475	12917
508.547	13638
508.620	13293
508.692	13430
508.765	13506
508.837	12771
508.909	12803
508.982	12531
509.054	13482
509.127	12595
509.199	12455
509.271	11806
509.344	12002
509.416	13537
509.488	12790
509.560	13870
509.633	13082
509.705	12664
509.777	13304
509.849	13640
509.922	12614
509.994	12487
510.066	13469
510.138	11051
510.210	16290
510.283	13278
510.355	13671
510.427	13907
510.499	14036
510.571	13148
510.643	12260
510.715	14979
510.787	12079
510.859	15919
510.931	12488
511.003	14355
511.076	14549
511.148	12371
511.219	12846
511.291	14113
511.363	14841
511.435	13523
511.507	11533
511.579	14358
511.651	13336
511.723	13034
511.795	12306
511.867	12576
511.939	12695
512.010	13940
512.082	14225
512.154	11456
512.226	12912
512.298	15602
512.369	14468
512.441	15206
512.513	14474
512.585	12455
512.656	14945
512.728	13782
512.800	12506
512.871	13879
512.943	13309
513.015	12012
513.086	14175
513.158	13538
513.230	12502
513.301	12808
513.373	14729
513.444	13797
513.516	13530
513.588	13489
513.659	14614
513.731	14048
513.802	13189
513.874	17388
513.945	17387
514.016	13633
514.088	14177
514.159	13428
514.231	14740
514.302	14497
514.374	14898
514.445	12925
514.516	18100
514.588	14191
514.659	14733
514.730	14766
514.802	16043
514.873	12176
514.944	16536
515.016	15232
515.087	13887
515.158	14595
515.229	16718
515.301	14241
515.372	16859
515.443	15687
515.514	15198
515.585	14811
515.656	15926
515.728	17676
515.799	16318
515.870	18731
515.941	20611
516.012	20110
516.083	24934
516.154	26534
516.225	32049
516.296	38929
516.367	42365
516.438	53628
516.509	68875
516.580	123212
516.651	447740
516.722	1283928
516.793	397053
516.864	97611
516.935	87767
517.006	106484
517.077	143322
517.148	354153
517.219	1380332
517.289	1629966
517.360	295182
517.431	95760
517.502	59520
517.573	52139
517.643	47510
517.714	47740
517.785	50940
517.856	58948
517.926	72842
517.997	89086
518.068	113867
518.138	160292
518.209	297223
518.280	985442
518.350	2166666
518.421	971742
518.492	230272
518.562	148960
518.633	150734
518.703	203369
518.774	415873
518.845	959308
518.915	763386
518.986	230533
519.056	106394
519.127	73182
519.197	58781
519.268	50939
519.338	39302
519.408	29107
519.479	28465
519.549	23931
519.620	24598
519.690	21113
519.760	20146
519.831	19136
519.901	18001
519.971	18326
520.042	16549
520.112	15991
520.182	17231
520.253	16920
520.323	14776
520.393	14885
520.463	17774
520.534	13079
520.604	18819
520.674	15769
520.744	14167
520.814	14844
520.885	17547
520.955	17505
521.025	27523
521.095	17106
521.165	15000
521.235	13255
521.305	12936
521.375	14761
521.445	15455
521.515	14099
521.585	15320
521.655	13455
521.725	15228
521.795	15098
521.865	12106
521.935	16225
522.005	13987
522.075	13564
522.145	14703
522.215	13136
522.285	14313
522.355	13738
522.424	17507
522.494	14455
522.564	15410
522.634	17770
522.704	24346
522.774	14767
522.843	14953
522.913	13854
522.983	14441
523.053	13806
523.122	15110
523.192	15049
523.262	19384
523.331	15691
523.401	15812
523.471	14374
523.540	15264
523.610	14267
523.680	14931
523.749	15920
523.819	16154
523.888	16228
523.958	15194
524.027	15241
524.097	15397
524.166	16420
524.236	14706
524.305	17784
524.375	13734
524.444	14253
524.514	17169
524.583	15948
524.653	15351
524.722	17549
524.791	16055
524.861	18726
524.930	15532
524.999	15859
525.069	19136
525.138	18438
525.207	19376
525.277	20141
525.346	21076
525.415	23904
525.484	25831
525.554	29836
525.623	36686
525.692	45303
525.761	55196
525.830	70672
525.900	91855
525.969	151706
526.038	288150
526.107	608263
526.176	1483499
526.245	987871
526.314	336490
526.383	812232
526.452	927354
526.522	1324663
526.591	985843
526.660	198465
526.729	128684
526.797	139584
526.867	212073
526.935	604175
527.004	1736551
527.073	946521
527.142	168211
527.211	76447
527.280	53817
527.349	41711
527.418	31765
527.487	29061
527.555	24895
527.624	22207
527.693	20948
527.762	23196
527.831	18958
527.899	20450
527.968	18516
528.037	16078
528.106	18148
528.174	18820
528.243	17952
528.312	17782
528.380	17155
528.449	15686
528.518	17504
528.586	13753
528.655	16437
528.723	15075
528.792	15755
528.861	15091
528.929	15273
528.998	15581
529.066	14341
529.135	16183
529.203	15060
529.272	15726
529.340	18150
529.409	19257
529.477	15969
529.545	14425
529.614	18725
529.682	15847
529.751	17683
529.819	21043
529.887	18548
529.956	17359
530.024	17769
530.092	16293
530.161	18790
530.229	18250
530.297	17789
530.365	18937
530.434	19087
530.502	16837
530.570	18079
530.638	16105
530.707	18186
530.775	18490
530.843	16552
530.911	18612
530.979	18556
531.047	18420
531.115	18903
531.183	17597
531.252	18487
531.320	17535
531.388	17024
531.456	20125
531.524	17681
531.592	20822
531.660	21924
531.728	18120
531.796	18051
531.864	19822
531.932	17906
532.000	18221
532.067	19003
532.135	20223
532.203	23894
532.271	22820
532.339	25750
532.407	28509
532.475	25261
532.542	23745
532.610	23024
532.678	22746
532.746	34104
532.814	44107
532.881	26654
532.949	23973
533.017	23131
533.084	20397
533.152	20214
533.220	20836
533.287	20670
533.355	21979
533.423	22695
533.490	22405
533.558	24084
533.625	23116
533.693	23266
533.761	23790
533.828	23458
533.896	21912
533.963	26724
534.031	28594
534.098	34350
534.166	36634
534.233	34188
534.300	39338
534.368	38663
534.435	39092
534.503	41021
534.570	45792
534.637	51472
534.705	58702
534.772	74968
534.840	158614
534.907	671354
534.974	626762
535.041	85916
535.109	47506
535.176	38816
535.243	36389
535.310	35175
535.378	31431
535.445	33029
535.512	34113
535.579	33565
535.646	31269
535.714	33743
535.781	35755
535.848	35814
535.915	34569
535.982	33526
536.049	33076
536.116	33301
536.183	32688
536.250	32025
536.317	31057
536.384	34281
536.451	34909
536.518	35209
536.585	32675
536.652	36103
536.719	36476
536.786	32722
536.853	33046
536.920	35959
536.987	34659
537.053	34729
537.120	44305
537.187	42555
537.254	37941
537.321	37442
537.388	38157
537.454	35570
537.521	36725
537.588	35437
537.654	36319
537.721	39572
537.788	39281
537.855	35582
537.921	37159
537.988	34773
538.055	34367
538.121	31687
538.188	31266
538.254	31748
538.321	33542
538.388	35848
538.454	40274
538.521	40598
538.587	39275
538.654	36525
538.720	37227
538.787	37522
538.853	37415
538.920	35204
538.986	32176
539.053	32401
539.119	34612
539.185	35238
539.252	36263
539.318	37830
539.385	42652
539.451	37787
539.517	37016
539.583	38671
539.650	39174
539.716	42118
539.782	34278
539.849	34851
539.915	35255
539.981	35175
540.047	35534
540.114	35040
540.180	37208
540.246	37532
540.312	40311
540.378	39522
540.444	38485
540.510	41079
540.576	44127
540.643	35811
540.709	34135
540.775	35459
540.841	34247
540.907	34897
540.973	35531
541.039	36572
541.105	36834
541.171	37599
541.237	39404
541.303	37808
541.369	39188
541.435	38684
541.500	37360
541.566	32272
541.632	34720
541.698	35429
541.764	38216
541.830	36259
541.896	35192
541.961	35193
542.027	34826
542.093	39047
542.159	39195
542.224	35043
542.290	36925
542.356	37371
542.421	36717
542.487	34082
542.553	33612
542.618	35353
542.684	34545
542.750	36035
542.815	37306
542.881	36935
542.947	42811
543.012	40659
543.078	34201
543.143	34270
543.209	34939
543.274	33906
543.340	35016
543.405	37544
543.471	38806
543.536	36032
543.602	37007
543.667	35200
543.732	36907
543.798	35585
543.863	37715
543.928	35942
543.994	35532
544.059	37729
544.124	38338
544.190	38008
544.255	39298
544.320	39863
544.386	39013
544.451	40916
544.516	39485
544.581	40020
544.646	43561
544.712	45874
544.777	42101
544.842	40642
544.907	40513
544.972	41685
545.037	42448
545.102	42909
545.168	45308
545.233	45717
545.298	45368
545.363	45366
545.428	47636
545.493	48967
545.558	51209
545.623	46881
545.688	47266
545.753	50158
545.818	51320
545.883	54027
545.947	54733
546.012	57808
546.077	58234
546.142	63698
546.207	63718
546.272	67576
546.337	68434
546.401	72087
546.466	74159
546.531	75497
546.596	83458
546.661	85818
546.725	90702
546.790	96271
546.855	105626
546.919	114528
546.984	128822
547.049	135924
547.113	157166
547.178	172094
547.243	194466
547.307	222924
547.372	241162
547.436	243817
547.501	258100
547.565	273306
547.630	246139
547.695	240995
547.759	243125
547.823	245524
547.888	249584
547.952	256296
548.017	266422
548.081	270388
548.146	267042
548.210	278052
548.274	299117
548.339	284569
548.403	262494
548.468	248801
548.532	247453
548.596	252967
548.660	254867
548.725	279623
548.789	298431
548.853	282560
548.917	275327
548.982	264375
549.046	236917
549.110	218886
549.174	228754
549.238	268376
549.303	287268
549.367	293968
549.431	278313
549.495	262963
549.559	266961
549.623	312527
549.687	327842
549.751	325946
549.815	388659
549.879	377993
549.943	369019
550.007	390804
550.071	376789
550.135	336611
550.199	324529
550.263	320256
550.327	302967
550.391	313239
550.455	350688
550.519	365246
550.582	387762
550.646	435556
550.710	434981
550.774	428047
550.838	437264
550.901	450110
550.965	475612
551.029	496773
551.093	530200
551.156	581736
551.220	653805
551.284	684624
551.347	535610
551.411	463208
551.475	442415
551.538	455217
551.602	421668
551.666	403214
551.729	379561
551.793	372999
551.856	364829
551.920	361150
551.983	357356
552.047	354637
552.110	358408
552.174	362168
552.237	365941
552.301	340034
552.364	325632
552.428	321010
552.491	334545
552.554	336251
552.618	339261
552.681	349625
552.745	350201
552.808	419244
552.871	469178
552.934	384588
552.998	345839
553.061	329868
553.124	311141
553.187	317124
553.251	320786
553.314	321440
553.377	323972
553.440	345411
553.503	352493
553.567	353111
553.630	340817
553.693	338153
553.756	337533
553.819	327804
553.882	314582
553.945	317708
554.008	316876
554.071	323681
554.134	320329
554.197	302032
554.260	295824
554.323	300340
554.386	308556
554.449	322705
554.512	317320
554.575	304134
554.638	300845
554.701	299724
554.764	294149
554.827	282762
554.889	273804
554.952	259184
555.015	257151
555.078	262783
555.141	265075
555.203	258602
555.266	257234
555.329	253428
555.391	244459
555.454	242170
555.517	234678
555.580	224841
555.642	219778
555.705	216816
555.768	213057
555.830	208652
555.893	196465
555.955	192811
556.018	189743
556.080	191441
556.143	197378
556.206	191864
556.268	188441
556.330	184514
556.393	177118
556.455	174950
556.518	170858
556.580	164108
556.643	160168
556.705	157254
556.767	155298
556.830	152953
556.892	149819
556.955	148949
557.017	143321
557.079	143581
557.142	141267
557.204	139903
557.266	138916
557.328	127423
557.391	121442
557.453	118927
557.515	119302
557.577	120894
557.639	121637
557.701	122705
557.764	122817
557.826	123250
557.888	128053
557.950	134469
558.012	148773
558.074	194101
558.136	428053
558.198	791452
558.260	251410
558.322	138284
558.384	137601
558.446	141707
558.508	151659
558.570	170091
558.632	197992
558.694	254147
558.756	425716
558.818	1057278
558.880	1700234
558.942	800099
559.003	866725
559.065	359146
559.127	176300
559.189	169036
559.251	191723
559.312	276759
559.374	621820
559.436	1388041
559.498	631575
559.559	197738
559.621	172064
559.683	196878
559.744	323956
559.806	889098
559.868	1008382
559.929	254931
559.991	195392
560.052	336309
560.114	808214
560.176	436823
560.237	518146
560.299	645174
560.360	138352
560.422	75255
560.483	66166
560.545	61974
560.606	57940
560.667	56360
560.729	52243
560.790	51041
560.852	49869
560.913	47997
560.974	46324
561.036	46154
561.097	47479
561.158	44685
561.220	45287
561.281	43296
561.342	43419
561.403	43224
561.465	41606
561.526	43468
561.587	43572
561.648	39111
561.709	39300
561.771	38684
561.832	37827
561.893	36377
561.954	37534
562.015	37377
562.076	36382
562.137	35774
562.198	35620
562.259	35997
562.320	35846
562.381	35092
562.442	35539
562.503	35664
562.564	33144
562.625	33930
562.686	33395
562.747	32588
562.808	31851
562.869	32482
562.930	31473
562.991	31586
563.051	30707
563.112	30461
563.173	30313
563.234	29816
563.294	29129
563.355	29779
563.416	29366
563.477	29379
563.537	29998
563.598	29198
563.659	28779
563.720	29057
563.780	28943
563.841	28597
563.901	28755
563.962	28294
564.023	28116
564.083	27985
564.144	28600
564.204	27212
564.265	26192
564.325	27314
564.386	28266
564.446	27063
564.507	26274
564.567	26212
564.628	26033
564.688	24551
564.749	25397
564.809	27117
564.869	25234
564.930	26205
564.990	26585
565.050	25734
565.111	26324
565.171	26095
565.231	25741
565.292	27484
565.352	24968
565.412	25699
565.472	25761
565.532	25131
565.593	24538
565.653	25175
565.713	24715
565.773	26408
565.833	26433
565.893	27043
565.953	23797
566.013	23428
566.074	23538
566.134	23755
566.194	24016
566.254	24329
566.314	24025
566.374	23557
566.434	24064
566.494	22841
566.554	24298
566.614	24539
566.673	25768
566.733	25449
566.793	26064
566.853	25474
566.913	24668
566.973	24807
567.033	24819
567.092	24461
567.152	24761
567.212	25395
567.272	26138
567.331	26544
567.391	26820
567.451	27673
567.511	26987
567.570	27680
567.630	26995
567.690	25566
567.749	24386
567.809	24401
567.868	24912
567.928	24810
567.988	25546
568.047	27124
568.107	25990
568.166	24991
568.226	26120
568.285	27236
568.345	27138
568.404	26956
568.464	25693
568.523	25563
568.582	26326
568.642	25844
568.701	24984
568.761	25506
568.820	25844
568.879	25709
568.939	26785
568.998	25542
569.057	25363
569.116	26349
569.176	24307
569.235	24281
569.294	24438
569.353	23943
569.413	23721
569.472	23158
569.531	23453
569.590	22051
569.649	23258
569.708	22995
569.767	23960
569.827	23662
569.886	23459
569.945	23676
570.004	24604
570.063	24275
570.122	25263
570.181	24244
570.240	25860
570.299	24851
570.358	24219
570.417	25251
570.475	25282
570.534	27371
570.593	25308
570.652	25245
570.711	26359
570.770	24461
570.829	25321
570.887	25677
570.946	26775
571.005	26595
571.064	29696
571.122	32651
571.181	28303
571.240	26189
571.299	25077
571.357	23217
571.416	22828
571.475	24151
571.533	24688
571.592	26749
571.650	26978
571.709	27742
571.768	31074
571.826	32139
571.885	29326
571.943	25868
572.002	25489
572.060	25038
572.119	23961
572.177	23721
572.236	24601
572.294	25309
572.352	27298
572.411	25911
572.469	25057
572.528	24296
572.586	23367
572.644	22773
572.703	23808
572.761	23005
572.819	22540
572.877	21810
572.936	21492
572.994	20881
573.052	21078
573.110	22572
573.169	23301
573.227	23027
573.285	23539
573.343	23117
573.401	22768
573.459	23795
573.517	24072
573.576	26285
573.634	24996
573.692	23793
573.750	25063
573.808	23667
573.866	21547
573.924	22681
573.982	23325
574.040	22327
574.098	23322
574.155	21701
574.213	21282
574.271	22818
574.329	26071
574.387	23333
574.445	21799
574.503	20848
574.560	21154
574.618	20875
574.676	22152
574.734	20839
574.792	19692
574.849	18578
574.907	18040
574.965	17274
575.022	16441
575.080	16916
575.138	17001
575.195	16653
575.253	17181
575.311	16603
575.368	17456
575.426	15879
575.483	17000
575.541	17423
575.598	16615
575.656	18290
575.713	19314
575.771	19922
575.828	18494
575.886	17469
575.943	17515
576.001	16298
576.058	16374
576.115	16751
576.173	17590
576.230	18207
576.287	17938
576.345	18075
576.402	18204
576.459	18719
576.517	17552
576.574	16357
576.631	16288
576.688	16737
576.746	15746
576.803	15362
576.860	15413
576.917	16989
576.974	15530
577.031	16872
577.089	15857
577.146	15328
577.203	14838
577.260	15171
577.317	15110
577.374	15145
577.431	13803
577.488	15494
577.545	15580
577.602	14944
577.659	14964
577.716	15080
577.773	15464
577.830	15506
577.886	14902
577.943	14138
578.000	15136
578.057	15169
578.114	14937
578.171	16380
578.227	16475
578.284	16342
578.341	17037
578.398	15063
578.454	15623
578.511	15427
578.568	16293
578.625	15264
578.681	15133
578.738	16011
578.794	14954
578.851	15166
578.908	15295
578.964	15013
579.021	15567
579.077	15047
579.134	15173
579.190	15895
579.247	14879
579.303	14816
579.360	15180
579.416	14397
579.473	16269
579.529	15070
579.586	15228
579.642	15135
579.698	15470
579.755	15793
579.811	15133
579.867	16512
579.924	16067
579.980	16501
580.036	16519
580.093	17032
580.149	18997
580.205	19038
580.261	16926
580.317	17837
580.374	16953
580.430	17229
580.486	16685
580.542	15962
580.598	17004
580.619	16858
580.654	16628
580.692	16369
580.710	16279
580.765	17208
580.767	17262
580.823	17628
580.838	17649
580.879	17777
580.911	17176
580.935	16787
580.984	17700
580.991	17856
581.047	17238
581.057	17155
581.103	16891
581.130	17030
581.159	17237
581.203	16919
581.215	16850
581.270	17332
581.276	17223
581.326	16429
581.349	16156
581.382	15801
581.422	16220
581.438	16417
581.494	15592
581.494	15580
581.550	15991
581.567	15903
581.606	15752
581.640	15719
581.661	15741
581.713	16609
581.717	16688
581.773	15694
581.786	15651
581.829	15607
581.859	15678
581.885	15796
581.932	15803
581.940	15804
581.996	16157
582.004	16054
582.052	15599
582.077	15729
582.107	15911
582.150	15406
582.163	15269
582.219	15349
582.223	15277
582.274	14563
582.296	14587
582.330	14592
582.368	14733
582.386	14897
582.441	14869
582.441	14876
582.497	14685
582.514	14812
582.552	15289
582.587	15065
582.608	14891
582.659	14427
582.663	14400
582.719	15278
582.732	15274
582.774	15185
582.805	15064
582.830	15090
582.877	14821
582.885	14741
582.941	14381
582.950	14452
582.996	14980
583.023	15155
583.052	15489
583.095	15539
583.107	15482
583.162	15008
583.168	15070
583.218	15572
583.240	15133
583.273	14658
583.313	14392
583.328	14255
583.384	14109
583.385	14095
583.439	13681
583.458	13663
583.494	13609
583.531	13882
583.549	14069
583.603	13642
583.605	13624
583.660	13651
583.676	13619
583.715	13532
583.748	13648
583.770	13739
583.820	13534
583.825	13510
583.881	13944
583.893	13756
583.936	12985
583.965	13248
583.991	13538
584.038	13305
584.046	13233
584.101	13493
584.110	13391
584.156	13130
584.183	13570
584.211	13924
584.255	14190
584.266	14233
584.321	13821
584.328	13888
584.376	14329
584.400	14006
584.431	13747
584.472	14456
584.486	14525
584.541	14115
584.545	14113
584.596	14253
584.617	14349
584.651	14780
584.689	15495
584.706	15631
584.761	16089
584.762	16107
584.816	16723
584.834	17059
584.871	17350
584.906	17863
584.926	18297
584.978	19345
584.980	19376
585.035	21742
585.051	22709
585.090	25082
585.123	26613
585.145	27620
585.195	30271
585.200	30525
585.254	36081
585.267	37689
585.309	42440
585.340	46055
585.364	49339
585.412	57617
585.419	58784
585.473	75044
585.484	80466
585.528	106353
585.556	134867
585.583	175050
585.628	286732
585.637	317610
585.692	633821
585.700	675840
585.747	827166
585.772	658366
585.801	401183
585.845	158994
585.856	119223
585.910	62064
585.917	57993
585.965	41950
585.989	37297
586.019	32941
586.061	28716
586.074	27394
586.128	25057
586.133	24895
586.183	23395
586.205	22818
586.237	21865
586.277	21776
586.292	21687
586.346	20665
586.349	20680
586.401	20308
586.421	20505
586.455	20793
586.493	21113
586.509	21277
586.564	20700
586.565	20787
586.618	22991
586.637	23977
586.672	26565
586.709	30631
586.727	32267
586.781	34779
586.781	34708
586.835	24890
586.853	23336
586.889	21233
586.925	19621
586.944	18833
586.996	18643
586.998	18606
587.052	18555
587.068	18569
587.106	18521
587.140	18570
587.161	18568
587.212	18789
587.215	18721
587.269	18215
587.284	18373
587.323	18943
587.356	19277
587.377	19451
587.427	19460
587.431	19402
587.485	19871
587.499	19932
587.539	19870
587.571	20521
587.593	20941
587.643	22192
587.648	22230
587.702	21919
587.715	22060
587.755	22100
587.786	22314
587.810	22334
587.858	22155
587.864	22046
587.917	22261
587.930	22266
587.971	21954
588.001	21570
588.025	21340
588.073	22017
588.079	22021
588.133	22116
588.145	22234
588.187	21895
588.217	21992
588.241	22167
588.288	22924
588.295	22968
588.348	24021
588.360	24272
588.402	24375
588.431	24655
588.456	24832
588.503	26297
588.510	26463
588.564	28616
588.575	29225
588.617	31088
588.646	32430
588.671	33329
588.718	37600
588.725	38207
588.778	46763
588.789	49784
588.832	71506
588.861	92107
588.886	127920
588.932	220574
588.939	229322
588.993	272770
589.004	262807
589.047	130745
589.075	66481
589.100	47437
589.147	32944
589.154	32022
589.207	28998
589.218	28760
589.261	29057
589.290	30419
589.314	31189
589.361	34533
589.368	35462
589.421	47490
589.433	51503
589.475	83831
589.504	115197
589.528	149705
589.576	220173
589.582	215128
589.635	98442
589.647	78859
589.689	41219
589.718	25837
589.742	23639
589.790	21354
589.795	21157
589.849	20936
589.861	21077
589.902	20482
589.932	20082
589.955	19568
590.004	18934
590.009	18813
590.062	18904
590.075	18987
590.115	18487
590.146	18251
590.168	18022
590.218	18151
590.222	18030
590.275	18168
590.289	18149
590.328	18260
590.360	18763
590.381	18724
590.431	19035
590.435	18924
590.488	18810
590.503	18842
590.541	18438
590.574	18663
590.594	18719
590.645	19349
590.647	19247
590.700	19566
590.716	19867
590.753	20283
590.787	20962
590.806	20734
590.859	20654
590.859	20525
590.912	21356
590.930	21857
590.965	21226
591.001	20904
591.018	20990
591.071	21351
591.072	21497
591.124	19967
591.143	19756
591.177	19827
591.214	20080
591.230	20037
591.283	20542
591.285	20705
591.336	20748
591.356	21008
591.389	20502
591.427	20265
591.442	19957
591.495	19297
591.498	19413
591.547	19080
591.569	19198
591.600	19561
591.640	20239
591.653	20033
591.706	19953
591.711	20108
591.759	20189
591.782	20502
591.811	20740
591.853	21689
591.864	21566
591.917	21545
591.924	21725
591.969	21167
591.995	21176
592.022	20868
592.066	20863
592.075	20750
592.127	21286
592.137	21572
592.180	21633
592.208	21997
592.233	21732
592.279	21897
592.285	21818
592.338	22933
592.350	23391
592.390	22218
592.421	21738
592.443	21732
592.491	22457
592.495	22284
592.548	23042
592.562	23489
592.600	22186
592.633	21483
592.653	21053
592.704	20476
592.705	20604
592.775	21547
592.846	22469
592.916	24376
592.987	24028
593.058	22714
593.128	24813
593.199	24120
593.270	23747
593.341	25358
593.411	26084
593.482	26009
593.553	27141
593.623	28119
593.694	29026
593.764	29134
593.835	28922
593.906	29032
593.976	30301
594.047	30102
594.117	33023
594.188	32983
594.258	32290
594.329	33136
594.399	33528
594.470	34765
594.540	36022
594.611	37000
594.681	36592
594.751	36045
594.822	37998
594.892	38004
594.963	40397
595.033	40133
595.103	42578
595.174	42648
595.244	44292
595.314	45008
595.384	46908
595.455	47617
595.525	49862
595.595	51001
595.665	51540
595.736	50093
595.806	52291
595.876	51540
595.946	52322
596.016	54068
596.087	56731
596.157	56291
596.227	56318
596.297	60546
596.367	64009
596.437	67521
596.507	66943
596.577	65782
596.647	70763
596.717	72592
596.787	74000
596.857	73685
596.927	74623
596.997	74156
597.067	75635
597.137	77234
597.207	77520
597.277	77804
597.347	74517
597.417	72829
597.487	72616
597.557	74392
597.626	75004
597.696	76260
597.766	75883
597.836	72112
597.906	67565
597.975	67518
598.045	68814
598.115	71016
598.185	75879
598.254	86104
598.324	93047
598.394	94613
598.464	90612
598.533	90277
598.603	84343
598.672	82202
598.742	83645
598.812	84464
598.881	85998
598.951	84434
599.020	87349
599.090	90538
599.159	90116
599.229	88095
599.299	84874
599.368	87733
599.437	85660
599.507	79120
599.576	76759
599.646	76112
599.715	75312
599.785	73487
599.854	71296
599.924	69805
599.993	69041
600.062	72263
600.132	73893
600.201	79115
600.270	91153
600.340	95104
600.409	93833
600.478	93212
600.547	94978
600.617	84657
600.686	65887
600.755	59515
600.824	58451
600.894	56304
600.963	56112
601.032	55529
601.101	54019
601.170	51363
601.239	49345
601.308	49655
601.378	48709
601.447	48532
601.516	48547
601.585	48792
601.654	50345
601.723	50727
601.792	52401
601.861	54408
601.930	57149
601.999	55688
602.068	56413
602.137	55901
602.206	57984
602.275	58064
602.343	59609
602.412	59304
602.481	60964
602.550	60611
602.619	63632
602.688	63780
602.756	62863
602.825	65253
602.894	66789
602.963	67336
603.032	69097
603.100	70100
603.169	70130
603.238	68397
603.307	70570
603.375	72992
603.444	73089
603.513	74106
603.581	74612
603.650	74949
603.719	75193
603.787	77366
603.856	80579
603.924	81003
603.993	85683
604.061	88631
604.130	91655
604.198	95055
604.267	96465
604.335	97582
604.404	99640
604.472	99720
604.541	101043
604.609	101700
604.678	102725
604.746	102467
604.815	107187
604.883	107017
604.951	108235
605.020	110283
605.088	111401
605.156	114973
605.225	116920
605.293	116557
605.361	116581
605.429	118815
605.498	121752
605.566	124291
605.634	130439
605.702	135373
605.771	140755
605.839	139470
605.907	136150
605.975	132282
606.043	130956
606.111	129809
606.180	128854
606.248	127155
606.316	125484
606.384	124261
606.452	128181
606.520	131587
606.588	136515
606.656	138225
606.724	135644
606.792	126943
606.860	112309
606.928	104302
606.996	101034
607.064	97283
607.132	99819
607.200	108894
607.267	111157
607.335	114420
607.403	117920
607.471	110812
607.539	109871
607.607	108486
607.674	96377
607.742	95462
607.810	93830
607.878	95094
607.946	98105
608.013	103364
608.081	104129
608.149	104653
608.216	109630
608.284	113291
608.352	113171
608.419	111079
608.487	109580
608.555	105985
608.622	111262
608.690	119583
608.757	131875
608.825	132354
608.893	129155
608.960	120492
609.028	116146
609.095	117111
609.163	116814
609.230	103456
609.298	96167
609.365	99632
609.432	109642
609.500	119015
609.567	136598
609.635	154515
609.702	160815
609.769	153155
609.837	118683
609.904	104302
609.971	110682
610.039	127609
610.106	171498
610.173	338426
610.241	722897
610.308	358115
610.375	138903
610.442	116294
610.509	110107
610.577	109305
610.644	110183
610.711	112971
610.778	116647
610.845	121207
610.912	128823
610.980	133039
611.047	133219
611.114	130728
611.181	128109
611.248	126114
611.315	136599
611.382	136212
611.449	141884
611.516	146135
611.583	142299
611.650	143793
611.717	146601
611.784	149310
611.851	159080
611.918	169154
611.984	201467
612.051	288561
612.118	564506
612.185	1199297
612.252	707229
612.319	242669
612.386	197057
612.452	175219
612.519	164285
612.586	160384
612.653	162971
612.719	169066
612.786	161202
612.853	149964
612.919	147451
612.986	147683
613.053	140096
613.120	130966
613.186	128037
613.253	128932
613.319	128298
613.386	128930
613.453	131898
613.519	131356
613.586	128077
613.652	131319
613.719	128865
613.785	131912
613.852	132963
613.918	131181
613.985	135179
614.051	139512
614.118	137079
614.184	131654
614.250	131255
614.317	135988
614.383	132476
614.449	137298
614.516	135683
614.582	136702
614.648	131919
614.715	131129
614.781	126807
614.847	128154
614.914	126489
614.980	123553
615.046	125626
615.112	128918
615.179	129320
615.245	131502
615.311	129335
615.377	131129
615.443	132844
615.509	135712
615.575	142791
615.642	138980
615.708	141852
615.774	150000
615.840	162133
615.906	177168
615.972	217824
616.038	333421
616.104	675736
616.170	1355071
616.236	1034354
616.302	353734
616.368	273537
616.434	192459
616.500	177005
616.565	206964
616.631	261652
616.697	205115
616.763	215816
616.829	351086
616.895	619385
616.961	540990
617.026	225265
617.092	153259
617.158	142161
617.224	136664
617.289	125174
617.355	118455
617.421	116771
617.487	117069
617.552	110919
617.618	110004
617.684	110654
617.749	111475
617.815	105639
617.880	104424
617.946	102840
618.012	106804
618.077	106830
618.143	102311
618.208	104933
618.274	111143
618.339	110937
618.405	91683
618.470	94062
618.536	91627
618.601	90900
618.667	83796
618.732	80932
618.798	79411
618.863	79560
618.928	78198
618.994	80127
619.059	79106
619.124	78944
619.190	77165
619.255	77400
619.320	77263
619.386	78688
619.451	76226
619.516	74501
619.581	76764
619.647	78540
619.712	78234
619.777	73967
619.842	75173
619.907	76504
619.972	78311
620.038	77360
620.103	75669
620.168	74618
620.233	77470
620.298	77329
620.363	78735
620.428	80191
620.493	82695
620.558	82489
620.623	84503
620.688	83461
620.753	83350
620.818	83806
620.883	86101
620.948	84713
621.013	83371
621.078	81581
621.143	82326
621.207	86614
621.272	81898
621.337	79405
621.402	80973
621.467	78304
621.532	77968
621.596	78360
621.661	76737
621.726	77257
621.791	76628
621.855	77320
621.920	75055
621.985	76641
622.049	78575
622.114	78477
622.179	80428
622.243	81110
622.308	83423
622.373	88790
622.437	85016
622.502	80631
622.566	79172
622.631	78800
622.695	81200
622.760	81328
622.824	80892
622.889	81963
622.953	80056
623.018	86660
623.082	86670
623.147	85876
623.211	83483
623.276	83768
623.340	78605
623.404	77602
623.469	78012
623.533	79457
623.597	76052
623.662	76890
623.726	69255
623.790	66043
623.854	64857
623.919	65129
623.983	66845
624.047	67555
624.111	68698
624.176	70011
624.240	68967
624.304	73476
624.368	69467
624.432	71741
624.496	72614
624.560	76531
624.625	75948
624.689	77673
624.753	79556
624.817	75218
624.881	72331
624.945	66401
625.009	64317
625.073	65007
625.137	66049
625.201	70756
625.265	70312
625.329	66639
625.393	69479
625.456	69515
625.520	72696
625.584	73077
625.648	73557
625.712	75749
625.776	75081
625.839	71853
625.903	58655
625.967	55817
626.031	62200
626.095	72956
626.158	65618
626.222	50757
626.286	49261
626.349	46640
626.413	42642
626.477	44189
626.540	43641
626.604	43038
626.668	44098
626.731	41331
626.795	41920
626.858	42608
626.922	40436
626.986	42419
627.049	40841
627.113	44046
627.176	41109
627.240	39877
627.303	39697
627.366	39597
627.430	41442
627.493	41172
627.557	39538
627.620	40958
627.684	41462
627.747	42841
627.810	36858
627.874	34713
627.937	32682
628.000	35977
628.064	34346
628.127	28837
628.190	30229
628.253	29177
628.317	27430
628.380	25848
628.443	25640
628.506	24429
628.569	24871
628.632	23293
628.696	23942
628.759	23195
628.822	21700
628.885	21858
628.948	21484
629.011	21443
629.074	20017
629.137	19274
629.200	18965
629.263	19418
629.326	17468
629.389	18666
629.452	18318
629.515	17622
629.578	18187
629.641	19390
629.704	17796
629.767	17646
629.830	18420
629.892	17442
629.955	16206
630.018	18724
630.081	16710
630.144	16723
630.207	16162
630.269	18421
630.332	17070
630.395	16780
630.458	16978
630.520	14511
630.583	16921
630.646	16138
630.708	16407
630.771	15828
630.834	19115
630.896	16661
630.959	17372
631.021	16735
631.084	16209
631.146	17104
631.209	18719
631.272	17249
631.334	18221
631.397	17383
631.459	17535
631.522	21070
631.584	21779
631.646	23298
631.709	24936
631.771	24809
631.834	22292
631.896	22326
631.958	18936
632.021	19321
632.083	16203
632.145	16918
632.208	15634
632.270	17587
632.332	14805
632.395	15847
632.457	16123
632.519	14997
632.581	16493
632.643	14765
632.706	16664
632.768	13807
632.830	17061
632.892	16688
632.954	15567
633.016	17290
633.078	15859
633.141	15793
633.203	16365
633.265	16563
633.327	16896
633.389	14968
633.451	16218
633.513	15761
633.575	17138
633.637	16715
633.698	16266
633.760	19076
633.822	18797
633.884	19111
633.946	20605
634.008	21295
634.070	22898
634.132	26121
634.193	29985
634.255	33327
634.317	32819
634.379	31424
634.441	26202
634.502	22837
634.564	20838
634.626	19273
634.687	18054
634.749	16766
634.811	17718
634.873	15344
634.934	16839
634.996	17166
635.057	16300
635.119	16307
635.181	17749
635.242	18352
635.304	16590
635.365	19351
635.427	16636
635.488	17343
635.550	16371
635.611	19052
635.673	15937
635.734	20370
635.796	21482
635.857	25435
635.918	27199
635.980	32520
636.041	34474
636.102	37275
636.164	38428
636.225	35423
636.286	27330
636.348	25381
636.409	21027
636.470	19047
636.531	18552
636.593	16987
636.654	16620
636.715	15419
636.776	14957
636.838	14196
636.899	15021
636.960	14171
637.021	13269
637.082	13480
637.143	13227
637.204	12703
637.265	11996
637.326	13403
637.387	13968
637.448	12619
637.509	13455
637.570	13330
637.631	13508
637.692	11060
637.753	10687
637.814	11988
637.875	11714
637.936	12451
637.997	11548
638.058	10812
638.119	11565
638.179	11201
638.240	10931
638.301	10787
638.362	10080
638.423	10514
638.483	11439
638.544	9127
638.605	11313
638.666	8919
638.726	10620
638.787	10924
638.848	9759
638.908	10263
638.969	9892
639.030	9348
639.090	8678
639.151	8047
639.211	11033
639.272	10967
639.332	11275
639.393	11637
639.453	12315
639.514	13858
639.574	10350
639.635	9121
639.695	9632
639.756	8548
639.816	9273
639.877	9900
639.937	10582
639.997	9657
640.058	8090
640.118	8736
640.178	10203
640.239	9212
640.299	9063
640.359	9718
640.420	11266
640.480	13226
640.540	16522
640.600	15718
640.661	13563
640.721	11925
640.781	12385
640.841	8702
640.901	10304
640.961	10579
641.021	10829
641.082	10785
641.142	9077
641.202	9903
641.262	6735
641.322	9733
641.382	7457
641.442	8959
641.502	8985
641.562	9087
641.622	9252
641.682	10776
641.742	13625
641.802	11692
641.861	9821
641.921	7483
641.981	9194
642.041	8702
642.101	7840
642.161	6772
642.221	7132
642.280	7835
642.340	8146
642.400	7618
642.460	9393
642.519	8107
642.579	8727
642.639	8335
642.698	6919
642.758	10575
642.818	8819
642.877	7825
642.937	9200
642.997	8844
643.056	8893
643.116	8135
643.175	10298
643.235	9893
643.294	10655
643.354	10850
643.414	12574
643.473	16007
643.532	19593
643.592	29960
643.651	47797
643.711	87017
643.770	175697
643.830	431974
643.889	737036
643.948	172151
644.008	39325
644.067	22795
644.126	16589
644.186	14643
644.245	12494
644.304	9582
644.363	12215
644.423	8680
644.482	10141
644.541	11621
644.600	10965
644.659	17097
644.719	21862
644.778	36041
644.837	66712
644.896	144787
644.955	297993
645.014	78947
645.073	19122
645.132	13828
645.191	12808
645.250	11311
645.309	13908
645.368	14730
645.427	22669
645.486	43197
645.545	68256
645.604	16756
645.663	10883
645.722	10303
645.781	11604
645.840	15409
645.898	18328
645.957	28727
646.016	44912
646.075	84401
646.134	167830
646.192	457576
646.251	543029
646.310	85492
646.369	28612
646.427	22832
646.486	14476
646.545	11584
646.603	10665
646.662	10339
646.721	9745
646.779	9642
646.838	10277
646.896	15004
646.955	21469
647.014	38076
647.072	79173
647.131	209707
647.189	77258
647.248	11982
647.306	9646
647.365	8128
647.423	5156
647.481	8019
647.540	5215
647.598	6611
647.657	5769
647.715	6778
647.773	5517
647.832	6871
647.890	4964
647.948	4540
648.007	5900
648.065	4480
648.123	4103
648.181	6230
648.240	5662
648.298	5010
648.356	4300
648.414	5585
648.472	4511
648.531	5204
648.589	4470
648.647	5175
648.705	4549
648.763	4690
648.821	5784
648.879	5892
648.937	6899
648.995	9816
649.053	12743
649.111	22605
649.169	39219
649.227	73714
649.285	163634
649.343	424751
649.401	160222
649.459	23631
649.516	13119
649.574	8462
649.632	11107
649.690	12034
649.748	16160
649.806	24955
649.863	53618
649.921	156411
649.979	79138
650.037	10961
650.094	4106
650.152	4976
650.210	3792
650.268	4593
650.325	3384
650.383	3733
650.440	2514
650.498	3276
650.556	2782
650.613	3121
650.671	3277
650.728	3592
650.786	4091
650.843	7415
650.901	2797
650.958	3652
651.016	1989
651.073	2907
651.131	2631
651.188	1240
651.246	2522
651.303	2034
651.360	1906
651.418	2775
651.475	2398
651.532	1608
651.590	2509
651.647	896
651.704	1844
651.762	2393
651.819	1780
651.876	2148
651.933	1514
651.990	2871
652.048	513
652.105	1843
652.162	2136
652.219	1896
652.276	2033
652.333	1711
652.390	650
652.448	2022
652.505	1618
652.562	1786
652.619	1047
652.676	1250
652.733	2261
652.790	1857
652.847	1707
652.904	1957
652.961	327
653.017	1055
653.074	2315
653.131	1717
653.188	596
653.245	1010
653.302	1602
653.359	632
653.415	1052
653.472	1492
653.529	2133
653.586	1006
653.642	105
653.699	1950
653.756	652
653.813	787
653.869	2014
653.926	561
653.983	1004
654.039	2195
654.096	1284
654.152	1715
654.209	-161
654.266	1305
654.322	-191
654.379	1837
654.435	1992
654.492	1316
654.548	1788
654.605	577
654.661	1945
654.717	2133
654.774	1286
654.830	1340
654.887	1402
654.943	618
655.000	1579
655.056	2127
655.112	2029
655.168	752
655.225	2348
655.281	2414
655.337	1172
655.394	1314
655.450	2117
655.506	1226
655.562	873
655.618	2399
655.675	812
655.731	2102
655.787	1706
655.843	3366
655.899	1686
655.955	3262
656.011	3202
656.067	2667
656.123	4524
656.179	4655
656.235	5999
656.291	2392
656.347	4758
656.403	3152
656.459	2560
656.515	1984
656.571	1273
656.627	1735
656.683	2560
656.739	1579
656.795	1848
656.850	1489
656.906	2349
656.962	2354
657.018	1042
657.074	2825
657.129	4555
657.185	7587
657.241	18481
657.297	7496
657.352	1473
657.408	708
657.464	1753
657.519	1089
657.575	-20
657.630	1116
657.686	721
657.742	-163
657.797	400
657.853	4
657.908	413
657.964	333
658.019	514
658.075	584
658.130	853
658.186	105
658.241	1340
658.297	-1263
658.352	216
658.407	1238
658.463	421
658.518	678
658.573	947
658.629	18
658.684	58
658.739	1839
658.795	-431
658.850	520
658.905	519
658.960	886
659.016	77
659.071	786
659.126	1171
659.181	-138
659.236	877
659.291	1370
659.346	-89
659.401	90
659.457	721
659.512	465
659.567	1440
659.622	241
659.677	549
659.732	-793
659.787	-62
659.842	602
659.897	525
659.952	907
660.007	526
660.061	-83
660.116	-343
660.171	-348
660.226	-618
660.281	1356
660.336	190
660.391	1056
660.445	-614
660.500	516
660.555	434
660.610	596
660.664	660
660.719	473
660.774	243
660.828	461
660.883	255
660.938	506
660.992	-414
661.047	442
661.101	-101
661.156	488
661.211	-663
661.265	361
661.320	-587
661.374	-371
661.429	-810
661.483	1190
661.538	-951
661.592	301
661.647	179
661.701	-217
661.755	161
661.810	383
661.864	-879
661.919	-46
661.973	-10
662.027	88
662.081	-79
662.136	-178
662.190	600
662.244	494
662.299	-554
662.353	601
662.407	-496
662.461	363
662.515	-36
662.569	-303
662.624	470
662.678	4
662.732	-461
662.786	634
662.840	-388
662.894	631
662.948	313
663.002	-231
663.056	577
663.110	60
663.164	32
663.218	158
663.272	16
663.326	379
663.380	-269
663.434	298
663.488	-83
663.542	814
663.595	655
663.649	-400
663.703	914
663.757	310
663.811	-418
663.864	-49
663.918	1245
663.972	-155
664.026	-211
664.079	187
664.133	134
664.187	-66
664.240	325
664.294	478
664.348	364
664.401	760
664.455	171
664.508	656
664.562	-276
664.615	853
664.669	-357
664.722	410
664.776	450
664.829	302
664.883	159
664.936	50
664.990	-145
665.043	1056
665.097	-246
665.150	1240
665.203	-301
665.257	749
665.310	216
665.363	158
665.417	819
665.470	973
665.523	589
665.576	874
665.630	-36
665.683	261
665.736	505
665.789	269
665.842	-278
665.895	1525
665.949	422
666.002	840
666.055	1100
666.108	1537
666.161	24
666.214	1420
666.267	1015
666.320	1110
666.373	770
666.426	1798
666.479	423
666.532	952
666.585	1033
666.638	1626
666.691	816
666.744	754
666.796	-182
666.849	559
666.902	328
666.955	1242
667.008	680
667.060	323
667.113	896
667.166	-33
667.219	454
667.271	660
667.324	563
667.377	327
667.430	527
667.482	925
667.535	65
667.587	1366
667.640	862
667.693	487
667.745	1044
667.798	896
667.850	635
667.903	1730
667.955	509
668.008	844
668.060	357
668.113	1049
668.165	598
668.218	16
668.270	1589
668.322	792
668.375	332
668.427	685
668.479	-271
668.532	334
668.584	1250
668.636	957
668.689	415
668.741	224
668.793	1396
668.845	57
668.898	867
668.950	807
669.002	491
669.054	311
669.106	606
669.158	1222
669.211	270
669.263	491
669.315	79
669.367	-120
669.419	-393
669.471	1385
669.523	901
669.575	1361
669.627	186
669.679	65
669.731	850
669.783	1127
669.835	462
669.886	-29
669.938	388
669.990	241
670.042	120
670.094	98
670.146	421
670.197	1199
670.249	1012
670.301	528
670.353	636
670.404	936
670.456	274
670.508	1559
670.560	2171
670.611	2953
670.663	5024
670.715	14779
670.766	23538
670.818	6355
670.869	1952
670.921	1834
670.972	2338
671.024	468
671.075	1362
671.127	1276
671.178	952
671.230	1321
671.281	1485
671.333	2840
671.384	2687
671.436	4684
671.487	6972
671.538	12541
671.590	21309
671.641	37186
671.692	73512
671.744	140426
671.795	92498
671.846	30859
671.897	13598
671.949	8150
672.000	5284
672.051	3419
672.102	2976
672.153	1745
672.204	1283
672.256	2039
672.307	1069
672.358	1422
672.409	926
672.460	1799
672.511	939
672.562	924
672.613	617
672.664	611
672.715	508
672.766	131
672.817	466
672.868	486
672.919	205
672.970	558
673.021	323
673.071	235
673.122	318
673.173	70
673.224	311
673.275	644
673.326	-125
673.376	782
673.427	-495
673.478	166
673.528	1700
673.579	607
673.630	616
673.680	1187
673.731	317
673.782	45
673.832	-127
673.883	-553
673.934	224
673.984	415
674.035	479
674.085	675
674.136	468
674.186	331
674.237	739
674.287	-114
674.338	1113
674.388	539
674.438	484
674.489	474
674.539	836
674.589	1058
674.640	747
674.690	1099
674.740	273
674.791	528
674.841	-307
674.891	132
674.942	185
674.992	-361
675.042	-20
675.092	773
675.142	449
675.193	-184
675.243	168
675.293	-9
675.343	-203
675.393	113
675.443	471
675.493	1087
675.543	-349
675.593	480
675.643	222
675.693	645
675.743	410
675.793	578
675.843	-520
675.893	-334
675.943	67
675.993	132
676.043	-464
676.093	627
676.142	-269
676.192	-651
676.242	127
676.292	-135
676.341	-400
676.391	289
676.441	-716
676.491	1018
676.540	-115
676.590	253
676.640	-273
676.689	-520
676.739	-1056
676.789	-317
676.838	-633
676.888	-365
676.937	106
676.987	-681
677.037	-38
677.086	-511
677.136	-259
677.185	-531
677.235	80
677.284	-224
677.333	-1043
677.383	-497
677.432	-660
677.482	-683
677.531	-158
677.580	-731
677.630	-923
677.679	-514
677.728	72
677.778	-40
677.827	-430
677.876	-579
677.925	-452
677.975	-90
678.024	-442
678.073	-435
678.122	702
678.171	110
678.220	91
678.269	772
678.319	1436
678.368	1230
678.417	1389
678.466	146
678.515	491
678.564	-3
678.613	-210
678.662	-678
678.711	-739
678.760	-229
678.809	-162
678.857	-966
678.906	749
678.955	-178
679.004	-261
679.053	-1029
679.102	-782
679.151	232
679.199	-377
679.248	301
679.297	-199
679.346	-1071
679.394	-1445
679.443	-228
679.492	-462
679.540	-259
679.589	-414
679.638	-623
679.686	117
679.735	-118
679.784	475
679.832	534
679.881	-243
679.929	192
679.978	91
680.026	-675
680.075	-258
680.123	-909
680.172	-1357
680.220	-724
680.268	-921
680.317	-914
680.365	-1272
680.414	-783
680.462	-185
680.510	0
680.559	-1098
680.607	-405
680.655	-521
680.703	-40
680.752	-747
680.800	-797
680.848	-565
680.896	-958
680.945	-920
680.993	-868
681.041	-1230
681.089	-903
681.137	-1163
681.185	-521
681.233	-335
681.258	-732
681.281	-1119
681.329	-1515
681.377	-793
681.380	-798
681.425	-1115
681.473	-560
681.502	-268
681.521	-95
681.569	8
681.617	-260
681.624	-247
681.665	-259
681.713	-615
681.745	-382
681.761	-285
681.809	-198
681.857	655
681.867	574
681.904	228
681.952	-220
681.989	-372
682.000	-431
682.048	191
682.096	-405
682.111	-324
682.143	-184
682.191	151
682.233	196
682.239	187
682.286	-284
682.334	902
682.354	555
682.382	67
682.430	1120
682.476	-752
682.477	-804
682.525	333
682.572	225
682.598	108
682.620	-10
682.667	-466
682.715	124
682.720	87
682.763	-379
682.810	-74
682.841	-356
682.857	-501
682.905	700
682.952	559
682.963	610
683.000	673
683.047	855
683.085	1592
683.095	1801
683.142	286
683.190	793
683.206	737
683.237	557
683.284	835
683.328	32
683.332	-43
683.379	647
683.426	650
683.449	625
683.473	621
683.521	607
683.568	1061
683.571	1038
683.615	526
683.662	1254
683.693	789
683.709	521
683.757	450
683.804	171
683.814	221
683.851	343
683.898	597
683.936	369
683.945	320
683.992	127
684.039	883
684.057	789
684.086	618
684.133	729
684.179	824
684.180	819
684.227	846
684.274	983
684.300	1511
684.321	1915
684.368	773
684.415	1094
684.422	1088
684.462	1065
684.509	215
684.543	939
684.556	1171
684.603	1370
684.649	951
684.665	1075
684.696	1382
684.743	1054
684.786	1163
684.790	1157
684.837	925
684.883	1482
684.908	1221
684.930	1015
684.977	1491
685.023	1526
685.029	1495
685.070	1179
685.117	1132
685.150	1360
685.164	1416
685.210	1518
685.257	1653
685.272	1577
685.303	1434
685.350	1991
685.393	1524
685.396	1480
685.443	1197
685.490	810
685.514	1056
685.536	1283
685.583	764
685.629	1659
685.636	1623
685.675	1384
685.722	766
685.757	1225
685.768	1356
685.815	1235
685.861	1241
685.878	1249
685.908	1408
685.954	1364
686.000	1832
686.000	1833
686.047	1024
686.093	1637
686.121	1410
686.139	1301
686.185	1935
686.232	1710
686.242	1743
686.278	1771
686.324	2441
686.363	1899
686.370	1812
686.416	1467
686.463	2093
686.484	1873
686.509	1591
686.555	2231
686.601	2199
686.606	2206
686.647	2194
686.693	1894
686.727	2143
686.739	2256
686.785	1639
686.831	1840
686.848	1901
686.877	2007
686.923	1586
686.969	1930
686.969	1932
687.015	1683
687.061	2185
687.090	2283
687.107	2274
687.153	2457
687.199	2604
687.211	2522
687.245	2270
687.291	2307
687.332	1663
687.336	1629
687.382	2521
687.428	2844
687.453	2878
687.474	2746
687.520	2252
687.565	2928
687.574	2823
687.611	2587
687.657	2375
687.695	2557
687.702	2605
687.748	2537
687.794	3480
687.816	3422
687.839	3172
687.885	2967
687.931	2587
687.937	2441
687.976	1814
688.022	2515
688.058	2864
688.067	2953
688.113	2773
688.158	2105
688.179	2470
688.204	2862
688.249	2778
688.295	2446
688.300	2480
688.340	2843
688.386	2619
688.421	2781
688.431	2800
688.477	3023
688.522	3019
688.542	2976
688.567	3016
688.613	2588
688.658	3102
688.663	3119
688.703	3226
688.749	2751
688.784	3063
688.794	3132
688.839	3248
688.884	3201
688.905	2991
688.930	2789
688.975	3215
689.020	3046
689.026	3059
689.065	3189
689.110	3054
689.146	2933
689.155	2903
689.201	3134
689.246	3146
689.267	3131
689.291	3174
689.336	3280
689.381	3072
689.388	3107
689.426	3191
689.471	3458
689.509	3417
689.516	3442
689.561	3338
689.606	3278
689.630	3298
689.651	3207
689.696	3080
689.741	2937
689.750	2930
689.785	3172
689.830	3372
689.871	3119
689.875	3088
689.920	3479
689.965	3452
689.992	3547
690.010	3590
690.054	2995
690.099	3333
690.112	3362
690.144	3395
690.189	3175
690.233	2537
690.233	2541
690.278	3021
690.323	3199
690.354	2990
690.367	2961
690.412	3466
690.457	3450
690.474	3603
690.501	3718
690.546	3386
690.590	3833
690.595	3753
690.635	3284
690.680	3495
690.716	3596
690.724	3580
690.769	3597
690.813	3631
690.836	3572
690.857	3723
690.902	3792
690.946	4227
690.957	4342
690.991	4901
691.035	5313
691.077	5792
691.080	5783
691.124	5633
691.168	5240
691.198	4773
691.213	4634
691.257	4494
691.301	4087
691.318	4008
691.346	3954
691.390	4004
691.434	3606
691.439	3577
691.478	3700
691.522	4115
691.559	4438
691.567	4476
691.611	4167
691.655	4484
691.680	4103
691.699	3868
691.743	4242
691.787	4156
691.800	4234
691.831	4373
691.875	3926
691.919	4035
691.921	4012
691.964	3664
692.008	4176
692.041	3880
692.052	3813
692.096	4188
692.139	4023
692.162	3993
692.183	4004
692.227	4094
692.271	4130
692.282	4114
692.315	4047
692.359	4205
692.402	3961
692.403	3970
692.447	4055
692.490	3983
692.523	3750
692.534	3690
692.578	3718
692.622	3625
692.643	3543
692.666	3603
692.709	4085
692.753	4220
692.763	4317
692.797	4590
692.840	4540
692.884	4727
692.884	4738
692.928	4432
692.971	4051
693.004	4001
693.015	4002
693.059	4015
693.102	3937
693.124	3904
693.146	4064
693.189	4313
693.233	4291
693.245	4389
693.276	4471
693.320	4443
693.363	4426
693.365	4407
693.407	4415
693.450	4548
693.485	4592
693.493	4591
693.537	4706
693.580	4662
693.605	4621
693.624	4803
693.667	5496
693.710	5798
693.725	5895
693.753	6604
693.797	8040
693.840	9548
693.845	9620
693.883	8465
693.926	7636
693.966	6619
693.970	6574
694.013	6050
694.056	5752
694.086	5190
694.099	5040
694.142	5041
694.185	4752
694.206	4740
694.229	4884
694.272	4840
694.315	5077
694.326	5076
694.358	5094
694.401	5089
694.444	4875
694.446	4860
694.487	4783
694.530	4680
694.566	4661
694.573	4715
694.616	4473
694.659	4955
694.686	5157
694.702	5256
694.745	5114
694.787	5013
694.806	5142
694.830	5263
694.873	5093
694.916	5003
694.926	4968
694.959	5137
695.002	5241
695.044	5405
695.046	5400
695.087	5489
695.130	5433
695.166	5360
695.172	5378
695.215	5353
695.258	5400
695.286	5570
695.301	5807
695.343	6258
695.386	6395
695.406	6596
695.428	6614
695.471	6594
695.514	6712
695.526	6679
695.556	7297
695.599	8167
695.641	8822
695.646	8918
695.684	8776
695.726	8104
695.766	7773
695.769	7781
695.811	7408
695.854	7092
695.886	6923
695.896	7016
695.938	7216
695.981	7417
696.005	7472
696.023	7749
696.065	8386
696.108	9041
696.125	9301
696.150	9207
696.192	9048
696.235	8841
696.245	8759
696.277	8987
696.319	9325
696.361	9669
696.365	9659
696.404	9401
696.446	9183
696.485	8983
696.488	9025
696.530	9164
696.572	9357
696.604	9462
696.614	9421
696.656	9120
696.698	8716
696.724	8613
696.740	8771
696.783	8919
696.825	9211
696.844	9259
696.867	9312
696.909	9354
696.951	9403
696.964	9438
696.992	9735
697.034	9948
697.076	10203
697.083	10227
697.118	10446
697.160	10687
697.202	10865
697.203	10840
697.244	10413
697.286	10059
697.323	9540
697.327	9573
697.369	9717
697.411	9898
697.442	10029
697.453	10089
697.494	10133
697.536	10191
697.562	10209
697.578	10153
697.620	9937
697.661	9726
697.682	9544
697.703	9804
697.744	10418
697.786	10987
697.801	11133
697.828	11134
697.869	11188
697.911	11124
697.921	11112
697.952	11216
697.994	11196
698.035	11252
698.040	11219
698.077	11184
698.118	11130
698.160	11098
698.160	11066
698.201	11429
698.243	11803
698.279	12090
698.284	12105
698.325	11918
698.367	11745
698.399	11557
698.408	11749
698.449	12501
698.491	13244
698.518	13715
698.532	13749
698.573	13726
698.614	13703
698.638	13648
698.656	13579
698.697	13340
698.738	13101
698.757	12951
698.779	12914
698.820	12782
698.862	12623
698.877	12540
698.903	12730
698.944	12966
698.985	13204
698.996	13236
699.026	13117
699.067	12902
699.116	12614
699.235	13141
699.354	11673
699.474	11964
699.593	10899
699.713	12280
699.832	11396
699.951	13289
700.070	12974
700.190	11594
700.309	10736
700.428	11116
700.547	10491
700.667	10446
700.786	10742
700.905	10876
701.024	10715
701.143	9252
701.262	10281
701.381	10788
701.500	10980
701.619	11119
701.738	10953
701.857	10812
701.976	10346
702.095	10524
702.214	10543
702.333	10487
702.452	11069
702.571	10766
702.690	10673
702.809	9824
702.928	9938
703.047	9508
703.165	9704
703.284	9822
703.403	10131
703.522	9975
703.640	9542
703.759	9936
703.878	9846
703.997	9579
704.115	9557
704.234	9614
704.353	9502
704.471	8736
704.590	8202
704.708	8307
704.827	9396
704.946	8201
705.064	8202
705.183	8483
705.301	9529
705.420	8201
705.538	8157
705.656	7975
705.775	6909
705.893	8180
706.012	8222
706.130	7537
706.249	7997
706.367	6583
706.485	7926
706.604	7185
706.722	7024
706.840	8304
706.958	8502
707.077	7563
707.195	7085
707.313	6941
707.431	6923
707.549	6893
707.668	6830
707.786	7953
707.904	7013
708.022	7833
708.140	7503
708.258	6410
708.376	7545
708.494	6673
708.612	7084
708.730	7584
708.848	6406
708.966	6741
709.084	7298
709.202	7828
709.320	6234
709.438	5662
709.556	6422
709.674	5585
709.791	6728
709.909	5483
710.027	6133
710.145	5604
710.263	5690
710.380	6232
710.498	5351
710.616	5579
710.733	6165
710.851	5583
710.969	5609
711.086	4542
711.204	6029
711.322	6031
711.439	5432
711.557	5221
711.674	4625
711.792	5446
711.909	5076
712.027	6148
712.144	4811
712.262	4879
712.379	4799
712.497	5073
712.614	5359
712.732	6074
712.849	5220
712.966	4403
713.084	5766
713.201	4387
713.318	4980
713.436	6018
713.553	5713
713.670	7031
713.787	6245
713.905	5712
714.022	6547
714.139	7328
714.256	10483
714.373	18550
714.490	37758
714.608	118995
714.725	494278
714.842	365125
714.959	29602
715.076	12156
715.193	8911
715.310	8301
715.427	5232
715.544	5584
715.661	6777
715.778	5689
715.895	4828
716.011	6024
716.128	5101
716.245	5585
716.362	5250
716.479	4067
716.596	4951
716.713	5117
716.829	4150
716.946	4041
717.063	4209
717.180	3978
717.296	4511
717.413	4227
717.530	4312
717.646	3624
717.763	4951
717.880	3879
717.996	3251
718.113	4067
718.229	3797
718.346	3841
718.462	3061
718.579	4149
718.695	4477
718.812	4947
718.928	4285
719.045	3552
719.161	3923
719.277	3573
719.394	4254
719.510	5218
719.626	6205
719.743	8018
719.859	16093
719.975	39454
720.092	179801
720.208	318097
720.324	26597
720.440	7547
720.557	5038
720.673	5508
720.789	4479
720.905	5472
721.021	3219
721.137	3368
721.253	3703
721.369	2600
721.486	3233
721.602	3237
721.718	2693
721.834	2892
721.950	2791
722.066	3367
722.181	3427
722.297	2880
722.413	3072
722.529	3909
722.645	3278
722.761	2740
722.877	2462
722.993	4036
723.108	6740
723.224	4515
723.340	3719
723.456	3340
723.571	2502
723.687	2695
723.803	3308
723.918	2891
724.034	2992
724.150	2536
724.265	2876
724.381	2383
724.497	2189
724.612	3094
724.728	2608
724.843	1929
724.959	2198
725.074	3228
725.190	3001
725.305	2428
725.421	2062
725.536	3338
725.651	2605
725.767	2683
725.882	3342
725.997	2388
726.113	2790
726.228	2728
726.343	2155
726.459	3095
726.574	2942
726.689	2714
726.804	1720
726.920	2415
727.035	2312
727.150	2258
727.265	2428
727.380	2358
727.495	2871
727.610	2080
727.725	2277
727.841	2526
727.956	1939
728.071	2733
728.186	2062
728.301	1251
728.416	2209
728.531	2613
728.645	2302
728.760	2526
728.875	1952
728.990	1591
729.105	2127
729.220	2607
729.335	3014
729.449	1927
729.564	1853
729.679	1900
729.794	2236
729.908	3050
730.023	2312
730.138	2240
730.253	2394
730.367	1977
730.482	2464
730.596	2426
730.711	3121
730.826	4218
730.940	2897
731.055	3513
731.169	3644
731.284	3327
731.398	3162
731.513	4375
731.627	4638
731.742	5829
731.856	7636
731.970	7708
732.085	10061
732.199	17322
732.313	34426
732.428	98529
732.542	292201
732.656	129680
732.771	21993
732.885	11075
732.999	10519
733.113	9694
733.227	9487
733.342	7892
733.456	8016
733.570	8466
733.684	7375
733.798	7198
733.912	7330
734.026	7205
734.140	6358
734.254	6755
734.368	6652
734.482	7982
734.596	6911
734.710	6270
734.824	6471
734.938	5490
735.052	6654
735.166	6670
735.280	6323
735.393	6560
735.507	5620
735.621	5239
735.735	5495
735.849	5523
735.962	5139
736.076	5617
736.190	5330
736.303	6134
736.417	6101
736.531	5152
736.644	5107
736.758	5139
736.872	4800
736.985	5294
737.099	4909
737.212	4816
737.326	4852
737.439	4761
737.553	5013
737.666	5389
737.780	4154
737.893	4784
738.007	4691
738.120	4786
738.233	4706
738.347	4725
738.460	5279
738.573	4948
738.687	4028
738.800	4761
738.913	5567
739.026	4808
739.140	4942
739.253	4354
739.366	3787
739.479	3867
739.592	3799
739.705	4308
739.818	4431
739.932	4040
740.045	3866
740.158	4927
740.271	5466
740.384	4005
740.497	4057
740.610	5368
740.723	3935
740.836	4072
740.949	3892
741.062	4358
741.174	4332
741.287	4426
741.400	4464
741.513	3628
741.626	4162
741.739	3395
741.851	4310
741.964	3839
742.077	3712
742.189	3999
742.302	5589
742.415	4155
742.527	3715
742.640	4560
742.753	2179
742.865	4085
742.978	4279
743.090	3310
743.203	3983
743.316	3613
743.428	2869
743.541	3689
743.653	3411
743.766	4240
743.878	3107
743.990	3792
744.103	6409
744.215	7201
744.327	3783
744.440	4701
744.552	3192
744.664	2589
744.777	3477
744.889	2279
745.001	2821
745.113	3853
745.226	2961
745.338	2968
745.450	3474
745.562	3319
745.674	2701
745.786	3380
745.898	3512
746.010	3110
746.122	2969
746.234	3137
746.347	3481
746.459	3271
746.570	3048
746.682	6878
746.794	10128
746.906	3828
747.018	3466
747.130	2482
747.242	3377
747.354	3245
747.466	3017
747.577	2854
747.689	3137
747.801	2595
747.913	2472
748.024	2764
748.136	2180
748.248	1906
748.359	2860
748.471	2991
748.583	1092
748.694	2211
748.806	3264
748.918	2840
749.029	2906
749.141	2919
749.252	3108
749.364	2214
749.475	2103
749.587	2230
749.698	1816
749.809	2357
749.921	2154
750.032	3171
750.144	1645
750.255	2066
750.366	2201
750.478	1889
750.589	2574
750.700	1858
750.811	2521
750.923	2837
751.034	1415
751.145	3085
751.256	1944
751.367	2132
751.479	2010
751.590	2137
751.701	2105
751.812	1466
751.923	2013
752.034	2688
752.145	2501
752.256	2294
752.367	1561
752.478	2323
752.589	2347
752.700	1976
752.811	1589
752.922	2312
753.032	1773
753.143	2131
753.254	2011
753.365	2861
753.476	1552
753.586	2456
753.697	1324
753.808	2007
753.919	1612
754.029	2043
754.140	2076
754.251	1148
754.361	2479
754.472	2953
754.582	2224
754.693	1583
754.804	2818
754.914	2172
755.025	1150
755.135	1839
755.246	2357
755.356	949
755.466	1630
755.577	1712
755.687	1722
755.798	1398
755.908	2098
756.018	1441
756.129	1882
756.239	1381
756.349	2213
756.460	2921
756.570	3070
756.680	1166
756.790	2387
756.900	2465
757.011	1009
757.121	1416
757.231	1492
757.341	1684
757.451	226
757.561	1177
757.671	1486
757.781	937
757.891	1698
758.001	1461
758.111	2592
758.221	2166
758.331	2407
758.441	2475
758.551	1535
758.661	3159
758.771	2471
758.880	1697
758.990	1876
759.100	1803
759.210	1545
759.320	2413
759.429	1802
759.539	2945
759.649	2584
759.758	3635
759.868	4199
759.978	3225
760.087	3475
760.197	4569
760.307	3108
760.416	3959
760.526	2402
760.635	3634
760.745	3603
760.854	3779
760.964	4844
761.073	5092
761.182	3933
761.292	3820
761.401	3070
761.511	2846
761.620	1931
761.729	1451
761.839	2202
761.948	2306
762.057	1752
762.166	3125
762.276	413
762.385	3903
762.494	1431
762.603	1194
762.712	1470
762.822	2006
762.931	1136
763.040	960
763.149	1511
763.258	943
763.367	2255
763.476	2261
763.585	1757
763.694	1500
763.803	1815
763.912	1945
764.021	1990
764.130	1115
764.238	2403
764.347	2199
764.456	1632
764.565	1807
764.674	1380
764.783	1041
764.891	1879
765.000	2463
765.109	1824
765.217	1643
765.326	2971
765.435	3408
765.543	4120
765.652	3497
765.761	4904
765.869	7460
765.978	10091
766.086	18739
766.195	36919
766.303	94804
766.412	214011
766.520	155146
766.629	50469
766.737	21357
766.846	12292
766.954	8718
767.062	7100
767.171	4825
767.279	4523
767.387	3359
767.496	2538
767.604	2654
767.712	2159
767.820	2462
767.928	2506
768.037	2584
768.145	2353
768.253	2332
768.361	1745
768.469	1335
768.577	1612
768.685	2725
768.793	2401
768.901	1537
769.009	3014
769.117	2494
769.225	3463
769.333	4805
769.441	7494
769.549	14901
769.657	34618
769.765	104885
769.873	167598
769.981	58763
770.088	16499
770.196	8260
770.304	6301
770.412	4161
770.519	3714
770.627	3388
770.735	2316
770.842	3098
770.950	1775
771.058	2714
771.165	3387
771.273	3231
771.380	3320
771.488	4483
771.595	5331
771.703	4301
771.810	3625
771.918	3376
772.025	4940
772.133	5461
772.240	4158
772.348	6227
772.455	6213
772.562	5192
772.670	4937
772.777	5664
772.884	4007
772.991	4635
773.099	4720
773.206	3776
773.313	5374
773.420	5008
773.528	3774
773.635	3984
773.742	4989
773.849	4940
773.956	4673
774.063	4229
774.170	3439
774.277	5413
774.384	4128
774.491	3296
774.598	4821
774.705	4201
774.812	3783
774.919	3968
775.026	3955
775.133	4183
775.239	3742
775.346	3886
775.453	4465
775.560	3465
775.667	3686
775.773	3920
775.880	4313
775.987	2948
776.093	3914
776.200	3316
776.307	2656
776.413	4218
776.520	4062
776.627	3566
776.733	3264
776.840	3061
776.946	7905
777.053	9593
777.159	15068
777.266	8433
777.372	13473
777.478	10650
777.585	5817
777.691	3101
777.798	3447
777.904	3665
778.010	3073
778.117	3629
778.223	3743
778.329	2946
778.435	2637
778.542	3855
778.648	2693
778.754	2168
778.860	3015
778.966	2422
779.072	2015
779.178	2755
779.284	2554
779.391	2629
779.497	2068
779.603	4488
779.708	1459
779.815	3266
779.920	4107
780.026	4250
780.132	1864
780.238	1882
780.344	2263
780.450	4324
780.556	1901
780.661	1921
780.767	2647
780.873	1288
780.979	1906
781.085	2397
781.190	2669
781.296	1681
781.402	2638
781.507	2486
781.613	1695
781.719	1732
781.824	2934
781.930	3186
782.035	2053
782.141	2372
782.246	1612
782.352	1695
782.457	2763
782.563	2327
782.668	2156
782.773	2122
782.879	558
782.984	2570
783.090	2372
783.195	2219
783.300	2240
783.405	2078
783.511	1320
783.616	1957
783.721	1770
783.826	1335
783.932	1641
784.037	2422
784.142	2069
784.247	2167
784.352	2286
784.457	1614
784.562	1403
784.667	2198
784.772	924
784.877	995
784.982	2454
785.087	1687
785.192	2262
785.297	856
785.402	2405
785.507	1665
785.611	1633
785.716	1120
785.821	1840
785.926	1761
786.031	1105
786.135	1925
786.240	1089
786.345	458
786.450	1437
786.554	1524
786.659	413
786.763	529
786.868	1823
786.973	2438
787.077	1575
787.182	1568
787.286	1817
787.391	1555
787.495	1156
787.600	574
787.704	755
787.809	1297
787.913	188
788.017	1179
788.122	1942
788.226	2152
788.330	404
788.435	1385
788.539	1955
788.643	97
788.747	-141
788.852	1129
788.956	572
789.060	2224
789.164	102
789.268	679
789.372	1865
789.476	829
789.580	540
789.684	1008
789.788	1635
789.892	1043
789.996	1135
790.100	281
790.204	1005
790.308	1336
790.412	760
790.516	872
790.620	394
790.724	1983
790.828	1212
790.931	13
791.035	1919
791.139	366
791.242	-308
791.346	2281
791.450	1462
791.554	519
791.657	-756
791.761	2787
791.864	2054
791.968	1301
792.072	1345
792.175	1207
792.279	716
792.382	1402
792.486	965
792.589	1081
792.693	738
792.796	-187
792.899	1269
793.003	1177
793.106	-733
793.209	-9
793.313	977
793.416	-628
793.519	768
793.623	1278
793.726	1121
793.829	189
793.932	378
794.035	-189
794.138	1670
794.242	1469
794.345	55
794.448	93
794.551	-240
794.654	1831
794.757	2309
794.860	797
794.963	941
795.066	-42
795.169	1199
795.272	553
795.375	1507
795.477	540
795.580	197
795.683	-849
795.786	144
795.889	-685
795.991	2020
796.094	1587
796.197	-873
796.300	1750
796.402	356
796.505	453
796.608	-169
796.710	1241
796.813	1056
796.915	1152
797.018	847
797.120	1359
797.223	-627
797.326	2063
797.428	-793
797.530	386
797.633	-8
797.735	1309
797.838	-519
797.940	1468
798.042	177
798.145	358
798.247	1112
798.349	-103
798.452	1063
798.554	1262
798.656	314
798.758	1984
798.860	268
798.962	489
799.065	36
799.167	-447
799.269	1133
799.371	1395
799.473	958
799.575	464
799.677	309
799.779	1793
799.881	-1382
799.983	990
800.085	1582
800.187	210
800.289	113
800.390	631
800.492	1237
800.594	1434
800.696	-788
800.798	532
800.899	-112
801.001	621
801.103	157
801.205	571
801.306	-237
801.408	-609
801.509	-31
801.611	1537
801.713	468
801.814	-135
801.916	-467
802.017	397
802.119	-257
802.220	613
802.322	-1456
802.423	1710
802.525	-522
802.626	441
802.727	766
802.829	205
802.930	-626
803.031	1429
803.133	-203
803.234	-87
803.335	132
803.436	-1071
803.538	113
803.639	-50
803.740	409
803.841	-450
803.942	898
804.043	324
804.144	245
804.245	205
804.346	-869
804.447	538
804.548	-92
804.649	1921
804.750	466
804.851	-9
804.952	185
805.053	373
805.154	-588
805.255	657
805.355	-51
805.456	-161
805.557	-242
805.658	-148
805.758	855
805.859	314
805.960	301
806.061	-105
806.161	-87
806.262	481
806.362	-50
806.463	213
806.564	744
806.664	-7
806.765	-618
806.865	282
806.966	-281
807.066	-797
807.166	61
807.267	189
807.367	-1314
807.468	550
807.568	-1279
807.668	541
807.769	658
807.869	-271
807.969	215
808.069	408
808.170	266
808.270	78
808.370	-98
808.470	1102
808.570	-722
808.670	174
808.770	208
808.870	-1315
808.970	-462
809.070	398
809.170	-255
809.271	121
809.370	-704
809.470	620
809.570	-350
809.670	-393
809.770	93
809.870	949
809.970	-23
810.070	-42
810.169	1371
810.269	-1208
810.369	1160
810.469	47
810.568	-871
810.668	-96
810.768	-483
810.867	242
810.967	-149
811.066	507
811.166	-181
811.265	556
811.365	-1365
811.464	-173
811.564	-61
811.663	1027
811.763	-1410
811.862	943
811.962	568
812.061	387
812.160	-677
812.260	119
812.359	-351
812.458	-1133
812.557	-35
812.657	-594
812.756	-138
812.855	390
812.954	-255
813.053	673
813.153	-140
813.252	-204
813.351	230
813.450	407
813.549	-199
813.648	-604
813.747	-820
813.846	840
813.945	-740
814.044	-322
814.143	272
814.242	183
814.341	-909
814.439	931
814.538	-77
814.637	772
814.736	-335
814.835	1777
814.933	-650
815.032	941
815.131	576
815.229	3543
815.328	4627
815.427	3407
815.525	2836
815.624	2813
815.722	1782
815.821	3636
815.919	2596
816.018	2423
816.116	2579
816.215	2256
816.313	3505
816.412	3123
816.510	3378
816.609	4729
816.707	4267
816.805	3807
816.904	3039
817.002	3954
817.100	3953
817.198	4268
817.296	3392
817.395	3787
817.493	3995
817.591	2433
817.689	2952
817.787	3114
817.885	3730
817.983	3546
818.081	3012
818.179	4185
818.277	7068
818.375	5248
818.473	4497
818.571	3556
818.669	4767
818.767	5254
818.865	2433
818.963	2661
819.061	3243
819.158	2939
819.256	5233
819.354	4505
819.452	7931
819.549	3016
819.647	3636
819.745	1893
819.842	3850
819.940	3369
820.038	1810
820.135	2214
820.233	4051
820.330	2119
820.428	1433
820.525	3746
820.623	1799
820.720	2088
820.818	2562
820.915	3067
821.012	2818
821.110	2186
821.207	3218
821.304	2026
821.402	3491
821.499	4908
821.596	6337
821.693	2987
821.791	2586
821.888	2866
821.985	3609
822.082	2185
822.179	3148
822.276	3208
822.373	2371
822.470	1657
822.567	3114
822.664	975
822.761	3215
822.858	1459
822.955	2147
823.052	1692
823.149	2443
823.246	2706
823.343	982
823.440	2526
823.536	1708
823.633	1386
823.730	1108
823.827	2126
823.923	1859
824.020	2643
824.117	3689
824.213	2513
824.310	2553
824.407	1811
824.503	2005
824.600	2589
824.696	1677
824.793	3148
824.889	1733
824.986	1827
825.082	1585
825.179	2469
825.275	2249
825.371	2483
825.468	1891
825.564	771
825.660	2941
825.757	3012
825.853	1915
825.949	1256
826.045	1578
826.142	1009
826.238	2038
826.334	1942
826.430	273
826.526	1686
826.622	839
826.718	1898
826.814	1975
826.910	2059
827.006	279
827.102	340
827.198	2532
827.294	1368
827.390	1523
827.486	960
827.582	-309
827.678	550
827.774	2301
827.869	535
827.965	1715
828.061	621
828.157	2355
828.252	1544
828.348	-103
828.444	1714
828.539	-61
828.635	1258
828.731	2242
828.826	701
828.922	1394
829.017	1542
829.113	2652
829.208	1535
829.304	874
829.399	3305
829.495	1000
829.590	2596
829.685	234
829.781	2455
829.876	946
829.971	670
830.066	-44
830.162	1776
830.257	1639
830.352	697
830.447	1011
830.543	1599
830.638	-250
830.733	2491
830.828	217
830.923	1734
831.018	1399
831.113	1996
831.208	358
831.303	879
831.398	-129
831.493	1321
831.588	2238
831.683	234
831.778	222
831.873	1165
831.967	1923
832.062	956
832.157	348
832.252	2124
832.346	588
832.441	1733
832.536	1070
832.631	1664
832.725	496
832.820	1540
832.914	957
833.009	110
833.104	-85
833.198	373
833.293	-183
833.387	1336
833.482	1576
833.576	1211
833.670	1274
833.765	1587
833.859	1450
833.954	1693
834.048	1448
834.142	458
834.237	456
834.331	121
834.425	607
834.519	733
834.613	1719
834.708	4
834.802	550
834.896	472
834.990	462
835.084	138
835.178	400
835.272	1022
835.366	1338
835.460	1895
835.554	1024
835.648	1270
835.742	-207
835.836	325
835.930	-796
836.024	1067
836.117	716
836.211	184
836.305	836
836.399	873
836.493	-180
836.586	1141
836.680	-613
836.774	453
836.867	720
836.961	111
837.055	23
837.148	764
837.242	309
837.335	718
837.429	297
837.522	-25
837.616	-197
837.709	258
837.803	-193
837.896	1063
837.989	705
838.083	-650
838.176	-254
838.269	-554
838.363	618
838.456	595
838.549	835
838.642	-507
838.735	609
838.829	1163
838.922	102
839.015	322
839.108	469
839.201	572
839.294	1285
839.387	1307
839.480	-440
839.573	-224
839.666	-18
839.759	289
839.852	-571
839.945	1020
840.038	-412
840.131	19
840.223	-722
840.316	-67
840.409	-31
840.502	483
840.594	1572
840.687	-491
840.780	-11
840.873	-296
840.965	-290
841.058	737
841.150	87
841.243	-686
841.336	138
841.428	266
841.521	-1419
841.613	-691
841.706	-386
841.798	-279
841.890	-184
841.983	-938
842.075	784
842.167	112
842.260	-489
842.352	1011
842.444	-831
842.537	173
842.629	438
842.721	-696
842.813	241
842.905	-1498
842.997	272
843.090	312
843.182	-528
843.274	-604
843.366	914
843.458	377
843.550	626
843.642	-217
843.734	867
843.826	-596
843.918	268
844.009	34
844.101	566
844.193	930
844.285	252
844.377	1547
844.469	1428
844.560	1472
844.652	1568
844.744	911
844.835	197
844.927	1360
845.019	-623
845.110	465
845.202	9
845.293	-198
845.385	-569
845.476	-283
845.568	1181
845.659	-869
845.751	-177
845.842	-530
845.934	-1228
846.025	557
846.116	637
846.208	-270
846.299	-325
846.390	269
846.482	-169
846.573	506
846.664	-154
846.755	201
846.846	620
846.937	-1162
847.029	-521
847.120	-252
847.211	-20
847.302	1253
847.393	-943
847.484	378
847.575	-794
847.666	-30
847.757	-285
847.847	271
847.938	600
848.029	140
848.120	-946
848.211	-112
848.302	-961
848.392	230
848.483	-8
848.574	-151
848.664	-78
848.755	358
848.846	-427
848.936	-536
849.027	507
849.118	1120
849.208	207
849.299	3130
849.389	5818
849.480	13386
849.570	25336
849.661	54699
849.751	73486
849.841	19783
849.932	3049
850.022	809
850.112	1356
850.203	1078
850.293	42
850.383	-172
850.474	313
850.564	-654
850.654	-749
850.744	662
850.834	201
850.924	1086
851.014	562
851.104	-41
851.194	-294
851.284	625
851.374	409
851.464	-61
851.554	-187
851.644	373
851.734	511
851.824	-189
851.914	-215
852.004	505
852.094	-386
852.183	-273
852.273	514
852.363	264
852.452	292
852.542	-346
852.632	218
852.721	971
852.811	310
852.901	253
852.990	555
853.080	860
853.169	425
853.259	1263
853.348	1293
853.438	3049
853.527	4233
853.617	7906
853.706	14931
853.795	28646
853.885	58253
853.974	102288
854.063	188164
854.152	217984
854.242	78454
854.331	21092
854.420	8308
854.509	6300
854.598	4253
854.687	3385
854.777	2023
854.866	1765
854.955	1813
855.044	276
855.133	403
855.222	92
855.311	62
855.400	502
855.488	419
855.577	5
855.666	123
855.755	185
855.844	568
855.933	-71
856.021	357
856.110	37
856.199	-563
856.288	-422
856.376	-379
856.465	-36
856.554	648
856.642	11
856.731	536
856.819	86
856.908	-277
856.996	679
857.085	-127
857.173	-843
857.262	-799
857.350	163
857.438	-296
857.527	-377
857.615	-266
857.703	526
857.792	-1230
857.880	-368
857.968	-935
858.056	-83
858.145	-385
858.233	-101
858.321	-135
858.409	369
858.497	-669
858.585	-798
858.673	-925
858.761	-920
858.849	-603
858.937	-905
859.025	406
859.113	984
859.201	-67
859.289	932
859.377	-348
859.465	48
859.552	-580
859.640	-692
859.728	-914
859.816	-290
859.903	-832
859.991	-803
860.079	-120
860.166	324
860.254	-369
860.342	-154
860.429	-411
860.517	-707
860.604	-253
860.692	121
860.779	-1046
860.867	68
860.954	-347
861.042	-121
861.129	-433
861.216	396
861.304	-399
861.391	-213
861.478	-357
861.565	-18
861.653	923
861.740	-6
861.827	-227
861.914	-435
862.001	-323
862.089	172
862.176	-13
862.263	-748
862.350	142
862.437	180
862.524	-488
862.611	254
862.698	276
862.785	929
862.871	1445
862.958	-415
863.045	-694
863.132	501
863.219	159
863.306	-898
863.392	452
863.479	-7
863.566	-613
863.652	-413
863.739	-176
863.826	726
863.912	700
863.999	-215
864.086	139
864.172	199
864.259	595
864.345	823
864.432	285
864.518	634
864.604	633
864.691	-161
864.777	616
864.863	1741
864.950	2088
865.036	3658
865.122	6121
865.209	6708
865.295	7348
865.381	6564
865.467	6850
865.553	8377
865.639	11902
865.726	19187
865.812	35002
865.898	61197
865.984	91230
866.070	159341
866.156	130677
866.242	36618
866.328	13973
866.414	8045
866.499	7075
866.585	6426
866.671	5683
866.757	5956
866.843	4408
866.928	4226
867.014	4975
867.100	5616
867.186	4357
867.271	5407
867.357	3219
867.442	3757
867.528	3871
867.614	3991
867.699	4234
867.785	4937
867.870	6048
867.956	6155
868.041	4131
868.127	5108
868.212	4925
868.297	4352
868.383	3658
868.468	4783
868.553	4609
868.639	3899
868.724	3739
868.809	3641
868.894	3820
868.979	4178
869.065	3096
869.150	1882
869.235	3566
869.320	2390
869.405	2231
869.490	3326
869.575	2492
869.660	3274
869.745	3490
869.830	2993
869.915	2603
870.000	2006
870.085	2743
870.169	4315
870.254	3705
870.339	2048
870.424	2174
870.509	3647
870.593	3921
870.678	3484
870.763	3696
870.847	2995
870.932	3592
871.016	3822
871.101	2025
871.186	3382
871.270	3524
871.355	2258
871.439	2669
871.523	3351
871.608	2031
871.692	2459
871.777	4010
871.861	3106
871.945	2251
872.030	3520
872.114	1908
872.198	1393
872.282	1656
872.367	2456
872.451	1984
872.535	2196
872.619	1756
872.703	1854
872.787	3389
872.871	1976
872.955	2191
873.039	824
873.123	2639
873.207	2685
873.291	1704
873.375	1913
873.459	3082
873.543	1758
873.627	2964
873.711	1479
873.794	2669
873.878	1878
873.962	1701
874.045	1750
874.129	1743
874.137	1726
874.213	1556
874.245	1414
874.296	1188
874.352	1389
874.380	1482
874.460	2141
874.464	2168
874.547	1786
874.568	1908
874.631	2241
874.676	1793
874.714	1416
874.784	1744
874.798	1813
874.881	2519
874.892	2327
874.965	1026
874.999	1709
875.048	2595
875.107	2017
875.131	1788
875.215	1958
875.215	1957
875.298	45
875.323	763
875.381	2377
875.430	2861
875.465	3182
875.538	1832
875.548	1651
875.631	1252
875.646	1265
875.714	1401
875.753	1179
875.798	870
875.861	1758
875.881	2019
875.964	1638
875.968	1601
876.047	1096
876.076	1351
876.130	1842
876.183	2130
876.213	2267
876.291	2311
876.296	2313
876.379	1774
876.398	1812
876.462	1800
876.506	1642
876.545	1641
876.613	1784
876.628	1821
876.711	1915
876.721	1985
876.794	2547
876.828	2639
876.877	2517
876.935	1740
876.960	1536
877.043	2126
877.043	2123
877.125	1864
877.150	2210
877.208	2885
877.258	2444
877.291	2127
877.365	1477
877.374	1395
877.456	1291
877.472	1346
877.539	1927
877.579	2109
877.622	2175
877.687	1851
877.704	1769
877.787	1964
877.794	1986
877.869	2413
877.901	2287
877.952	1626
878.008	1274
878.034	1296
878.115	1049
878.117	1052
878.199	1716
878.222	1999
878.282	2582
878.329	2546
878.364	2460
878.437	2965
878.447	3000
878.529	1615
878.544	1554
878.611	1666
878.651	2015
878.694	2377
878.758	2770
878.776	2907
878.858	2808
878.865	2797
878.941	2045
878.972	1815
879.023	1873
879.078	1616
879.105	1593
879.185	2942
879.187	2963
879.269	2717
879.292	2547
879.351	2276
879.399	2011
879.433	1673
879.506	2078
879.516	2189
879.598	2362
879.613	2353
879.680	2175
879.720	2414
879.762	2867
879.827	2967
879.844	2853
879.926	2208
879.933	2241
880.007	3088
880.040	3503
880.089	4064
880.147	4256
880.171	4558
880.253	7872
880.254	7881
880.335	10045
880.360	10912
880.417	15825
880.467	23509
880.499	28746
880.574	31825
880.580	30808
880.662	12365
880.680	9557
880.744	5231
880.787	3548
880.825	3312
880.893	2936
880.907	2959
880.989	2818
881.000	2794
881.070	2937
881.106	3080
881.152	2933
881.213	2515
881.233	2403
881.315	2415
881.319	2386
881.396	2793
881.426	3064
881.478	3124
881.532	3139
881.559	3170
881.639	2855
881.641	2843
881.722	2592
881.745	2442
881.803	2958
881.852	3212
881.885	2999
881.958	2349
881.966	2327
882.047	2936
882.064	2919
882.129	2554
882.171	2247
882.210	1915
882.277	1904
882.291	2060
882.372	3246
882.383	3292
882.454	3969
882.489	4046
882.535	3442
882.596	3381
882.616	3448
882.697	2815
882.702	2798
882.778	2441
882.808	2195
882.859	1905
882.914	2013
882.940	2306
883.020	2947
883.021	2957
883.102	3528
883.127	3464
883.183	3823
883.233	4117
883.264	3451
883.339	2126
883.345	2121
883.426	1690
883.445	1682
883.507	2095
883.551	2328
883.587	2536
883.657	3194
883.668	3345
883.749	4061
883.763	4042
883.830	2563
883.869	2174
883.910	2278
883.975	2318
883.991	2509
884.072	3253
884.081	3317
884.152	4022
884.187	4475
884.233	4740
884.292	4629
884.314	4276
884.394	2814
884.398	2760
884.475	1646
884.504	1132
884.555	1506
884.610	1691
884.636	1845
884.716	3151
884.716	3171
884.797	4207
884.821	4634
884.877	3984
884.927	3093
884.958	2821
885.033	2556
885.038	2525
885.118	1631
885.139	1439
885.199	1961
885.244	2414
885.279	2886
885.350	3765
885.359	3877
885.439	4451
885.456	4532
885.520	3683
885.561	3337
885.600	2848
885.667	2122
885.680	2367
885.760	3229
885.773	3416
885.840	2624
885.878	2189
885.920	2420
885.984	2524
886.000	2722
886.080	3739
886.089	3855
886.160	3906
886.195	3842
886.240	3804
886.300	3623
886.320	3725
886.400	4191
886.406	4211
886.480	3478
886.511	3193
886.560	3029
886.616	2650
886.640	2738
886.720	3077
886.722	3075
886.800	3104
886.827	3091
886.879	3196
886.932	3289
886.959	3611
887.038	4403
887.039	4404
887.119	3454
887.143	3119
887.198	3459
887.248	3690
887.278	3584
887.354	3350
887.358	3365
887.437	3498
887.459	3488
887.517	3804
887.564	4123
887.596	3869
887.669	3029
887.676	2987
887.755	2470
887.774	2334
887.835	2063
887.880	2024
887.914	2661
887.985	3609
887.994	3711
888.073	4592
888.090	4753
888.153	5275
888.195	5624
888.232	4927
888.300	3623
888.311	3542
888.391	2868
888.405	2718
888.470	2626
888.510	2618
888.549	2799
888.615	3150
888.628	3317
888.708	4140
888.720	4250
888.787	4271
888.825	4280
888.866	3681
888.930	2765
888.945	2776
889.024	2762
889.035	2751
889.103	4249
889.140	5033
889.182	4235
889.245	3006
889.261	3167
889.340	3927
889.349	4002
889.419	3557
889.454	3313
889.498	3273
889.559	3211
889.577	3280
889.656	3547
889.664	3567
889.735	4494
889.768	4915
889.814	4439
889.873	3776
889.978	4514
890.083	3459
890.187	3709
890.292	3835
890.397	3781
890.501	3838
890.606	3260
890.710	4105
890.815	4485
890.919	4370
891.024	4097
891.128	4152
891.233	3537
891.337	5213
891.442	4995
891.546	4504
891.650	3151
891.755	2635
891.859	4715
891.963	5013
892.068	4013
892.172	3902
892.276	2414
892.380	2581
892.484	4571
892.589	5786
892.693	4860
892.797	2782
892.901	2681
893.005	2425
893.109	5463
893.213	5193
893.317	3504
893.421	3322
893.525	2691
893.629	2641
893.733	4593
893.837	3686
893.941	2442
894.045	3385
894.148	2343
894.252	3167
894.356	3920
894.460	5390
894.564	3811
894.667	2751
894.771	1881
894.875	2429
894.978	2855
895.082	3068
895.186	4191
895.289	4024
895.393	3377
895.496	3999
895.600	3241
895.703	2432
895.807	3004
895.910	2986
896.014	3831
896.117	3170
896.221	3255
896.324	3579
896.427	2349
896.531	2536
896.634	3479
896.737	2402
896.840	3350
896.944	3634
897.047	5031
897.150	3949
897.253	2080
897.356	2472
897.460	2484
897.563	2970
897.666	3685
897.769	3787
897.872	2925
897.975	2666
898.078	3061
898.181	1994
898.284	2509
898.387	4201
898.490	4551
898.593	2833
898.695	2525
898.798	2596
898.901	2436
899.004	3442
899.107	2096
899.209	3538
899.312	4597
899.415	2896
899.518	1956
899.620	1974
899.723	1911
899.826	2415
899.928	1983
900.031	2930
900.133	3693
900.236	2878
900.338	2154
900.441	2166
900.543	3367
900.646	1787
900.748	1865
900.851	4053
900.953	2182
901.055	2486
901.158	2411
901.260	2392
901.362	1966
901.465	2651
901.567	2653
901.669	4947
901.771	2326
901.873	2852
901.976	2633
902.078	3056
902.180	2053
902.282	1756
902.384	2656
902.486	4044
902.588	4670
902.690	1950
902.792	2045
902.894	3116
902.996	4221
903.098	2847
903.200	1921
903.302	2010
903.404	1918
903.505	2287
903.607	2336
903.709	3887
903.811	4089
903.913	2310
904.014	2213
904.116	1632
904.218	1936
904.319	3395
904.421	5329
904.523	4864
904.624	3524
904.726	3678
904.827	2832
904.929	1995
905.030	2229
905.132	4585
905.233	3707
905.335	1351
905.436	2413
905.537	1702
905.639	2599
905.740	3461
905.841	3604
905.943	3542
906.044	2784
906.145	2969
906.247	1854
906.348	2410
906.449	3418
906.550	2593
906.651	2661
906.752	1551
906.854	2347
906.955	1888
907.056	1908
907.157	3792
907.258	3807
907.359	2132
907.460	1624
907.561	2551
907.662	2184
907.762	3014
907.863	3076
907.964	3353
908.065	2594
908.166	2032
908.267	2711
908.367	2340
908.468	2006
908.569	2475
908.670	3603
908.770	2348
908.871	3295
908.971	3348
909.072	2930
909.173	1492
909.273	2477
909.374	3238
909.474	3217
909.575	1963
909.675	2626
909.776	2973
909.876	2934
909.977	2141
910.077	3505
910.177	4084
910.278	2916
910.378	2189
910.478	1712
910.579	3605
910.679	3022
910.779	3317
910.879	3297
910.980	2703
911.080	2764
911.180	1658
911.280	1602
911.380	1534
911.480	2209
911.580	2737
911.680	2273
911.780	2997
911.880	3776
911.980	1363
912.080	2789
912.180	2912
912.280	3096
912.380	2575
912.480	1643
912.580	2041
912.679	1978
912.779	4262
912.879	2515
912.979	2082
913.078	1880
913.178	2054
913.278	2271
913.377	2050
913.477	2151
913.577	2857
913.676	3241
913.776	3230
913.875	2665
913.975	2675
914.074	2947
914.174	3143
914.273	1496
914.373	3195
914.472	2479
914.572	1905
914.671	2243
914.770	2106
914.870	2215
914.969	2268
915.068	2704
915.167	3469
915.267	2110
915.366	1768
915.465	2237
915.564	3309
915.663	2837
915.763	3279
915.862	3073
915.961	3672
916.060	1880
916.159	2073
916.258	1895
916.357	3275
916.456	2279
916.555	2979
916.654	2536
916.752	2950
916.851	4322
916.950	2478
917.049	1126
917.148	2322
917.247	1972
917.345	2097
917.444	1766
917.543	2637
917.642	2986
917.740	3248
917.839	4585
917.937	4051
918.036	4098
918.135	3024
918.233	2537
918.332	2313
918.430	2279
918.529	1552
918.627	3332
918.726	3965
918.824	2223
918.923	2566
919.021	2629
919.119	2645
919.218	2258
919.316	3201
919.414	3996
919.512	3624
919.611	3314
919.709	3340
919.807	3931
919.905	4425
920.003	4682
920.102	4168
920.200	3962
920.298	5188
920.396	3880
920.494	3950
920.592	3611
920.690	3512
920.788	4239
920.886	3309
920.984	4679
921.082	4461
921.180	5138
921.277	4985
921.375	5670
921.473	7115
921.571	7529
921.669	6529
921.766	7489
921.864	7237
921.962	6771
922.060	6880
922.157	6560
922.255	6852
922.352	6757
922.450	7109
922.548	7730
922.645	8703
922.743	10627
922.840	16731
922.938	19187
923.035	18121
923.133	16199
923.230	18373
923.327	21865
923.425	20623
923.522	19747
923.619	18764
923.717	17780
923.814	16220
923.911	16462
924.008	17601
924.106	16436
924.203	15658
924.300	17695
924.397	16148
924.494	17281
924.591	17286
924.688	16222
924.786	17345
924.883	16106
924.979	16096
925.077	16258
925.173	16011
925.270	16386
925.367	15701
925.464	17586
925.561	18951
925.658	18720
925.755	15904
925.852	18981
925.948	17082
926.045	17182
926.142	17542
926.239	19680
926.335	14611
926.432	17206
926.529	17857
926.625	19231
926.722	15020
926.818	14038
926.915	16873
927.011	15232
927.108	14209
927.204	16171
927.301	13990
927.397	16756
927.494	17190
927.590	11905
927.687	12634
927.783	17179
927.879	15787
927.976	14250
928.072	12543
928.168	15008
928.264	15428
928.361	12968
928.457	16262
928.553	12934
928.649	13486
928.745	15114
928.841	11525
928.937	13351
929.033	14501
929.129	12682
929.225	15870
929.321	13630
929.417	11391
929.513	14627
929.609	11658
929.705	11889
929.801	14185
929.897	12097
929.993	12145
930.089	13446
930.184	11795
930.280	13011
930.376	16585
930.471	11027
930.567	10347
930.663	12566
930.758	10597
930.854	11952
930.950	12354
931.045	10469
931.141	11376
931.236	14723
931.332	12296
931.427	9759
931.523	14134
931.618	13535
931.714	8897
931.809	10770
931.905	13935
932.000	9305
932.095	7353
932.191	13017
932.286	15367
932.381	12912
932.476	8926
932.572	10660
932.667	10433
932.762	10213
932.857	11797
932.952	13873
933.047	11061
933.142	9230
933.237	11523
933.332	12723
933.427	13494
933.522	11385
933.617	8756
933.712	9969
933.807	12031
933.902	13960
933.997	13357
934.092	9406
934.187	10554
934.282	11668
934.376	10987
934.471	12659
934.566	9022
934.661	8889
934.755	11114
934.850	12715
934.945	9546
935.039	9204
935.134	7879
935.228	9117
935.323	14799
935.417	8434
935.512	6611
935.606	7698
935.701	10242
935.795	11681
935.890	10103
935.984	8892
936.079	6005
936.173	9991
936.267	8617
936.362	7523
936.456	9086
936.550	13791
936.644	10049
936.738	7598
936.833	8402
936.927	6731
937.021	8120
937.115	9328
937.209	10363
937.303	9305
937.397	7222
937.491	8551
937.585	10307
937.679	9481
937.773	7781
937.867	6714
937.961	6724
938.055	11448
938.149	10021
938.243	6960
938.337	6710
938.430	8026
938.524	12058
938.618	10868
938.712	8473
938.805	8962
938.899	8204
938.993	12962
939.086	8267
939.180	7622
939.274	9593
939.367	9437
939.461	10941
939.554	8692
939.648	7043
939.741	7511
939.835	7965
939.928	11353
940.022	10176
940.115	7785
940.208	9072
940.302	10006
940.395	11051
940.488	7267
940.582	8333
940.675	6772
940.768	6460
940.861	10032
940.954	9989
941.048	6423
941.141	5320
941.234	6850
941.327	8532
941.420	8426
941.513	9692
941.606	7433
941.699	6661
941.792	9468
941.885	8658
941.978	7530
942.071	8584
942.164	4926
942.257	5350
942.349	7140
942.442	8911
942.535	4763
942.628	6708
942.721	6341
942.813	6478
942.906	7609
942.999	7328
943.091	5535
943.184	7203
943.277	6839
943.369	5654
943.462	4230
943.554	7079
943.647	7161
943.739	8946
943.832	8962
943.924	4020
944.017	5503
944.109	5137
944.201	6136
944.294	6429
944.386	6068
944.478	5892
944.571	5089
944.663	5863
944.755	6348
944.847	7728
944.940	6473
945.032	4464
945.124	4695
945.216	6093
945.308	6351
945.400	5694
945.492	5529
945.584	7489
945.676	8199
945.768	6867
945.860	6907
945.952	8800
946.044	7011
946.136	5772
946.228	5376
946.320	5837
946.412	6331
946.503	8177
946.595	8068
946.687	4962
946.779	3980
946.870	4804
946.962	5436
947.054	5451
947.145	6453
947.237	4877
947.329	4587
947.420	5748
947.512	5434
947.603	4061
947.695	5853
947.786	4187
947.878	4722
947.969	6078
948.061	6726
948.152	5710
948.243	4482
948.335	3649
948.426	4605
948.517	4942
948.609	6617
948.700	5826
948.791	4757
948.882	3387
948.973	4184
949.065	4800
949.156	5719
949.247	3970
949.338	5318
949.429	3628
949.520	3649
949.611	4727
949.702	6219
949.793	4830
949.884	5369
949.975	4634
950.066	2741
950.157	4127
950.247	4454
950.338	3686
950.429	3813
950.520	4615
950.611	3520
950.701	4400
950.792	6299
950.883	5085
950.973	5168
951.064	5820
951.155	6274
951.245	6125
951.336	5900
951.427	5894
951.517	6967
951.608	6188
951.698	4899
951.788	3838
951.879	2778
951.969	3402
952.060	3973
952.150	4875
952.240	6946
952.331	4470
952.421	6256
952.511	3510
952.602	3340
952.692	3996
952.782	3246
952.872	3440
952.962	5044
953.052	4434
953.143	3937
953.233	4276
953.323	4304
953.413	4937
953.503	6318
953.593	5495
953.683	5381
953.773	2936
953.863	4122
953.953	2892
954.042	3787
954.132	4570
954.222	5300
954.312	3846
954.402	4217
954.492	3539
954.581	3816
954.671	4409
954.761	3788
954.850	5253
954.940	2554
955.030	2423
955.119	2587
955.209	4567
955.298	4758
955.388	4583
955.477	5556
955.567	2410
955.656	3460
955.746	3833
955.835	3807
955.925	3690
956.014	4305
956.103	5203
956.193	6506
956.282	5016
956.371	4545
956.461	3620
956.550	3902
956.639	3405
956.728	3623
956.817	4152
956.906	3509
956.995	5332
957.085	3978
957.174	4506
957.263	3033
957.352	3357
957.441	4043
957.530	4245
957.619	3539
957.708	2586
957.796	2505
957.885	4055
957.974	3452
958.063	3113
958.152	2268
958.241	2562
958.329	3138
958.418	3243
958.507	3256
958.596	5411
958.684	3097
958.773	3731
958.861	2554
958.950	2668
959.039	2998
959.127	3068
959.216	3947
959.304	3380
959.393	3625
959.481	4833
959.570	3546
959.658	2380
959.746	1710
959.835	3323
959.923	2646
960.011	1995
960.100	3515
960.188	4569
960.276	3331
960.365	3494
960.453	2648
960.541	2024
960.629	3098
960.717	2376
960.805	841
960.893	2844
960.981	3637
961.069	5023
961.158	4879
961.245	6091
961.333	4685
961.421	2677
961.509	3792
961.597	3678
961.685	3597
961.773	3708
961.861	4026
961.949	4934
962.036	3228
962.124	3220
962.212	2962
962.299	2890
962.387	2141
962.475	2728
962.562	2006
962.650	4131
962.738	2485
962.825	2401
962.913	2987
963.000	3249
963.088	3193
963.175	3699
963.263	2304
963.350	3119
963.438	3377
963.525	1866
963.612	3072
963.700	2163
963.787	3574
963.874	2828
963.962	2532
964.049	2033
964.136	2212
964.223	2723
964.310	2779
964.398	1817
964.485	2462
964.572	3387
964.659	3263
964.746	1902
964.833	1560
964.920	2423
965.007	2868
965.094	3349
965.181	3255
965.268	3681
965.355	2638
965.441	1949
965.528	2317
965.615	3555
965.702	2848
965.789	2133
965.875	3343
965.962	3554
966.049	2710
966.136	4530
966.222	4478
966.309	5444
966.395	5071
966.482	4311
966.569	2616
966.655	4077
966.742	2965
966.828	3477
966.915	2038
967.001	2432
967.087	1824
967.174	2320
967.260	2919
967.347	2885
967.433	2536
967.519	3388
967.605	3749
967.692	2413
967.778	3190
967.864	2033
967.950	2239
968.036	1308
968.123	3156
968.209	3089
968.295	1855
968.381	3664
968.467	2664
968.553	887
968.639	3416
968.725	2964
968.811	5043
968.897	3802
968.983	3397
969.069	1995
969.154	2325
969.240	2408
969.326	1604
969.412	1830
969.497	2392
969.583	1318
969.669	3306
969.755	4203
969.840	3152
969.926	5225
970.012	6743
970.097	10183
970.183	7347
970.268	4633
970.354	4195
970.439	1945
970.525	3832
970.610	3091
970.696	3998
970.781	2467
970.866	1703
970.952	2327
971.037	1415
971.122	2704
971.208	2495
971.293	3092
971.378	2390
971.463	3239
971.549	2418
971.634	2046
971.719	3064
971.804	2940
971.889	2312
971.974	3076
972.059	2616
972.144	2545
972.229	2950
972.314	3189
972.399	2647
972.484	1909
972.569	3079
972.654	1306
972.739	3096
972.824	1536
972.908	2002
972.993	2326
973.078	2376
973.163	2406
973.247	3324
973.332	1609
973.417	3972
973.501	1947
973.586	3045
973.671	1983
973.755	2276
973.840	2753
973.924	3382
974.009	3976
974.093	4592
974.178	4836
974.262	3452
974.346	3362
974.431	2868
974.515	3302
974.600	2575
974.684	3726
974.768	2688
974.852	3815
974.937	2074
975.021	3781
975.105	2288
975.189	2780
975.273	3334
975.358	2016
975.442	906
975.526	3048
975.610	3059
975.694	1527
975.778	2745
975.862	2157
975.946	429
976.030	4369
976.114	1788
976.198	2617
976.281	3274
976.365	2831
976.449	1753
976.533	2879
976.617	2052
976.700	2389
976.784	2208
976.868	1784
976.951	2469
977.035	2391
977.119	2945
977.202	2283
977.286	3300
977.369	4029
977.453	5697
977.536	5136
977.620	4101
977.703	4221
977.787	3052
977.870	3689
977.953	3675
978.037	2953
978.120	3157
978.203	3286
978.287	3640
978.370	3288
978.453	3465
978.536	2935
978.620	3871
978.703	3245
978.786	2542
978.869	2088
978.952	1379
979.035	3841
979.118	3209
979.201	1527
979.284	2804
979.367	1873
979.450	3500
979.533	1925
979.616	2590
979.699	2535
979.782	2544
979.865	2506
979.948	2426
980.030	1722
980.113	2463
980.196	1666
980.279	3037
980.361	2966
980.444	2221
980.526	4395
980.609	5405
980.692	6992
980.774	5402
980.857	4104
980.939	5565
981.022	3217
981.104	3595
981.187	4005
981.269	3953
981.352	3226
981.434	2907
981.516	3202
981.599	3685
981.681	3775
981.763	2981
981.846	3239
981.928	3081
982.010	3383
982.092	2035
982.174	4462
982.256	2551
982.339	3645
982.421	2961
982.503	2680
982.585	1847
982.667	3676
982.749	2623
982.831	2812
982.913	2481
982.995	4995
983.077	1524
983.158	4792
983.240	2616
983.322	4494
983.404	7287
983.486	7011
983.568	5583
983.649	4111
983.731	5756
983.813	4585
983.894	4266
983.976	4458
984.058	4004
984.139	5119
984.221	2799
984.302	4272
984.384	3776
984.465	3910
984.547	3739
984.628	3472
984.710	4619
984.791	3361
984.872	4452
984.954	3212
985.035	4467
985.116	4559
985.198	3319
985.279	4570
985.360	3821
985.441	3515
985.522	4823
985.604	4449
985.685	3089
985.766	5021
985.847	5545
985.928	3766
986.009	4211
986.090	3657
986.171	5377
986.252	4118
986.333	4663
986.414	4229
986.495	4669
986.576	4421
986.656	5456
986.737	5898
986.818	4712
986.899	4280
986.980	4507
987.060	5450
987.141	5186
987.222	6181
987.302	5383
987.383	6735
987.464	6418
987.544	6649
987.625	5578
987.705	7164
987.786	6498
987.866	5669
987.947	5887
988.027	6224
988.108	5534
988.188	5969
988.268	5051
988.349	6155
988.429	4819
988.509	5528
988.589	4997
988.670	3463
988.750	6049
988.830	4713
988.910	5790
988.990	6155
989.070	4665
989.151	5022
989.231	4409
989.311	5691
989.391	4449
989.471	4525
989.551	5379
989.631	4374
989.711	5055
989.791	4391
989.870	4635
989.950	5865
990.030	4727
990.110	4652
990.190	3524
990.269	3398
990.349	4462
990.429	5307
990.509	4563
990.588	3471
990.668	4707
990.747	4561
990.827	3870
990.907	4967
990.986	4796
991.066	4719
991.145	3233
991.225	4557
991.304	4258
991.383	4540
991.463	3346
991.542	4783
991.622	3187
991.701	3549
991.780	3440
991.859	3372
991.939	4105
992.018	4328
992.097	3990
992.176	4076
992.256	3815
992.335	3012
992.414	4592
992.493	2885
992.572	3171
992.651	4515
992.730	3387
992.809	3250
992.888	1968
992.967	3728
993.046	3621
993.125	1282
993.203	3459
993.282	4112
993.361	3531
993.440	3458
993.519	2651
993.597	4108
993.676	2888
993.755	4539
993.834	3528
993.912	2370
993.991	3789
994.069	3009
994.148	3838
994.226	2135
994.305	2981
994.384	3384
994.462	4456
994.540	2256
994.619	2655
994.697	3258
994.776	2859
994.854	3145
994.932	2871
995.011	2966
995.089	2645
995.167	1680
995.245	2611
995.324	1636
995.402	3132
995.480	2005
995.558	3912
995.636	2239
995.714	1940
995.792	3968
995.870	1936
995.948	2917
996.026	3236
996.104	1455
996.182	3115
996.260	1944
996.338	2653
996.416	1949
996.494	2401
996.572	3631
996.649	1759
996.727	1674
996.805	3664
996.883	2416
996.960	1795
997.038	3124
997.116	2530
997.193	2031
997.271	2334
997.348	742
997.426	1821
997.504	1223
997.581	3781
997.658	2440
997.736	1048
997.813	1140
997.891	2784
997.968	1485
998.046	1638
998.123	2525
998.200	2661
998.277	2301
998.355	2330
998.432	1024
998.509	1281
998.586	1944
998.663	2413
998.741	1701
998.818	1134
998.895	431
998.972	2344
999.049	1915
999.126	794
999.203	1878
999.280	1591
999.357	1486
999.434	2155
999.511	1206
999.587	1216
999.664	604
999.741	1526
999.818	2428
999.895	1678
999.971	1112
1000.048	1429
1000.125	2212
1000.202	1480
1000.278	1017
1000.355	1563
1000.431	1637
1000.508	678
1000.584	895
1000.661	1209
1000.738	1326
1000.814	1019
1000.890	1669
1000.967	1150
1001.043	1563
1001.120	269
1001.196	1268
1001.272	6
1001.349	914
1001.425	1234
1001.501	1077
1001.577	892
1001.654	1803
1001.730	525
1001.806	43
1001.882	692
1001.958	2509
1002.034	1267
1002.110	714
1002.186	-541
1002.262	261
1002.338	1016
1002.414	1597
1002.490	1506
1002.566	1057
1002.642	808
1002.718	1167
1002.794	458
1002.870	755
1002.945	1015
1003.021	600
1003.097	1212
1003.173	1456
1003.248	734
1003.324	1614
1003.400	1392
1003.475	-360
1003.551	591
1003.626	71
1003.702	456
1003.777	955
1003.853	140
1003.928	795
1004.004	834
1004.079	103
1004.155	1791
1004.230	124
1004.305	2229
1004.381	140
1004.456	205
1004.531	556
1004.607	266
1004.682	5
1004.757	775
1004.832	1214
1004.907	62
1004.982	545
1005.057	174
1005.133	1047
1005.208	385
1005.283	948
1005.358	104
1005.433	97
1005.508	319
1005.583	50
1005.657	785
1005.732	1258
1005.807	350
1005.882	357
1005.957	-410
1006.032	694
1006.106	549
1006.181	1108
1006.256	1488
1006.331	495
1006.405	-231
1006.480	743
1006.554	-67
1006.629	583
1006.704	446
1006.778	116
1006.853	584
1006.927	139
1007.002	-317
1007.076	-285
1007.150	405
1007.225	395
1007.299	310
1007.373	32
1007.448	262
1007.522	1333
1007.596	530
1007.671	913
1007.745	902
1007.819	-233
1007.893	-342
1007.967	755
1008.041	-453
1008.115	1080
1008.190	56
1008.264	785
1008.338	-671
1008.412	528
1008.486	-409
1008.560	-56
1008.633	609
1008.707	954
1008.781	1306
1008.855	-519
1008.929	497
1009.003	-132
1009.076	-405
1009.150	656
1009.224	112
1009.298	600
1009.371	-731
1009.445	134
1009.519	327
1009.592	-842
1009.666	-582
1009.739	-191
1009.813	-861
1009.886	-19
1009.960	-633
1010.033	3
1010.107	464
1010.180	-690
1010.253	3
1010.327	-468
1010.400	96
1010.473	415
1010.547	913
1010.620	-295
1010.693	542
1010.766	-858
1010.840	890
1010.913	-172
1010.986	-773
1011.059	-771
1011.132	299
1011.205	892
1011.278	170
1011.351	429
1011.424	-31
1011.497	-574
1011.570	-30
1011.643	637
1011.716	-343
1011.789	-1106
1011.862	370
1011.934	119
1012.007	-1164
1012.080	19
1012.153	393
1012.225	1436
1012.298	-555
1012.371	-344
1012.443	-701
1012.516	-683
1012.588	289
1012.661	-640
1012.733	-575
1012.806	-432
1012.879	-1093
1012.951	-693
1013.023	-255
1013.096	129
1013.168	-627
1013.241	901
1013.313	-1333
1013.385	-685
1013.458	-513
1013.530	649
1013.602	-1760
1013.674	-214
1013.746	-1650
1013.819	-863
1013.891	-320
1013.963	-664
1014.035	-529
1014.107	-309
1014.179	-123
1014.251	-368
1014.323	512
1014.395	244
1014.467	-731
1014.539	-581
1014.611	-1281
1014.683	-585
1014.754	-554
1014.826	-379
1014.898	-280
1014.970	-795
1015.042	352
1015.113	35
1015.185	-637
1015.257	-498
1015.328	1117
1015.400	-396
1015.471	-404
1015.543	-1239
1015.615	-194
1015.686	-668
1015.757	-1207
1015.829	-552
1015.901	-637
1015.972	-632
1016.043	-611
1016.115	-420
1016.186	-739
1016.257	-1669
1016.328	-987
1016.400	-275
1016.471	-1539
1016.542	-1318
1016.613	-229
1016.685	-836
1016.756	182
1016.827	-1087
1016.898	-1214
1016.969	-612
1017.040	-1326
1017.111	-789
1017.182	-192
1017.253	-1187
1017.324	-1188
1017.395	-793
1017.466	-487
1017.537	-818
1017.608	-579
1017.678	-1284
1017.749	-575
1017.820	-595
1017.891	-1795
1017.961	-845
1018.032	-1560
1018.103	-380
1018.173	-928
1018.244	-1680
1018.315	-968
1018.385	-1065
1018.456	-754
1018.526	-1055
1018.597	-603
1018.667	-684
1018.738	-680
1018.808	-1410
1018.878	-473
1018.949	-306
1019.019	-472
1019.089	-1577
1019.160	-598
1019.230	-1342
1019.300	-167
1019.371	-1535
1019.441	-1045
1019.511	-1295
1019.581	-889
1019.651	-696
1019.721	-687
1019.791	-609
1019.861	-1050
1019.931	-726
1020.001	-1072
1020.071	-1584
1020.141	-596
1020.211	-1295
1020.281	-995
1020.351	-1532
1020.421	-1577
1020.491	-999
1020.560	-1862
1020.630	-901
1020.700	-674
1020.770	-897
1020.839	-498
1020.909	-246
1020.979	-585
1021.048	-1289
1021.118	-1266
1021.187	-392
1021.257	-1176
1021.326	-393
1021.396	-810
1021.465	-1018
1021.535	-1685
1021.604	-1321
1021.674	-898
1021.743	-1444
1021.812	-637
1021.882	-767
1021.951	-966
1022.020	-1807
1022.089	-640
1022.159	-1041
1022.228	-1059
1022.297	-924
1022.366	-1797
1022.435	-1619
1022.504	-1382
1022.573	-1340
1022.642	-668
1022.711	-1254
1022.781	-633
1022.849	-1258
1022.918	-1584
1022.987	-635
1023.056	-948
1023.125	-1586
1023.194	-1324
1023.263	-956
1023.331	-960
1023.400	-1060
1023.469	-1138
1023.538	-751
1023.606	-1279
1023.675	-1340
1023.744	-1712
1023.812	-1551
1023.881	-1270
1023.949	-709
1024.018	-598
1024.086	-890
1024.155	-1631
1024.223	-1747
1024.292	-1165
1024.360	-1181
1024.429	-1078
1024.497	-1715
1024.565	-714
1024.634	-927
1024.702	-1181
1024.770	-499
1024.838	-662
1024.907	-347
1024.975	-680
1025.043	-1328
1025.111	-1469
1025.179	-567
1025.247	-489
1025.315	-1235
1025.383	-1604
1025.451	-1424
1025.519	-1781
1025.587	-1297
1025.655	-1248
1025.723	-1494
1025.791	-1085
1025.859	-865
1025.927	-1073
1025.995	-1011
1026.062	-1027
1026.130	-1620
1026.198	-612
1026.266	-1828
1026.333	-205
1026.401	-1311
1026.469	-887
1026.536	-1403
1026.604	-998
1026.671	-840
1026.739	-1821
1026.806	-1943
1026.874	-1959
1026.941	-858
1027.009	-1264
1027.076	-1256
1027.144	-1876
1027.211	-1856
1027.278	-1408
1027.345	-1028
1027.413	-1881
1027.480	-987
1027.547	-1492
1027.614	-650
1027.682	-841
1027.749	-866
1027.816	-1405
1027.883	-1296
1027.950	-591
1028.017	-1649
1028.084	-301
1028.151	-1706
1028.218	-1162
1028.285	-682
1028.352	-1021
1028.419	-1904
1028.486	-1563
1028.553	-794
1028.619	-1462
1028.686	-673
1028.753	-994
1028.820	-637
1028.886	-1825
1028.953	-918
1029.020	-2598
1029.086	-872
1029.153	-1648
1029.220	-1425
1029.286	-2131
1029.353	-1506
1029.419	-1859
1029.486	-2117
1029.552	-2099
1029.619	-546
1029.685	-2383
1029.751	-650
1029.818	-851
1029.884	-1509
1029.951	-111
1030.017	-2118
1030.083	-964
1030.149	-499
1030.216	-1564
1030.282	-1456
1030.348	-1510
1030.414	-1829
1030.480	-2141
1030.546	-1124
1030.612	-342
1030.678	-1152
1030.744	-1007
1030.810	-2059
1030.876	-1526
1030.942	-1855
1031.008	-961
1031.074	-2144
1031.140	-1222
1031.206	-1056
1031.272	-2577
1031.337	-723
1031.403	-969
1031.469	-1272
1031.534	-781
1031.600	-977
1031.666	-1696
1031.731	-1729
1031.797	-1369
1031.863	-1410
1031.928	-1179
1031.994	-1619
1032.059	-1435
1032.125	-1408
1032.190	-1173
1032.256	-1140
1032.321	-1892
1032.386	-1271
1032.452	-1326
1032.517	-1167
1032.582	-1707
1032.647	-2014
1032.713	-1223
1032.778	-1588
1032.843	-1019
1032.908	-1494
1032.974	-908
1033.039	-1471
1033.104	-1298
1033.169	-1311
1033.234	-1436
1033.299	-81
1033.364	-516
1033.429	-803
1033.494	-689
1033.559	-1342
1033.624	-1520
1033.688	-466
1033.753	-1408
1033.818	-1015
1033.883	-752
1033.948	-452
1034.013	-310
1034.077	1069
1034.142	1178
1034.207	3248
1034.271	5645
1034.336	6890
1034.400	4800
1034.465	1969
1034.530	608
1034.594	340
1034.658	-847
1034.723	-1222
1034.787	-777
1034.852	-802
1034.916	-890
1034.981	-1311
1035.045	-941
1035.109	-1246
1035.173	-570
1035.238	-1292
1035.302	-926
1035.366	-1389
1035.430	-1295
1035.495	-1702
1035.559	-1206
1035.623	-1311
1035.687	-1578
1035.751	-1411
1035.815	-1558
1035.879	-585
1035.943	-1972
1036.007	-1863
1036.071	-1322
1036.135	-1527
1036.198	-1607
1036.262	-1880
1036.326	-80
1036.390	-763
1036.454	-1131
1036.517	-853
1036.581	-281
1036.645	236
1036.709	438
1036.772	-1060
1036.836	-1267
1036.900	-849
1036.963	-1507
1037.026	-409
1037.090	-1046
1037.154	-1546
1037.217	-1231
1037.280	-928
1037.344	-951
1037.407	-1900
1037.471	-779
1037.534	-1244
1037.597	-1178
1037.661	-927
1037.724	-929
1037.787	-921
1037.850	-1279
1037.913	-764
1037.977	-1220
1038.040	-1092
1038.103	-1329
1038.166	-1354
1038.229	-515
1038.292	-1396
1038.355	-1645
1038.418	-1759
1038.481	-969
1038.544	-2170
1038.607	-1440
1038.670	-1347
1038.732	-1409
1038.795	-1678
1038.858	-1811
1038.921	-988
1038.984	-670
1039.046	-1475
1039.109	-2099
1039.172	-1534
1039.234	-1680
1039.297	-1608
1039.360	-1349
1039.422	-1466
1039.485	-1399
1039.547	-2361
1039.610	-1375
1039.672	-1568
1039.734	-1359
1039.797	-1397
1039.859	-729
1039.922	-2140
1039.984	-1675
1040.046	-1515
1040.109	-1095
1040.171	-1895
1040.233	-1468
1040.295	-1496
1040.358	-2028
1040.420	-1265
1040.482	-1611
1040.544	-2123
1040.606	-1263
1040.668	-992
1040.730	-1483
1040.792	-1463
1040.854	-1487
1040.916	-855
1040.978	-2001
1041.040	-918
1041.102	-1478
1041.164	-1735
1041.225	-1759
1041.287	-1956
1041.349	-2030
1041.411	-1259
1041.472	-1311
1041.534	-1495
1041.596	-1375
1041.657	-1370
1041.719	-1759
1041.781	-1276
1041.842	-2427
1041.904	-1344
1041.965	-1288
1042.027	-1198
1042.088	-1520
1042.150	-2393
1042.211	-1267
1042.272	-1437
1042.334	-992
1042.395	-1320
1042.456	-1133
1042.518	-1509
1042.579	-1057
1042.640	-1143
1042.701	-2047
1042.763	-2267
1042.824	-1769
1042.885	-1638
1042.946	-1942
1043.007	-1900
1043.068	-1932
1043.129	-1244
1043.190	-2435
1043.251	-534
1043.312	-1616
1043.373	-1278
1043.434	-464
1043.495	-1258
1043.556	-677
1043.616	-894
1043.677	-1769
1043.738	-1356
1043.799	-1378
1043.859	-488
1043.920	-1707
1043.981	-1143
1044.041	-1990
1044.102	-1161
1044.162	-1060
1044.223	-1416
1044.284	-1235
1044.344	-1410
1044.405	-1500
1044.465	-809
1044.525	-1133
1044.586	-1553
1044.646	-1280
1044.707	-1440
1044.767	-406
1044.827	-1719
1044.887	-1321
1044.948	-1463
1045.008	-1037
1045.068	-1312
1045.128	-1642
1045.188	-988
1045.249	-53
1045.309	-452
1045.369	-1308
1045.429	-1577
1045.489	-1583
1045.549	-1161
1045.609	-1698
1045.669	-1111
1045.729	-1390
1045.789	-1663
1045.848	-1237
1045.908	-596
1045.968	-1025
1046.028	-690
1046.088	-161
1046.147	-558
1046.207	-1117
1046.267	-1050
1046.326	-1368
1046.386	-752
1046.446	-1011
1046.505	-384
1046.565	-825
1046.624	-413
1046.684	-600
1046.743	-633
1046.803	-519
1046.862	162
1046.922	0
