'Start Wavelength	183.907
'End Wavelength	1046.922
'Gate Delay	5.000
'Gate Width (ms)	1.050
'Laser Output Level	0.000
'X Position	0.000
'Y Position	0.000
'Z Position	0.000
'Grid Point Number	1.000
'Shot Number	100.000
183.907	398.000
183.977	340.000
184.047	-57
184.116	-307
184.186	695
184.256	-246
184.325	614
184.395	-400
184.465	1661
184.534	172
184.604	-150
184.674	-43
184.743	138
184.813	240
184.883	1068
184.952	-411
185.022	102
185.092	-66
185.161	260
185.231	-51
185.301	33
185.370	193
185.440	239
185.509	-235
185.579	642
185.649	639
185.718	315
185.788	271
185.857	499
185.927	-569
185.996	435
186.066	226
186.136	756
186.205	370
186.275	692
186.344	672
186.414	1259
186.483	-393
186.553	1042
186.622	624
186.692	609
186.761	635
186.831	1049
186.900	249
186.970	774
187.039	56
187.109	827
187.178	632
187.248	408
187.317	225
187.387	408
187.456	798
187.526	266
187.595	137
187.664	179
187.734	149
187.803	28
187.873	632
187.942	423
188.012	381
188.081	420
188.150	-29
188.220	570
188.289	289
188.358	569
188.428	1392
188.497	95
188.567	671
188.636	98
188.705	-98
188.775	-78
188.844	-278
188.913	1452
188.983	182
189.052	857
189.121	323
189.191	-111
189.260	693
189.329	-131
189.399	869
189.468	1196
189.537	425
189.606	978
189.676	292
189.745	759
189.814	265
189.883	26
189.953	250
190.022	552
190.091	436
190.161	660
190.230	-81
190.299	249
190.368	-342
190.437	-112
190.507	-224
190.576	613
190.645	-11
190.714	179
190.783	-232
190.853	1016
190.922	-304
190.991	1103
191.060	140
191.129	-13
191.198	-36
191.268	220
191.337	11
191.406	1212
191.475	99
191.544	111
191.613	452
191.682	522
191.752	313
191.821	167
191.890	38
191.959	933
192.028	709
192.097	1283
192.166	321
192.235	-9
192.304	759
192.373	633
192.442	1035
192.511	-67
192.580	-284
192.650	997
192.719	49
192.788	322
192.857	40
192.926	396
192.995	-273
193.064	512
193.133	414
193.202	-175
193.271	162
193.340	-31
193.409	394
193.478	6
193.547	752
193.615	-77
193.684	676
193.753	348
193.822	-14
193.891	692
193.960	-438
194.029	332
194.098	-1063
194.167	998
194.236	602
194.305	298
194.374	17
194.443	-83
194.512	63
194.580	68
194.649	-36
194.718	784
194.787	76
194.856	645
194.925	749
194.994	-62
195.062	-411
195.131	941
195.200	84
195.269	138
195.338	137
195.407	560
195.475	206
195.544	814
195.613	121
195.682	-12
195.751	142
195.819	551
195.888	415
195.957	651
196.026	59
196.094	647
196.163	-325
196.232	427
196.301	-538
196.369	715
196.438	-153
196.507	-46
196.576	210
196.644	552
196.713	-538
196.782	733
196.850	272
196.919	772
196.988	746
197.056	13
197.125	323
197.194	668
197.262	-782
197.331	-36
197.400	-355
197.468	175
197.537	46
197.606	-514
197.674	108
197.743	1118
197.812	-497
197.880	-200
197.949	64
198.017	680
198.086	-219
198.155	81
198.223	-346
198.292	-507
198.360	-34
198.429	-750
198.497	403
198.566	199
198.635	583
198.703	536
198.772	-401
198.840	147
198.909	-131
198.977	851
199.046	-404
199.114	339
199.183	-417
199.251	74
199.320	-61
199.388	-404
199.457	-224
199.525	63
199.594	193
199.662	647
199.731	84
199.799	628
199.867	-27
199.936	604
200.004	196
200.073	397
200.141	287
200.210	85
200.278	464
200.346	774
200.415	529
200.483	1100
200.552	353
200.620	226
200.688	-146
200.757	1102
200.825	-194
200.893	-89
200.962	-146
201.030	-44
201.098	-199
201.167	565
201.235	-299
201.303	599
201.372	832
201.440	372
201.508	24
201.577	-178
201.645	659
201.713	-177
201.781	-235
201.850	387
201.918	712
201.986	782
202.055	-233
202.123	-319
202.191	-206
202.259	235
202.327	388
202.396	575
202.464	20
202.532	436
202.600	242
202.669	437
202.737	-325
202.805	444
202.873	567
202.941	473
203.009	245
203.078	842
203.146	725
203.214	773
203.282	-861
203.350	620
203.418	505
203.487	697
203.555	404
203.623	693
203.691	276
203.759	424
203.827	-81
203.895	149
203.963	67
204.031	-198
204.099	305
204.168	-79
204.236	-5
204.304	1014
204.372	-150
204.440	126
204.508	309
204.576	-397
204.644	28
204.712	-174
204.780	83
204.848	291
204.916	210
204.984	-272
205.052	10
205.120	544
205.188	113
205.256	316
205.324	356
205.392	351
205.460	149
205.528	51
205.596	-538
205.664	2
205.732	221
205.799	877
205.867	-43
205.935	343
206.003	423
206.071	127
206.139	-752
206.207	-333
206.275	482
206.343	611
206.411	-8
206.478	1375
206.546	-365
206.614	332
206.682	-77
206.750	288
206.818	248
206.885	66
206.953	-631
207.021	943
207.089	-111
207.157	-625
207.225	526
207.292	93
207.360	-347
207.428	906
207.496	-562
207.563	4
207.631	219
207.699	-214
207.767	-549
207.834	-21
207.902	-597
207.970	79
208.038	-10
208.105	-82
208.173	72
208.241	-229
208.309	82
208.376	47
208.444	399
208.512	681
208.579	-223
208.647	382
208.715	1383
208.782	-850
208.850	434
208.918	-146
208.985	-515
209.053	409
209.120	-619
209.188	-414
209.256	413
209.323	-308
209.391	-937
209.459	1014
209.526	363
209.594	645
209.661	1163
209.729	537
209.796	322
209.864	817
209.932	-404
209.999	1147
210.067	94
210.134	889
210.202	98
210.269	733
210.337	970
210.404	277
210.472	-491
210.539	727
210.607	-821
210.674	-275
210.742	-116
210.809	263
210.877	9
210.944	461
211.012	-677
211.079	492
211.146	115
211.214	924
211.281	719
211.349	1122
211.416	259
211.484	265
211.551	-779
211.618	237
211.686	813
211.753	-151
211.821	23
211.888	189
211.955	-162
212.023	225
212.090	530
212.157	326
212.225	-243
212.292	114
212.359	-1136
212.427	805
212.494	-410
212.561	-323
212.629	-216
212.696	-123
212.763	195
212.831	89
212.898	-29
212.965	-480
213.032	435
213.100	-222
213.167	-378
213.234	620
213.301	-552
213.369	-296
213.436	-477
213.503	-178
213.570	-797
213.638	-96
213.705	152
213.772	-258
213.839	-2
213.906	812
213.973	-120
214.041	-639
214.108	277
214.175	9
214.242	-356
214.309	57
214.376	332
214.444	-705
214.511	-216
214.578	-385
214.645	136
214.712	321
214.779	140
214.846	-866
214.913	-417
214.980	920
215.048	437
215.115	1717
215.182	164
215.249	241
215.316	-630
215.383	408
215.450	-182
215.517	93
215.584	33
215.651	139
215.718	215
215.785	366
215.852	-1319
215.919	319
215.986	291
216.053	-109
216.120	-269
216.187	277
216.254	53
216.321	112
216.388	-344
216.455	-76
216.522	-581
216.589	-534
216.656	-286
216.722	444
216.789	-257
216.856	382
216.923	-873
216.990	519
217.057	-607
217.124	671
217.191	-616
217.258	335
217.324	-500
217.391	248
217.458	317
217.525	-1262
217.592	-108
217.659	-1582
217.725	164
217.792	-111
217.859	247
217.926	191
217.993	-101
218.059	406
218.126	-482
218.193	189
218.260	-493
218.327	-6
218.393	167
218.460	30
218.527	-1023
218.594	-600
218.660	-151
218.727	1116
218.794	-927
218.860	292
218.927	178
218.994	162
219.061	-346
219.127	-271
219.194	-310
219.261	-43
219.327	-353
219.394	1107
219.461	-764
219.527	747
219.594	133
219.661	404
219.727	-1431
219.794	1200
219.860	-328
219.927	671
219.994	733
220.060	1911
220.127	2191
220.193	1331
220.260	-125
220.326	-45
220.393	-366
220.460	261
220.526	-572
220.593	-261
220.659	1644
220.726	-339
220.792	-20
220.859	-69
220.925	107
220.992	-30
221.058	-170
221.125	-220
221.191	-472
221.258	-291
221.324	230
221.391	-174
221.457	73
221.524	-451
221.590	-602
221.657	-790
221.723	-512
221.789	-1034
221.856	-159
221.922	-150
221.989	103
222.055	-279
222.121	-581
222.188	1591
222.254	-151
222.321	-199
222.387	-338
222.453	650
222.520	-663
222.586	-411
222.652	-200
222.719	207
222.785	76
222.851	778
222.918	-596
222.984	323
223.050	-48
223.116	-1241
223.183	575
223.249	-276
223.315	33
223.382	110
223.448	55
223.514	-1272
223.580	245
223.647	-364
223.713	-158
223.779	-542
223.845	-809
223.911	303
223.978	-1332
224.044	31
224.110	-604
224.176	-86
224.242	-217
224.309	-246
224.375	387
224.441	861
224.507	82
224.573	-515
224.639	-170
224.705	-468
224.772	-568
224.838	21
224.904	-531
224.970	-283
225.036	-141
225.102	-601
225.168	-100
225.234	29
225.300	-233
225.366	41
225.432	534
225.499	582
225.565	-1109
225.631	300
225.697	-674
225.763	-138
225.829	-741
225.895	-34
225.961	-332
226.027	-136
226.093	-643
226.159	956
226.225	-285
226.291	401
226.357	-451
226.423	-501
226.489	-124
226.554	630
226.620	-151
226.686	-300
226.752	162
226.818	-777
226.884	125
226.950	417
227.016	-782
227.082	848
227.148	-314
227.214	707
227.279	-321
227.345	842
227.411	910
227.477	2007
227.543	2709
227.609	3418
227.674	2759
227.740	1278
227.806	273
227.872	-72
227.938	629
228.003	401
228.069	-272
228.135	-266
228.201	382
228.267	-358
228.332	-269
228.398	-1159
228.464	387
228.530	-429
228.595	583
228.661	-969
228.727	-397
228.792	1048
228.858	-847
228.924	-1388
228.990	923
229.055	-168
229.121	-144
229.187	487
229.252	-1035
229.318	-49
229.384	-117
229.449	-468
229.515	-2060
229.581	-975
229.646	1117
229.712	270
229.777	-337
229.843	-423
229.909	-61
229.974	1250
230.040	-550
230.105	188
230.171	-1170
230.236	1295
230.302	74
230.368	-719
230.433	-1025
230.499	-297
230.564	212
230.630	-508
230.695	-375
230.761	361
230.826	-1216
230.892	939
230.957	-1133
231.023	-384
231.088	-147
231.154	158
231.219	-100
231.284	-1004
231.350	-63
231.415	-699
231.481	323
231.546	-1027
231.612	-902
231.677	-615
231.742	-1478
231.808	1603
231.873	-792
231.939	-1819
232.004	153
232.069	183
232.135	-900
232.200	-1273
232.265	730
232.331	-6
232.396	-1384
232.461	-194
232.527	-764
232.592	-1071
232.657	-466
232.723	55
232.788	-655
232.853	475
232.918	-705
232.984	-322
233.049	-917
233.114	-932
233.179	533
233.245	291
233.310	-269
233.375	-1141
233.440	568
233.506	-259
233.571	-589
233.636	594
233.701	21
233.766	-398
233.832	-127
233.897	-462
233.962	-1190
234.027	1051
234.092	294
234.157	-33
234.222	-424
234.288	-479
234.353	-50
234.418	1127
234.483	-38
234.548	73
234.613	-1127
234.678	692
234.743	-841
234.808	552
234.873	-981
234.938	596
235.004	-1438
235.069	-328
235.134	-646
235.199	477
235.264	167
235.329	-1525
235.394	-254
235.459	416
235.524	-1506
235.589	239
235.654	-357
235.719	-1737
235.784	171
235.849	371
235.913	-79
235.978	-345
236.043	-186
236.108	-376
236.173	-524
236.238	253
236.303	-657
236.368	-921
236.433	322
236.498	-469
236.563	-520
236.627	117
236.692	-229
236.757	-307
236.822	-653
236.887	-945
236.952	321
237.017	-1625
237.081	361
237.146	-1137
237.211	86
237.276	-796
237.341	-524
237.405	-1400
237.470	-443
237.535	-105
237.600	-91
237.664	-311
237.729	-929
237.794	-1471
237.859	-229
237.923	-298
237.988	-853
238.053	165
238.118	-318
238.182	-811
238.247	1380
238.312	-808
238.376	-880
238.441	-1842
238.506	604
238.570	-1198
238.635	655
238.700	-355
238.764	-699
238.829	-146
238.893	-1299
238.958	339
239.023	-455
239.087	-66
239.152	-122
239.216	-1124
239.281	96
239.346	285
239.410	-448
239.475	-220
239.539	800
239.604	-1094
239.668	1079
239.733	1972
239.797	3577
239.862	5904
239.926	5298
239.991	3398
240.055	913
240.120	1183
240.184	785
240.249	-103
240.313	-440
240.378	-276
240.442	-317
240.507	431
240.571	-995
240.635	-605
240.700	-348
240.764	-419
240.829	136
240.893	-782
240.957	95
241.022	508
241.086	-21
241.151	-1122
241.215	-1543
241.279	-79
241.344	-962
241.408	-539
241.472	-1375
241.537	1183
241.601	-589
241.665	-916
241.730	-735
241.794	403
241.858	-450
241.922	177
241.987	-389
242.051	-464
242.115	-1221
242.179	-526
242.244	-561
242.308	874
242.372	-276
242.436	-730
242.501	-427
242.565	-753
242.629	-1005
242.693	1208
242.757	-570
242.822	-814
242.886	-394
242.950	393
243.014	-1890
243.078	-295
243.142	-1178
243.206	-702
243.271	-198
243.335	-810
243.399	-286
243.463	-632
243.527	-536
243.591	-317
243.655	215
243.719	-615
243.783	-324
243.847	-143
243.911	-365
243.975	-1619
244.040	-2341
244.104	1017
244.168	49
244.232	-155
244.296	-542
244.360	-209
244.424	-1258
244.488	77
244.552	333
244.615	-434
244.679	-167
244.743	-922
244.807	-1048
244.871	-286
244.935	-270
244.999	-1321
245.063	-1207
245.127	-137
245.191	-611
245.255	-258
245.319	-736
245.383	-1217
245.446	1096
245.510	-1470
245.574	-900
245.638	466
245.702	-1467
245.766	-104
245.829	613
245.893	-1283
245.957	-636
246.021	962
246.085	-890
246.149	-809
246.212	274
246.276	-1083
246.340	-1014
246.404	-543
246.467	-201
246.531	-2379
246.595	346
246.659	769
246.722	-1477
246.786	316
246.850	-456
246.913	-158
246.977	-1511
247.041	280
247.104	-1231
247.168	-280
247.232	531
247.295	302
247.359	-212
247.423	-481
247.486	-221
247.550	1025
247.614	-1216
247.677	85
247.741	-673
247.804	-445
247.868	1338
247.932	-853
247.995	937
248.059	-224
248.122	-1494
248.186	1748
248.249	-571
248.313	983
248.376	1039
248.440	-318
248.503	-1911
248.567	1273
248.630	-1789
248.694	-373
248.757	684
248.821	754
248.884	705
248.948	-543
249.011	1445
249.075	566
249.138	1258
249.202	-27
249.265	-1291
249.328	816
249.392	-1390
249.455	446
249.519	-337
249.582	-221
249.645	-1005
249.709	-59
249.772	-1217
249.835	-729
249.899	-708
249.962	484
250.025	-821
250.089	350
250.152	195
250.215	-357
250.279	-1128
250.342	783
250.405	-317
250.468	-555
250.532	-345
250.595	504
250.658	-1191
250.721	1158
250.785	-869
250.848	373
250.911	-1777
250.974	153
251.038	-303
251.101	532
251.164	-1374
251.227	-140
251.290	-945
251.354	683
251.417	-760
251.480	252
251.543	357
251.606	1246
251.669	576
251.732	580
251.795	68
251.859	667
251.922	-250
251.985	-539
252.048	-344
252.111	-39
252.174	-849
252.237	382
252.300	1191
252.363	152
252.426	1306
252.489	-521
252.552	-419
252.615	-1159
252.678	293
252.741	857
252.804	-418
252.867	245
252.930	172
252.993	-306
253.056	-532
253.119	-301
253.182	-608
253.245	-479
253.308	94
253.371	-229
253.434	-897
253.497	-173
253.559	220
253.622	-98
253.685	-350
253.748	-513
253.811	-764
253.874	-76
253.937	-599
254.000	-483
254.062	-546
254.125	2
254.188	461
254.251	24
254.314	39
254.376	-450
254.439	-441
254.502	-121
254.565	-648
254.628	1169
254.690	-1429
254.753	-517
254.816	-590
254.878	-973
254.941	117
255.004	-17
255.067	-1167
255.129	-353
255.192	-492
255.255	-792
255.317	-270
255.380	-347
255.443	-574
255.505	-453
255.568	-1352
255.631	-592
255.693	287
255.756	-217
255.819	363
255.881	170
255.944	242
256.006	-206
256.069	-844
256.132	-1037
256.194	-931
256.257	-76
256.319	-704
256.382	451
256.444	1110
256.507	306
256.569	-845
256.632	-205
256.694	-1177
256.757	-61
256.819	270
256.882	-1155
256.944	-1033
257.007	654
257.069	-1006
257.132	-1179
257.194	-149
257.257	-669
257.319	-1485
257.381	-1153
257.444	356
257.506	-695
257.569	5
257.631	552
257.693	-15
257.756	-590
257.818	-666
257.880	-374
257.943	-450
258.005	-207
258.067	-803
258.130	1052
258.192	33
258.254	-484
258.317	-586
258.379	-82
258.441	-575
258.503	116
258.566	-73
258.628	175
258.690	-1128
258.753	10
258.815	-615
258.877	-452
258.939	-704
259.001	-430
259.064	-210
259.126	-383
259.188	-48
259.250	337
259.312	-396
259.375	417
259.437	-753
259.499	-54
259.561	-66
259.623	5
259.685	-428
259.747	83
259.809	-349
259.872	-64
259.934	61
259.996	648
260.058	-34
260.120	-433
260.182	-294
260.244	-144
260.306	-354
260.368	521
260.430	-758
260.492	241
260.554	254
260.616	-459
260.678	-129
260.740	407
260.802	-934
260.864	-578
260.926	-851
260.988	606
261.050	-490
261.112	-25
261.174	682
261.236	32
261.298	-314
261.359	273
261.421	884
261.483	-312
261.545	-386
261.607	-1720
261.669	-75
261.731	215
261.793	-314
261.854	-1287
261.916	-303
261.978	-441
262.040	-136
262.102	301
262.164	-461
262.225	253
262.287	216
262.349	-72
262.411	-758
262.472	516
262.534	-412
262.596	88
262.658	599
262.719	-247
262.781	330
262.843	-280
262.904	137
262.966	518
263.028	-259
263.090	83
263.151	58
263.213	-68
263.275	-1236
263.336	27
263.398	519
263.459	-842
263.521	486
263.583	29
263.644	353
263.706	-147
263.767	97
263.829	300
263.891	-334
263.952	-114
264.014	-701
264.075	-245
264.137	-658
264.198	435
264.260	-698
264.321	410
264.383	-837
264.444	-110
264.506	-1142
264.567	-107
264.629	255
264.690	-1989
264.752	-673
264.813	408
264.875	-359
264.936	434
264.998	-3
265.059	235
265.120	34
265.182	51
265.243	-605
265.305	-299
265.366	147
265.427	247
265.489	338
265.550	-1042
265.611	-157
265.673	24
265.734	318
265.795	338
265.857	-670
265.918	-646
265.979	847
266.040	61
266.102	4
266.163	617
266.224	-1048
266.286	-65
266.347	-1543
266.408	-292
266.469	-390
266.530	-112
266.592	-348
266.653	527
266.714	-992
266.775	298
266.836	-25
266.898	-461
266.959	-1522
267.020	-956
267.081	684
267.142	-135
267.203	-1020
267.264	-736
267.326	57
267.387	-309
267.448	-472
267.509	-54
267.570	-217
267.631	-73
267.692	-440
267.753	-532
267.814	-1099
267.875	251
267.936	34
267.997	-349
268.058	-534
268.119	-454
268.180	428
268.241	-575
268.302	-902
268.363	-391
268.424	-203
268.485	299
268.546	-504
268.607	236
268.668	-400
268.729	519
268.790	-584
268.851	-15
268.912	-316
268.972	-309
269.033	-1298
269.094	-29
269.155	-154
269.216	-1019
269.277	256
269.338	-290
269.398	113
269.459	-752
269.520	179
269.581	-339
269.642	168
269.702	407
269.763	24
269.824	-525
269.885	-423
269.945	353
270.006	87
270.067	-623
270.128	-62
270.188	-275
270.249	-1067
270.310	-25
270.370	189
270.431	537
270.492	-1109
270.553	631
270.613	-847
270.674	44
270.734	-1778
270.795	614
270.856	237
270.916	-72
270.977	-300
271.038	334
271.098	-497
271.159	181
271.219	-458
271.280	17
271.340	-962
271.401	-388
271.462	-907
271.522	638
271.583	-692
271.643	25
271.704	-934
271.764	304
271.825	-302
271.885	1258
271.946	1894
272.006	409
272.066	423
272.127	2753
272.187	5093
272.248	2416
272.308	252
272.369	1133
272.429	1395
272.489	873
272.550	-1224
272.610	96
272.671	131
272.731	410
272.791	-44
272.852	-112
272.912	-538
272.972	-400
273.033	-520
273.093	-506
273.153	127
273.214	604
273.274	-400
273.334	325
273.394	233
273.455	-67
273.515	-576
273.575	-159
273.635	-119
273.696	526
273.756	829
273.816	281
273.876	645
273.936	-245
273.997	238
274.057	-586
274.117	68
274.177	-197
274.237	678
274.297	922
274.358	204
274.418	610
274.478	493
274.538	-24
274.598	290
274.658	398
274.718	451
274.778	-69
274.838	-387
274.898	78
274.958	-44
275.018	1578
275.078	260
275.138	350
275.198	-341
275.258	24
275.318	-229
275.378	97
275.438	451
275.498	361
275.558	-256
275.618	770
275.678	497
275.738	1154
275.798	-71
275.858	-454
275.918	482
275.978	1013
276.038	-369
276.098	487
276.157	-257
276.217	549
276.277	213
276.337	27
276.397	78
276.457	838
276.517	-817
276.576	478
276.636	-203
276.696	682
276.756	-319
276.815	348
276.875	-21
276.935	439
276.995	-534
277.055	492
277.114	485
277.174	579
277.234	656
277.293	336
277.353	-367
277.413	197
277.472	-356
277.532	-622
277.592	206
277.651	550
277.711	1871
277.771	921
277.830	2152
277.890	1414
277.950	687
278.009	5471
278.069	2273
278.128	1803
278.188	1649
278.248	1928
278.307	1668
278.367	1911
278.426	-72
278.486	299
278.545	594
278.605	97
278.664	60
278.724	493
278.783	176
278.843	1327
278.902	-107
278.962	-42
279.021	9
279.081	1033
279.140	416
279.199	771
279.259	108
279.318	1101
279.378	431
279.437	2902
279.496	8752
279.556	34643
279.615	24733
279.675	5640
279.734	2666
279.793	2925
279.853	5907
279.912	2385
279.971	1503
280.031	1399
280.090	2941
280.149	5601
280.208	3668
280.268	17164
280.327	17704
280.386	2958
280.445	1578
280.505	958
280.564	587
280.623	819
280.682	468
280.742	510
280.801	-255
280.860	930
280.919	321
280.978	404
281.037	-817
281.097	382
281.156	-461
281.215	1015
281.274	394
281.333	784
281.392	910
281.451	260
281.510	91
281.569	-187
281.628	737
281.688	26
281.747	360
281.806	222
281.865	873
281.924	755
281.983	692
282.042	435
282.101	-44
282.160	1138
282.219	523
282.278	643
282.337	-105
282.396	195
282.454	31
282.513	260
282.572	-38
282.631	599
282.690	-37
282.749	410
282.808	443
282.867	417
282.926	845
282.985	209
283.043	125
283.102	97
283.161	611
283.220	575
283.279	1146
283.338	502
283.396	-433
283.455	1016
283.514	238
283.573	767
283.631	359
283.690	1376
283.749	-446
283.808	537
283.866	1015
283.925	432
283.984	909
284.043	226
284.101	526
284.160	1102
284.219	611
284.277	888
284.336	410
284.395	1520
284.453	188
284.512	1382
284.570	723
284.629	575
284.688	704
284.746	1114
284.805	666
284.863	1000
284.922	1013
284.981	1800
285.039	2639
285.098	4686
285.156	10041
285.215	29384
285.273	31270
285.332	14295
285.390	6256
285.449	4345
285.507	2321
285.566	1588
285.624	2118
285.683	1821
285.741	780
285.799	1310
285.858	-43
285.916	499
285.975	440
286.033	683
286.091	813
286.150	542
286.208	1169
286.267	560
286.325	491
286.383	103
286.442	-15
286.500	1169
286.558	852
286.616	434
286.675	682
286.733	573
286.791	384
286.850	1020
286.908	415
286.966	896
287.024	-372
287.083	1338
287.141	304
287.199	913
287.257	708
287.315	810
287.374	660
287.432	840
287.490	58
287.548	197
287.606	841
287.664	1330
287.723	977
287.781	968
287.839	-207
287.897	-155
287.955	911
288.013	597
288.071	874
288.129	1324
288.187	1672
288.245	1484
288.303	732
288.361	543
288.419	656
288.477	699
288.535	942
288.593	1066
288.651	469
288.709	1056
288.767	436
288.825	777
288.883	513
288.941	290
288.999	-484
289.057	1173
289.115	1143
289.173	918
289.231	891
289.289	1584
289.346	327
289.404	1499
289.462	371
289.520	1576
289.578	976
289.636	383
289.694	600
289.751	789
289.809	587
289.867	1558
289.925	930
289.983	1554
290.040	594
290.098	982
290.156	-53
290.214	1136
290.271	577
290.329	1648
290.387	1019
290.444	1422
290.502	606
290.560	317
290.617	495
290.675	1154
290.733	-45
290.790	1043
290.848	699
290.906	1522
290.963	372
291.021	573
291.078	-216
291.136	660
291.194	379
291.251	839
291.309	716
291.366	1266
291.424	1221
291.481	1544
291.539	587
291.596	1745
291.654	819
291.711	691
291.769	552
291.826	738
291.884	1271
291.941	1266
291.999	842
292.056	1260
292.114	311
292.171	1147
292.228	779
292.286	1498
292.343	1106
292.401	286
292.458	1168
292.515	789
292.573	1598
292.630	1561
292.687	330
292.745	1184
292.802	591
292.859	1346
292.917	1847
292.974	1938
293.031	497
293.089	621
293.146	736
293.203	760
293.260	554
293.318	1587
293.375	531
293.432	1
293.489	921
293.546	483
293.604	791
293.661	1093
293.718	2308
293.775	1379
293.832	534
293.889	1397
293.947	1317
294.004	518
294.061	592
294.118	1282
294.175	1059
294.232	563
294.289	981
294.346	1294
294.403	1042
294.460	1377
294.517	-363
294.574	1363
294.631	435
294.688	1721
294.745	610
294.802	2780
294.859	1482
294.916	1214
294.973	651
295.030	790
295.087	371
295.144	723
295.201	1222
295.258	634
295.315	643
295.372	1023
295.429	1193
295.486	783
295.542	1097
295.599	731
295.656	1073
295.713	964
295.770	1337
295.827	1247
295.883	654
295.940	1046
295.997	489
296.054	797
296.111	377
296.167	1142
296.224	633
296.281	708
296.338	-493
296.394	294
296.451	366
296.508	893
296.564	1258
296.621	1923
296.678	1905
296.734	3704
296.791	1108
296.848	1992
296.904	330
296.961	1459
297.018	1846
297.074	1594
297.131	588
297.187	439
297.244	452
297.301	1805
297.357	3931
297.414	1171
297.470	1266
297.527	1321
297.583	865
297.640	929
297.696	406
297.753	770
297.809	448
297.866	415
297.922	788
297.979	450
298.035	797
298.092	797
298.148	1500
298.204	1117
298.261	372
298.317	1834
298.374	2635
298.430	2269
298.486	958
298.543	973
298.599	468
298.656	931
298.712	731
298.768	828
298.824	48
298.881	347
298.937	321
298.993	1019
299.050	-167
299.106	1071
299.162	1392
299.218	1562
299.275	500
299.331	981
299.387	1824
299.443	4496
299.500	11043
299.556	11552
299.612	4772
299.668	3643
299.724	10054
299.780	13830
299.837	5779
299.893	3147
299.949	7014
300.005	13070
300.061	8019
300.117	14660
300.173	7367
300.229	3251
300.285	1358
300.341	2896
300.397	1621
300.453	1395
300.510	1523
300.566	3035
300.622	4020
300.678	14586
300.734	21024
300.790	10216
300.845	6598
300.901	8404
300.957	13598
301.013	7670
301.069	2858
301.125	2115
301.181	1238
301.237	2089
301.293	1172
301.349	2068
301.405	833
301.461	1338
301.516	1456
301.572	505
301.628	350
301.684	519
301.740	357
301.796	1522
301.851	831
301.907	1435
301.963	1541
302.019	2304
302.074	6188
302.130	8284
302.186	3854
302.242	1902
302.297	492
302.353	1427
302.409	484
302.464	903
302.520	1207
302.576	2242
302.631	2398
302.687	1338
302.743	532
302.798	568
302.854	446
302.910	891
302.965	592
303.021	1394
303.076	816
303.132	812
303.187	1065
303.243	621
303.299	445
303.354	765
303.410	306
303.465	362
303.521	4
303.576	819
303.632	608
303.687	1055
303.743	1702
303.798	2560
303.853	1249
303.909	765
303.964	1128
304.020	1104
304.075	900
304.130	753
304.186	160
304.241	2040
304.297	1189
304.352	1236
304.358	1213
304.407	1022
304.449	1108
304.463	1138
304.518	771
304.539	587
304.573	284
304.629	923
304.630	921
304.684	858
304.720	1299
304.739	1520
304.794	2968
304.811	2648
304.850	1854
304.902	704
304.905	631
304.960	627
304.992	705
305.015	709
305.071	522
305.083	641
305.126	1187
305.173	480
305.181	351
305.236	182
305.264	405
305.292	644
305.347	437
305.354	466
305.402	633
305.445	564
305.457	546
305.512	777
305.535	822
305.567	895
305.622	487
305.626	529
305.678	1208
305.716	1108
305.733	1055
305.788	1866
305.807	1526
305.843	1088
305.897	2349
305.898	2362
305.953	2161
305.988	2003
306.008	1960
306.063	1030
306.078	949
306.118	764
306.168	869
306.173	879
306.228	686
306.259	636
306.283	664
306.338	742
306.349	727
306.393	579
306.440	768
306.448	803
306.503	1110
306.530	1105
306.558	1172
306.613	1153
306.620	1183
306.668	1349
306.711	1776
306.723	1831
306.778	1517
306.801	1350
306.833	1286
306.888	1303
306.892	1320
306.943	1510
306.982	1234
306.997	1120
307.052	695
307.072	859
307.107	1194
307.162	683
307.163	687
307.217	1288
307.253	876
307.272	593
307.327	659
307.343	666
307.381	800
307.434	502
307.436	490
307.491	750
307.524	897
307.546	1044
307.600	1263
307.614	1309
307.655	1113
307.704	646
307.710	653
307.765	214
307.795	443
307.819	505
307.874	1220
307.885	1106
307.929	818
307.975	1222
307.984	1274
308.038	1461
308.065	1330
308.093	1187
308.148	1317
308.156	1272
308.202	1117
308.246	921
308.257	850
308.312	1021
308.336	954
308.366	807
308.421	1038
308.426	945
308.475	473
308.517	729
308.530	749
308.585	573
308.607	651
308.639	972
308.694	858
308.697	889
308.748	1188
308.787	928
308.803	900
308.857	1085
308.877	1075
308.912	1016
308.967	1377
308.967	1372
309.021	1269
309.058	1352
309.076	1380
309.130	1585
309.148	1588
309.185	2005
309.238	2070
309.239	2072
309.293	3000
309.328	2874
309.348	2556
309.402	2034
309.418	1785
309.457	1637
309.508	1376
309.511	1386
309.566	2069
309.598	2162
309.620	2162
309.674	2453
309.688	2611
309.729	2758
309.778	2173
309.783	2133
309.837	1926
309.868	2000
309.892	2219
309.946	2167
309.959	2233
310.001	2307
310.049	2387
310.055	2354
310.109	1660
310.139	1421
310.163	1511
310.218	1802
310.229	1819
310.272	1755
310.319	1736
310.326	1701
310.381	1352
310.409	1213
310.435	1308
310.489	1480
310.499	1461
310.543	1447
310.589	1737
310.598	1743
310.652	1718
310.679	1653
310.706	1738
310.760	1730
310.769	1756
310.814	1782
310.859	1706
310.868	1732
310.923	1880
310.948	1943
310.977	1972
311.031	2060
311.038	2052
311.085	2322
311.128	2595
311.139	2596
311.193	2500
311.218	2491
311.247	2509
311.301	2562
311.308	2544
311.356	2650
311.398	2727
311.410	2695
311.464	2602
311.488	2510
311.518	2079
311.572	1289
311.578	1202
311.626	1617
311.668	1983
311.680	1966
311.734	1794
311.758	1726
311.788	1892
311.842	2233
311.847	2261
311.896	2563
311.937	2832
311.950	2680
312.004	1986
312.027	1676
312.058	1829
312.112	2119
312.117	2144
312.165	1875
312.207	1641
312.297	1458
312.386	1815
312.476	2035
312.566	1934
312.656	2403
312.745	2387
312.835	3242
312.925	3312
313.015	2357
313.104	2385
313.194	3031
313.284	2470
313.374	2507
313.463	3904
313.553	3622
313.643	3193
313.732	4066
313.822	3673
313.912	4839
314.001	4626
314.091	4075
314.180	4026
314.270	4808
314.360	4406
314.449	4244
314.539	4046
314.628	4650
314.718	4032
314.808	5490
314.897	4511
314.987	5738
315.076	6803
315.166	5741
315.255	5523
315.345	6068
315.434	4699
315.524	5236
315.613	4876
315.703	6150
315.792	14731
315.881	44618
315.971	15632
316.060	6198
316.150	5293
316.239	4464
316.328	5217
316.418	4966
316.507	5330
316.597	5830
316.686	6738
316.775	5778
316.865	5629
316.954	4762
317.043	4443
317.133	4190
317.222	3455
317.311	3079
317.400	2678
317.490	4463
317.579	4386
317.668	4687
317.757	8147
317.847	23888
317.936	69098
318.025	21975
318.114	17241
318.203	9310
318.293	5785
318.382	7585
318.471	8566
318.560	7225
318.649	6200
318.738	4334
318.828	3885
318.917	3408
319.006	3423
319.095	2729
319.184	3659
319.273	3276
319.362	4220
319.451	3522
319.540	3417
319.629	3701
319.718	3790
319.807	3344
319.896	3431
319.985	4072
320.074	3711
320.163	4082
320.252	4294
320.341	4136
320.430	4362
320.519	3570
320.608	5447
320.697	6806
320.786	7094
320.875	8054
320.964	8749
321.053	7826
321.142	9155
321.230	10537
321.319	10183
321.408	11959
321.497	11407
321.586	10073
321.675	9092
321.764	9135
321.852	8822
321.941	9482
322.030	8667
322.119	9093
322.207	10994
322.296	12459
322.385	13446
322.474	16262
322.562	15677
322.651	13584
322.740	10318
322.829	9925
322.917	7529
323.006	7518
323.095	7319
323.183	5232
323.272	5517
323.361	5240
323.449	5786
323.538	5040
323.626	5313
323.715	3966
323.804	4341
323.892	4008
323.981	4514
324.069	4561
324.158	4622
324.246	4392
324.335	4371
324.424	4520
324.512	3954
324.601	3930
324.689	3696
324.778	4094
324.866	3843
324.954	3344
325.043	3902
325.131	2285
325.220	4471
325.308	3343
325.397	3836
325.485	3951
325.574	2861
325.662	4358
325.750	3195
325.839	3483
325.927	3488
326.015	3540
326.104	2944
326.192	3414
326.280	3308
326.369	2776
326.457	3202
326.545	3729
326.634	3928
326.722	3746
326.810	2915
326.898	3964
326.987	4814
327.075	4184
327.163	4561
327.251	2903
327.340	4181
327.428	5284
327.516	6346
327.604	5132
327.692	4466
327.781	4164
327.869	3620
327.957	3195
328.045	2387
328.133	3480
328.221	2266
328.309	3106
328.397	3086
328.485	4177
328.574	6302
328.662	9110
328.750	6480
328.838	4988
328.926	3668
329.014	3027
329.102	3039
329.190	3273
329.278	3805
329.366	3333
329.454	2935
329.542	3707
329.630	3102
329.718	3482
329.806	3898
329.893	3783
329.981	2891
330.069	3436
330.157	3497
330.245	3721
330.333	3412
330.421	3659
330.509	2788
330.597	3340
330.684	3139
330.772	2976
330.860	2490
330.948	3469
331.036	3245
331.123	2623
331.211	3690
331.299	3264
331.387	3880
331.475	3062
331.562	3499
331.650	3679
331.738	2743
331.825	3405
331.913	3105
332.001	3424
332.089	3374
332.176	2350
332.264	3130
332.352	2850
332.439	3433
332.527	3114
332.614	2956
332.702	3554
332.790	3876
332.877	3048
332.965	3925
333.052	4087
333.140	3043
333.228	4529
333.315	3747
333.403	4298
333.490	4185
333.578	4219
333.665	5437
333.753	5088
333.840	5214
333.928	5641
334.015	6805
334.103	8401
334.190	10580
334.278	13966
334.365	19181
334.452	20020
334.540	15204
334.627	13613
334.715	17696
334.802	23838
334.889	33653
334.977	42233
335.064	30949
335.151	17364
335.239	12610
335.326	10559
335.413	10548
335.501	10602
335.588	11801
335.675	13163
335.762	16435
335.850	21072
335.937	28555
336.024	41297
336.111	58847
336.199	55517
336.286	29228
336.373	16930
336.460	12180
336.547	10154
336.635	8964
336.722	7736
336.809	7188
336.896	5903
336.983	5807
337.070	5973
337.157	5699
337.245	5508
337.332	5688
337.419	5342
337.506	5376
337.593	4813
337.680	4943
337.767	5633
337.854	4010
337.941	4398
338.028	4365
338.115	3228
338.202	5187
338.289	5239
338.376	4153
338.463	4290
338.550	3482
338.637	3580
338.724	3546
338.811	3649
338.898	3789
338.984	3927
339.071	3798
339.158	3219
339.245	2787
339.332	3087
339.419	3692
339.506	3735
339.593	3445
339.679	3547
339.766	3207
339.853	2693
339.940	3794
340.027	2798
340.113	3345
340.200	3156
340.287	2657
340.374	2573
340.460	3677
340.547	2453
340.634	4190
340.720	3537
340.807	3257
340.894	3921
340.980	3679
341.067	3254
341.154	5090
341.240	3841
341.327	3641
341.414	4412
341.500	3536
341.587	3443
341.674	3846
341.760	4808
341.847	4219
341.933	4207
342.020	2498
342.106	3670
342.193	3103
342.279	3724
342.366	4127
342.452	3826
342.539	2915
342.625	2850
342.712	4650
342.798	3523
342.885	3064
342.971	3123
343.058	3651
343.144	2928
343.230	3547
343.317	3992
343.403	3033
343.490	3430
343.576	4158
343.662	3232
343.749	3288
343.835	3677
343.921	3750
344.008	7227
344.094	12940
344.180	5020
344.267	3147
344.353	4625
344.439	4595
344.525	3509
344.612	3118
344.698	3284
344.784	2586
344.870	3393
344.957	2730
345.043	3834
345.129	2192
345.215	3447
345.301	3637
345.387	2933
345.474	2222
345.560	3199
345.646	2124
345.732	3857
345.818	2694
345.904	2467
345.990	3021
346.076	2852
346.162	3114
346.249	3403
346.335	3465
346.421	3880
346.507	4287
346.593	4813
346.679	2243
346.765	4735
346.851	7130
346.937	5708
347.023	4845
347.108	3207
347.194	3363
347.280	3327
347.366	5457
347.452	13480
347.538	16515
347.624	9513
347.710	5819
347.796	4037
347.882	3822
347.967	3794
348.053	3799
348.139	3876
348.225	4185
348.311	2864
348.397	3400
348.482	3868
348.568	4741
348.654	6634
348.740	18475
348.825	19385
348.911	9622
348.997	6999
349.083	7405
349.168	3832
349.254	4090
349.340	4487
349.425	3740
349.511	3594
349.597	4237
349.682	3906
349.768	5341
349.854	4219
349.939	4548
350.025	4050
350.110	4935
350.196	4577
350.282	3062
350.367	4431
350.453	3951
350.538	3446
350.624	3019
350.709	4058
350.795	2784
350.880	2266
350.966	4310
351.051	3326
351.137	4491
351.222	3036
351.308	4518
351.393	3620
351.479	3214
351.564	3514
351.649	3593
351.735	3434
351.820	3950
351.906	3269
351.991	2792
352.076	3835
352.162	4306
352.247	3154
352.332	3206
352.418	2732
352.503	2778
352.588	4607
352.673	3690
352.759	3127
352.844	2604
352.929	3976
353.014	3367
353.100	3856
353.185	4726
353.270	3293
353.355	3980
353.441	3452
353.526	2663
353.611	3664
353.696	2960
353.781	4356
353.866	2022
353.952	3399
354.037	3349
354.122	3238
354.207	2879
354.292	3918
354.377	4122
354.462	3765
354.547	3298
354.632	3515
354.717	3789
354.802	3578
354.887	3028
354.972	3988
355.057	3220
355.142	2850
355.227	3666
355.312	3276
355.397	3596
355.482	3660
355.567	2936
355.652	5047
355.737	4058
355.822	4661
355.907	3935
355.991	4188
356.076	2940
356.161	4547
356.246	3458
356.331	4302
356.416	4258
356.501	8127
356.585	5958
356.670	3120
356.755	5553
356.840	4461
356.924	7366
357.009	12530
357.094	7842
357.179	3282
357.263	4646
357.348	4798
357.433	4316
357.517	3487
357.602	4162
357.687	3865
357.771	4842
357.856	4144
357.941	4569
358.025	6692
358.110	16956
358.195	9594
358.279	4009
358.364	3669
358.448	4388
358.533	5336
358.617	4688
358.702	5323
358.787	4114
358.871	4541
358.956	3595
359.040	4226
359.125	4284
359.209	4582
359.294	4278
359.378	6627
359.462	6568
359.547	4977
359.631	4507
359.716	3198
359.800	3838
359.885	4546
359.969	3290
360.053	4191
360.138	3703
360.222	3813
360.306	3536
360.391	4815
360.475	4733
360.559	5161
360.644	4526
360.728	3639
360.812	7386
360.896	9232
360.981	5289
361.065	4527
361.149	5300
361.233	4941
361.318	3708
361.402	5197
361.486	5780
361.570	5590
361.654	6217
361.739	5925
361.823	8372
361.907	12605
361.991	8271
362.075	9821
362.159	12579
362.243	24682
362.327	50982
362.411	70877
362.495	31475
362.580	16964
362.664	16501
362.748	18284
362.832	29234
362.916	53979
363.000	117418
363.084	146048
363.168	65775
363.252	26169
363.336	17503
363.420	12638
363.503	10994
363.587	9533
363.671	9788
363.755	9592
363.839	12914
363.923	12407
364.007	17656
364.091	22749
364.175	34457
364.258	65734
364.342	131597
364.426	199364
364.510	115946
364.594	46297
364.677	24884
364.761	17436
364.845	14734
364.929	9826
365.013	7888
365.096	7535
365.180	6639
365.264	6359
365.347	6701
365.431	5052
365.515	4806
365.598	4920
365.682	7487
365.766	4981
365.849	5658
365.933	4583
366.017	6270
366.100	4808
366.184	5274
366.267	6163
366.351	5660
366.435	4564
366.518	4254
366.602	5144
366.685	5437
366.769	5264
366.852	4786
366.936	5297
367.019	4373
367.103	4393
367.186	5722
367.270	5539
367.353	4885
367.436	6997
367.520	6453
367.603	6481
367.687	5058
367.770	4890
367.853	6083
367.937	6026
368.020	6211
368.104	3863
368.187	5336
368.270	4256
368.353	4271
368.437	4706
368.520	5023
368.603	4146
368.687	4048
368.770	5192
368.853	4311
368.936	5007
369.020	5181
369.103	3678
369.186	4254
369.269	4063
369.352	5038
369.436	4246
369.519	3927
369.602	2627
369.685	5508
369.768	2660
369.851	3943
369.934	4506
370.018	3800
370.101	3141
370.184	6270
370.267	5272
370.350	4683
370.433	4289
370.516	10210
370.599	25217
370.682	11757
370.765	6381
370.848	6353
370.931	4783
371.014	5479
371.097	2994
371.180	4838
371.263	5278
371.346	2846
371.429	4177
371.511	2880
371.594	3639
371.677	4392
371.760	4826
371.843	4334
371.926	9098
372.009	15054
372.091	8516
372.174	4402
372.257	7373
372.340	4386
372.423	4054
372.505	5364
372.588	3499
372.671	5390
372.754	4938
372.836	4542
372.919	3759
373.002	4943
373.085	3735
373.167	5102
373.250	5003
373.332	7310
373.415	11159
373.498	17341
373.580	13012
373.663	36107
373.746	34960
373.828	8346
373.911	7286
373.993	4328
374.076	5461
374.159	5392
374.241	5556
374.324	6759
374.406	7189
374.489	7932
374.571	15034
374.654	7609
374.736	7097
374.819	10109
374.901	14351
374.983	14323
375.066	7732
375.148	6683
375.231	6071
375.313	7174
375.395	7432
375.478	7304
375.560	6471
375.643	7470
375.725	6855
375.807	11208
375.890	9971
375.972	5288
376.054	5610
376.136	5374
376.219	5029
376.301	6700
376.383	8271
376.465	6558
376.548	4829
376.630	5875
376.712	7560
376.794	5090
376.877	4889
376.959	3630
377.041	4678
377.123	4396
377.205	4079
377.287	4379
377.369	5191
377.452	5480
377.534	4181
377.616	5317
377.698	4459
377.780	3953
377.862	3998
377.944	5681
378.026	3297
378.108	4996
378.190	4485
378.272	4867
378.354	5041
378.436	3442
378.518	3218
378.600	4605
378.682	4464
378.764	4370
378.846	4154
378.928	3807
379.010	3525
379.091	5273
379.173	4735
379.255	3525
379.337	3876
379.419	3696
379.501	6125
379.583	4976
379.664	4253
379.746	3220
379.828	5050
379.910	4226
379.991	5552
380.073	3968
380.155	3603
380.237	4307
380.318	3379
380.400	3310
380.482	3882
380.564	3492
380.645	4221
380.727	4153
380.809	4521
380.890	4341
380.972	2726
381.053	3574
381.135	3875
381.217	4293
381.298	6036
381.380	4138
381.461	3877
381.543	5767
381.624	7250
381.706	4791
381.787	3760
381.869	5336
381.951	5369
382.032	11589
382.113	11091
382.195	3317
382.276	5487
382.358	4651
382.439	6701
382.521	8593
382.602	11465
382.684	7152
382.765	6839
382.846	8521
382.928	13604
383.009	8707
383.090	7922
383.172	19473
383.253	26462
383.334	11099
383.416	11330
383.497	7930
383.578	6327
383.659	8016
383.741	20032
383.822	41627
383.903	21139
383.984	9428
384.066	11498
384.147	7894
384.228	6894
384.309	7382
384.390	7992
384.471	7253
384.553	6630
384.634	6490
384.715	5912
384.796	5512
384.877	5037
384.958	7027
385.039	6127
385.120	5877
385.201	5575
385.282	5656
385.363	6902
385.444	6914
385.525	8456
385.606	9818
385.687	9387
385.768	7812
385.849	7091
385.930	12651
386.011	18516
386.092	9152
386.173	8464
386.254	7595
386.335	8730
386.416	7252
386.496	7763
386.577	8668
386.658	7615
386.739	7541
386.820	8759
386.901	8212
386.981	9780
387.062	9983
387.143	9503
387.224	12407
387.304	14284
387.385	13418
387.466	11401
387.547	14956
387.627	13499
387.708	15040
387.789	16790
387.869	14209
387.950	12949
388.031	10195
388.111	8316
388.192	10866
388.273	11432
388.353	9036
388.434	8607
388.514	7626
388.595	11131
388.676	10491
388.756	8213
388.837	8290
388.917	7195
388.998	4685
389.078	7415
389.159	7525
389.239	5054
389.320	8560
389.400	4537
389.480	7665
389.561	6994
389.641	7346
389.722	6955
389.802	5109
389.883	7649
389.963	8935
390.043	6719
390.124	5728
390.204	7037
390.284	7008
390.365	6029
390.445	6694
390.525	6189
390.605	6067
390.686	5772
390.766	7718
390.846	7163
390.927	5310
391.007	6063
391.087	7519
391.167	5742
391.247	6379
391.328	8328
391.408	7739
391.488	7856
391.568	5715
391.648	7371
391.728	8936
391.808	8498
391.888	8781
391.969	10332
392.049	9901
392.129	11041
392.209	11135
392.289	14219
392.369	12766
392.449	14098
392.529	14509
392.609	17620
392.689	19460
392.769	23781
392.849	27980
392.929	35802
393.009	46736
393.089	67575
393.169	115495
393.248	242399
393.328	477665
393.408	446206
393.488	218778
393.568	109111
393.648	64374
393.728	41912
393.807	29691
393.887	24880
393.967	20365
394.047	16752
394.127	14335
394.206	13569
394.286	11416
394.366	11466
394.446	12066
394.525	9526
394.605	9868
394.685	10034
394.764	12415
394.844	19065
394.924	27233
395.003	13821
395.083	8320
395.163	7813
395.242	7973
395.322	8224
395.402	6470
395.481	10256
395.561	9542
395.640	29506
395.720	60297
395.799	32329
395.879	12289
395.958	11052
396.038	11476
396.117	12551
396.197	13827
396.276	15558
396.356	17252
396.435	22272
396.515	30151
396.594	46033
396.673	89443
396.753	226956
396.832	433779
396.912	303746
396.991	119642
397.070	57826
397.150	34805
397.229	30967
397.308	50732
397.388	91104
397.467	47985
397.546	19381
397.625	11723
397.705	12479
397.784	9959
397.863	9432
397.942	9115
398.022	8056
398.101	7827
398.180	8545
398.259	6471
398.338	7741
398.417	6103
398.497	5359
398.576	7004
398.655	5757
398.734	5964
398.813	5285
398.892	5189
398.971	5537
399.050	4406
399.129	4273
399.208	5382
399.287	5245
399.366	4443
399.445	4998
399.524	4528
399.603	3317
399.682	5304
399.761	4795
399.840	4975
399.919	4798
399.998	3953
400.077	3408
400.156	2468
400.235	6186
400.313	3397
400.392	2752
400.471	4633
400.550	5323
400.629	2304
400.708	4511
400.786	3191
400.865	3268
400.944	2173
401.023	5169
401.102	3186
401.180	3134
401.259	3221
401.338	2990
401.416	4348
401.495	2581
401.574	3842
401.652	2314
401.731	3526
401.810	2353
401.888	2720
401.967	2961
402.046	3045
402.124	3524
402.203	1737
402.281	3486
402.360	2530
402.438	3382
402.517	2090
402.596	2632
402.674	3292
402.753	2448
402.831	3816
402.910	4921
402.988	5558
403.066	14816
403.145	10244
403.223	7164
403.302	12306
403.380	10958
403.459	11341
403.537	5727
403.615	4756
403.694	3019
403.772	4210
403.850	4070
403.929	3148
404.007	2791
404.085	4740
404.164	3695
404.242	3702
404.320	3774
404.398	3754
404.477	2582
404.555	7620
404.633	6931
404.711	4042
404.789	4240
404.868	3401
404.946	2952
405.024	3276
405.102	2824
405.180	3111
405.258	2249
405.336	3656
405.415	2110
405.493	2881
405.571	3356
405.649	1999
405.727	2143
405.805	4812
405.883	3943
405.961	4423
406.039	2288
406.117	1907
406.195	3534
406.273	1646
406.351	6367
406.429	4788
406.507	2022
406.585	1622
406.663	2102
406.740	2842
406.818	1121
406.896	1757
406.974	3795
407.052	1632
407.130	4957
407.208	5010
407.285	3252
407.363	2167
407.441	3406
407.519	3018
407.596	4666
407.674	12968
407.752	48830
407.830	34598
407.907	7409
407.985	2994
408.063	3324
408.141	2332
408.218	3504
408.296	2631
408.373	3680
408.451	4740
408.529	4433
408.606	4063
408.684	4397
408.762	5175
408.839	5764
408.917	5449
408.994	5546
409.072	5090
409.149	8020
409.227	11694
409.304	17845
409.382	19494
409.459	21488
409.537	27632
409.614	25647
409.692	21140
409.769	20648
409.846	28097
409.924	34116
410.001	25155
410.079	19830
410.156	16120
410.233	11360
410.311	10325
410.388	9419
410.465	8696
410.543	6577
410.620	7884
410.697	7159
410.775	6596
410.852	6027
410.929	7608
411.006	7571
411.083	6076
411.161	5900
411.238	5835
411.315	5779
411.392	5316
411.469	5986
411.547	5158
411.624	2682
411.701	4695
411.778	4295
411.855	4162
411.932	3555
412.009	3341
412.086	3843
412.163	3936
412.240	3466
412.317	3787
412.394	3641
412.471	3673
412.548	3809
412.625	3113
412.702	3885
412.779	3367
412.856	3204
412.933	2672
413.010	3045
413.087	3138
413.164	3253
413.241	3441
413.318	1606
413.395	3843
413.471	3031
413.548	2826
413.625	3272
413.702	2054
413.779	2519
413.855	3051
413.932	2175
414.009	1680
414.086	2827
414.162	3287
414.239	2162
414.316	2896
414.393	4318
414.469	1600
414.546	2217
414.623	2623
414.699	1902
414.776	1510
414.853	1785
414.929	2378
415.006	2450
415.082	1986
415.159	2612
415.236	2042
415.312	2281
415.389	2045
415.465	1851
415.542	1855
415.618	1283
415.695	3291
415.771	1244
415.848	1502
415.924	1790
416.000	1985
416.077	3205
416.153	1378
416.230	1639
416.306	2313
416.383	996
416.459	2379
416.535	2262
416.612	1678
416.688	1590
416.764	2375
416.841	1456
416.917	2042
416.993	1587
417.069	2431
417.146	2253
417.222	2348
417.298	1986
417.374	1426
417.451	2121
417.527	2047
417.603	1887
417.679	2333
417.755	2455
417.831	1258
417.908	2378
417.984	2822
418.060	2106
418.136	2458
418.212	1769
418.288	2180
418.364	3569
418.440	1741
418.516	3122
418.592	2518
418.668	2274
418.744	2113
418.820	3043
418.896	2561
418.972	2239
419.048	2363
419.124	3815
419.200	2121
419.276	3305
419.352	2618
419.428	3390
419.504	3671
419.579	3679
419.655	3691
419.731	3528
419.807	3558
419.883	3917
419.959	4906
420.034	5639
420.110	4850
420.186	4614
420.262	6095
420.337	5021
420.413	6065
420.489	6717
420.565	7363
420.640	7608
420.716	8022
420.792	7130
420.867	9604
420.943	8768
421.019	8863
421.094	10331
421.170	11176
421.245	11423
421.321	13765
421.397	15111
421.472	24775
421.548	45686
421.623	33044
421.699	23943
421.774	24667
421.850	27164
421.925	32966
422.001	39571
422.076	48075
422.152	57668
422.227	73814
422.302	98727
422.378	129105
422.453	170457
422.529	204338
422.604	186472
422.679	144325
422.755	174871
422.830	207858
422.905	177184
422.981	137768
423.056	104585
423.131	81658
423.207	64249
423.282	51617
423.357	43404
423.432	35797
423.508	32564
423.583	26497
423.658	24184
423.733	21337
423.808	19564
423.883	18501
423.959	18808
424.034	20393
424.109	19709
424.184	14601
424.259	12073
424.334	11656
424.409	10677
424.484	9396
424.559	9017
424.634	7839
424.709	7031
424.784	7278
424.859	5905
424.934	6178
425.009	6232
425.084	6838
425.159	5423
425.234	6381
425.309	5441
425.384	5401
425.459	4177
425.534	5683
425.609	3947
425.683	4241
425.758	4336
425.833	4901
425.908	4804
425.983	3619
426.058	4690
426.132	3993
426.207	3493
426.282	5202
426.357	3199
426.431	3785
426.506	4212
426.581	3877
426.655	3080
426.730	3289
426.805	2655
426.879	4181
426.954	3431
427.029	2752
427.103	3092
427.178	4552
427.253	3686
427.327	3330
427.402	2981
427.476	2948
427.551	2775
427.625	2699
427.700	2655
427.774	2089
427.849	2982
427.923	2952
427.998	3894
428.072	4410
428.147	10678
428.221	35958
428.296	95213
428.370	56539
428.444	12728
428.519	4529
428.593	3662
428.667	3937
428.742	5949
428.816	15067
428.890	59798
428.965	87590
429.039	26365
429.113	6940
429.188	3897
429.262	3604
429.336	3445
429.410	2908
429.485	3197
429.559	3361
429.633	4197
429.707	5496
429.781	13276
429.855	56504
429.930	77701
430.004	25827
430.078	16850
430.152	44642
430.226	125237
430.300	120795
430.374	36974
430.448	13823
430.522	7741
430.596	8165
430.670	20608
430.744	74148
430.818	77755
430.892	17979
430.966	5415
431.040	3987
431.114	2173
431.188	2024
431.262	2375
431.336	1945
431.410	2431
431.484	1877
431.557	3175
431.631	3489
431.705	8014
431.779	28917
431.853	92570
431.927	63667
432.000	13060
432.074	4702
432.148	2490
432.222	1581
432.295	1519
432.369	1665
432.443	876
432.516	1963
432.590	2947
432.664	1874
432.737	594
432.811	539
432.885	570
432.958	1544
433.032	123
433.106	606
433.179	846
433.253	1064
433.326	853
433.400	468
433.473	665
433.547	405
433.620	193
433.694	-40
433.767	579
433.841	615
433.914	205
433.988	1317
434.061	1527
434.134	1400
434.208	840
434.281	1048
434.355	833
434.428	1000
434.501	542
434.575	-48
434.648	732
434.721	1488
434.795	658
434.868	325
434.941	1543
435.014	1094
435.088	1283
435.161	1982
435.234	2035
435.307	2913
435.381	4352
435.454	7816
435.527	12699
435.600	15192
435.673	12094
435.746	10071
435.819	7263
435.892	5849
435.966	4869
436.039	3102
436.112	2810
436.185	2321
436.258	1944
436.331	1690
436.404	1910
436.477	1437
436.550	1365
436.623	1908
436.696	768
436.769	1411
436.842	855
436.915	1028
436.987	400
437.060	639
437.133	850
437.206	124
437.279	938
437.352	374
437.425	827
437.498	1689
437.570	1276
437.643	337
437.716	551
437.789	168
437.861	220
437.934	246
438.007	841
438.080	287
438.152	1003
438.225	1084
438.298	2567
438.370	4608
438.443	2781
438.516	366
438.588	1151
438.661	574
438.734	1004
438.806	1108
438.879	1043
438.951	322
439.024	647
439.096	-69
439.169	836
439.241	-86
439.314	-74
439.386	-46
439.459	567
439.531	351
439.604	179
439.676	1161
439.749	473
439.821	961
439.893	1014
439.966	265
440.038	979
440.110	1275
440.183	145
440.255	357
440.327	1824
440.400	1299
440.472	3185
440.544	2468
440.617	917
440.689	2430
440.761	1208
440.833	205
440.905	1367
440.978	686
441.050	663
441.122	1659
441.194	1021
441.266	1614
441.338	1148
441.411	1014
441.483	1623
441.555	2182
441.627	1128
441.699	1595
441.771	1614
441.843	1782
441.915	1751
441.987	1498
442.059	3454
442.131	4108
442.203	4844
442.275	6541
442.347	11004
442.419	24872
442.491	81947
442.563	149454
442.635	72634
442.706	20396
442.778	10167
442.850	6811
442.922	6283
442.994	6819
443.066	6213
443.137	8844
443.209	11534
443.281	19256
443.353	38270
443.425	98474
443.496	204462
443.568	213334
443.640	110640
443.711	37269
443.783	17136
443.855	10209
443.926	8044
443.998	6218
444.070	4728
444.141	4330
444.213	3770
444.285	4381
444.356	3899
444.428	3015
444.499	3343
444.571	3586
444.642	3704
444.714	3939
444.785	4011
444.857	4777
444.928	6202
445.000	7790
445.071	9500
445.143	11806
445.214	18918
445.285	32849
445.357	69382
445.428	159389
445.500	232187
445.571	212716
445.642	157219
445.714	70062
445.785	27952
445.856	14471
445.928	9477
445.999	6645
446.070	5680
446.141	4493
446.213	3485
446.284	3492
446.355	2473
446.426	2075
446.497	1723
446.569	887
446.640	1025
446.711	1670
446.782	696
446.853	1667
446.924	684
446.995	263
447.066	910
447.138	414
447.209	226
447.280	25
447.351	100
447.422	-2
447.493	-61
447.564	-19
447.635	-247
447.706	120
447.777	718
447.847	236
447.918	-402
447.989	134
448.060	803
448.131	966
448.202	118
448.273	159
448.344	399
448.414	870
448.485	20
448.556	-279
448.627	763
448.698	682
448.768	-413
448.839	-239
448.910	-526
448.981	498
449.051	338
449.122	533
449.193	-67
449.263	373
449.334	315
449.405	-21
449.475	558
449.546	354
449.616	1527
449.687	334
449.758	604
449.828	-262
449.899	441
449.969	46
450.040	205
450.110	378
450.181	107
450.251	-120
450.322	-92
450.392	248
450.463	-304
450.533	343
450.604	141
450.674	-169
450.744	905
450.815	887
450.885	2064
450.955	2576
451.026	1203
451.096	723
451.166	1112
451.237	1650
451.307	2662
451.377	2325
451.447	1135
451.518	1444
451.588	907
451.658	399
451.728	-421
451.799	-457
451.869	352
451.939	-247
452.009	880
452.079	247
452.149	1223
452.219	1357
452.289	808
452.360	1488
452.430	1973
452.500	2569
452.570	4774
452.640	12807
452.710	29962
452.780	35445
452.850	21997
452.920	10747
452.990	6591
453.060	3678
453.129	2122
453.199	1406
453.269	1977
453.339	1361
453.409	757
453.479	1136
453.549	831
453.619	573
453.688	226
453.758	49
453.828	-119
453.898	217
453.968	-764
454.037	329
454.087	135
454.107	39
454.168	140
454.177	134
454.247	358
454.249	378
454.316	289
454.330	241
454.386	-11
454.411	264
454.456	680
454.492	835
454.525	950
454.574	581
454.595	388
454.655	-158
454.665	-277
454.734	387
454.736	414
454.804	551
454.817	581
454.873	666
454.898	524
454.943	180
454.979	658
455.013	1074
455.060	964
455.082	884
455.141	967
455.152	972
455.221	1282
455.222	1309
455.291	1972
455.303	2475
455.360	4038
455.384	7054
455.430	11660
455.465	8710
455.499	6105
455.546	2851
455.569	1452
455.627	919
455.638	772
455.707	764
455.708	786
455.777	704
455.789	740
455.846	841
455.869	859
455.916	725
455.950	699
455.985	707
456.031	1258
456.054	1481
456.112	909
456.124	788
456.193	989
456.193	965
456.262	1423
456.274	1576
456.332	2233
456.355	1981
456.401	1384
456.436	1713
456.470	1994
456.516	1999
456.540	1967
456.597	1895
456.609	1863
456.678	1727
456.678	1702
456.747	1571
456.759	1631
456.817	2113
456.840	2265
456.886	2268
456.920	2677
456.955	3087
457.001	3154
457.024	3168
457.082	2446
457.093	2318
457.162	3138
457.163	3162
457.232	2918
457.243	2987
457.301	3364
457.324	3650
457.370	4284
457.405	4543
457.439	4660
457.485	5096
457.508	5400
457.566	6557
457.577	7050
457.646	10634
457.647	10723
457.715	22802
457.727	25593
457.784	47074
457.808	61544
457.853	78147
457.889	92570
457.922	91680
457.969	65754
457.991	66360
458.050	74462
458.060	77171
458.129	125557
458.130	127133
458.198	129249
458.211	120190
458.267	75340
458.292	54075
458.336	36806
458.372	32879
458.405	40025
458.453	55689
458.474	70180
458.533	123041
458.543	127141
458.611	190255
458.614	191635
458.680	130373
458.694	108630
458.749	58115
458.775	41263
458.818	25559
458.855	19301
458.887	15601
458.936	12335
458.955	11390
459.016	9266
459.024	9002
459.093	8029
459.097	7978
459.162	6648
459.177	6577
459.230	6920
459.257	6724
459.299	6046
459.338	5962
459.368	5930
459.418	5659
459.437	5583
459.499	5367
459.505	5310
459.574	5312
459.579	5337
459.643	5790
459.659	5549
459.711	4923
459.740	5268
459.780	5738
459.820	5706
459.849	5366
459.900	5172
459.917	5190
459.981	5095
459.986	5108
460.054	5289
460.061	5393
460.123	5722
460.141	5591
460.191	5472
460.222	5556
460.260	5698
460.302	5740
460.328	5958
460.382	7013
460.397	7249
460.462	8027
460.465	8320
460.534	15795
460.543	16689
460.602	42585
460.623	52876
460.671	81994
460.703	108310
460.739	98786
460.783	78420
460.808	66149
460.864	19066
460.876	15187
460.944	7181
460.945	7107
461.013	6422
461.024	6297
461.081	5907
461.104	6014
461.150	5875
461.184	5694
461.218	5809
461.264	5758
461.286	5547
461.345	4910
461.355	4849
461.423	5073
461.425	5068
461.491	5431
461.505	5659
461.559	5621
461.585	5247
461.628	4817
461.665	4618
461.696	4916
461.745	5591
461.764	5536
461.825	5196
461.832	5253
461.901	5863
461.905	5910
461.969	5121
461.985	4888
462.037	5760
462.065	6181
462.105	5408
462.145	4741
462.173	5028
462.225	5312
462.241	5268
462.305	5757
462.310	5812
462.378	5936
462.385	5997
462.446	5870
462.465	5778
462.514	6327
462.545	6742
462.582	6374
462.625	5744
462.650	5631
462.705	5498
462.718	5461
462.785	5059
462.786	5069
462.854	6014
462.865	6093
462.922	5600
462.945	5492
462.990	5389
463.025	5209
463.058	5439
463.104	5846
463.126	5833
463.184	5827
463.194	5835
463.262	5347
463.264	5348
463.330	5852
463.344	5892
463.398	6061
463.424	6092
463.466	5607
463.504	5324
463.533	5620
463.583	5989
463.601	6126
463.663	6453
463.669	6332
463.737	4849
463.743	4743
463.805	5722
463.823	5929
463.873	6174
463.903	6325
463.940	6120
463.982	5913
464.008	6008
464.062	6050
464.076	6048
464.142	6148
464.144	6154
464.211	6072
464.221	6026
464.279	5612
464.301	5489
464.347	5864
464.381	6105
464.414	5694
464.461	5244
464.482	5420
464.540	5738
464.550	5801
464.617	6056
464.620	6066
464.685	6821
464.699	6891
464.753	6239
464.779	5991
464.820	6360
464.859	6724
464.888	6325
464.938	5642
464.956	5922
465.018	6572
465.023	6575
465.091	6647
465.098	6658
465.158	6693
465.177	6660
465.226	7070
465.257	7333
465.293	7127
465.336	6675
465.361	6471
465.416	6319
465.428	6386
465.495	6395
465.496	6411
465.563	7177
465.575	7267
465.631	7053
465.654	7073
465.698	7003
465.734	6792
465.765	6659
465.813	6395
465.833	6546
465.893	7008
465.900	7044
465.968	7268
465.972	7266
466.035	7174
466.052	7126
466.102	6537
466.131	6254
466.170	6498
466.210	6608
466.237	6747
466.290	7044
466.304	6890
466.369	6098
466.372	6154
466.439	7437
466.449	7606
466.506	6934
466.528	6667
466.573	6582
466.607	6449
466.641	6587
466.687	6813
466.708	7114
466.766	7834
466.775	7884
466.842	8134
466.845	8132
466.909	8004
466.925	7928
466.977	8315
467.004	8514
467.044	8315
467.083	8096
467.111	8134
467.163	8128
467.178	8194
467.242	8395
467.245	8406
467.312	8283
467.321	8251
467.379	8453
467.400	8501
467.446	9133
467.480	9560
467.559	9345
467.638	8967
467.717	9110
467.796	10383
467.875	10982
467.955	10745
468.034	12344
468.113	14190
468.192	16551
468.271	20631
468.350	28188
468.429	37891
468.508	38805
468.588	25757
468.667	16650
468.746	13709
468.825	11267
468.904	10407
468.983	9946
469.062	9798
469.141	9635
469.220	8266
469.299	9424
469.378	7972
469.456	9649
469.535	8693
469.614	8978
469.693	7914
469.772	9622
469.851	9379
469.930	9251
470.009	8326
470.088	9159
470.166	9071
470.245	9501
470.324	7918
470.403	9064
470.482	8047
470.560	9059
470.639	8212
470.718	8846
470.797	7984
470.875	8617
470.954	7839
471.033	7509
471.111	8038
471.190	8216
471.269	8350
471.347	8007
471.426	7236
471.505	8560
471.583	7912
471.662	7318
471.740	8617
471.819	8009
471.898	7481
471.976	8084
472.055	7634
472.133	10434
472.212	15019
472.290	8566
472.369	7943
472.447	8056
472.526	7748
472.604	8856
472.683	8234
472.761	8680
472.839	7730
472.918	8418
472.996	8222
473.075	9130
473.153	8627
473.231	8195
473.310	9030
473.388	8019
473.466	8310
473.545	9620
473.623	9344
473.701	9306
473.780	10718
473.858	7416
473.936	11138
474.014	9541
474.093	11714
474.171	14414
474.249	10187
474.327	8018
474.405	8545
474.484	8817
474.562	9017
474.640	8907
474.718	7893
474.796	8981
474.874	9612
474.952	8592
475.030	8097
475.108	7953
475.187	8558
475.265	8463
475.343	9424
475.421	10839
475.499	8335
475.577	9025
475.655	9063
475.733	8214
475.811	8171
475.889	8625
475.966	7727
476.044	8605
476.122	8300
476.200	9115
476.278	7902
476.356	9479
476.434	8209
476.512	9163
476.590	8888
476.667	9078
476.745	7855
476.823	8796
476.901	8921
476.979	8005
477.056	8388
477.134	7798
477.212	8233
477.290	8228
477.367	8113
477.445	8774
477.523	7755
477.601	8185
477.678	7508
477.756	7709
477.834	7540
477.911	8569
477.989	8408
478.066	7818
478.144	7865
478.222	9240
478.299	11124
478.377	13002
478.454	11801
478.532	8521
478.609	8202
478.687	7973
478.764	7483
478.842	8206
478.919	7497
478.997	8641
479.074	7946
479.152	8412
479.229	7492
479.307	7393
479.384	8253
479.461	8291
479.539	7036
479.616	7652
479.694	8084
479.771	7737
479.848	7313
479.926	7403
480.003	10041
480.080	7800
480.157	8202
480.235	7856
480.312	8185
480.389	8675
480.467	8389
480.544	9325
480.621	10181
480.698	10077
480.775	9069
480.853	9268
480.930	8910
481.007	10148
481.084	15672
481.161	27052
481.238	17188
481.315	8978
481.392	8532
481.470	8870
481.547	9562
481.624	9748
481.701	8473
481.778	8524
481.855	9482
481.932	10288
482.009	10612
482.086	11894
482.163	13306
482.240	15309
482.317	16795
482.393	13603
482.470	12363
482.547	13090
482.624	11440
482.701	10688
482.778	11689
482.855	11915
482.932	10959
483.009	12359
483.085	16545
483.162	23677
483.239	21815
483.316	14569
483.393	14876
483.469	13223
483.546	11863
483.623	11288
483.699	10315
483.776	10223
483.853	8893
483.930	10052
484.006	9444
484.083	10390
484.160	9647
484.236	9904
484.313	10840
484.389	10984
484.466	13820
484.543	15898
484.619	19478
484.696	22181
484.772	15209
484.849	11767
484.925	9843
485.002	10081
485.078	10222
485.155	8743
485.231	8753
485.308	8587
485.384	9171
485.461	10115
485.537	9116
485.614	9524
485.690	8490
485.766	8782
485.843	8584
485.919	7721
485.995	7839
486.072	8118
486.148	8091
486.224	7599
486.301	8235
486.377	8428
486.453	7714
486.530	8976
486.606	9683
486.682	9399
486.758	10876
486.835	12523
486.911	10851
486.987	12510
487.063	13313
487.139	18161
487.215	26806
487.292	24858
487.368	23658
487.444	29535
487.520	44723
487.596	68464
487.672	134334
487.748	385801
487.824	595435
487.900	250027
487.976	79226
488.052	39928
488.128	27796
488.204	19052
488.280	16528
488.356	14456
488.432	13971
488.508	12647
488.584	10577
488.660	10251
488.736	10627
488.812	9173
488.888	9951
488.964	9302
489.039	9186
489.115	10496
489.191	12540
489.267	9403
489.343	8550
489.418	6957
489.494	8310
489.570	6546
489.646	8854
489.722	7984
489.797	8886
489.873	8947
489.949	8415
490.024	7935
490.100	7436
490.176	7880
490.251	7796
490.327	8627
490.403	7863
490.478	8759
490.554	8475
490.629	7706
490.705	8666
490.781	7784
490.856	8087
490.932	7880
491.007	7677
491.083	7844
491.158	7544
491.234	6889
491.309	8096
491.385	6781
491.460	6751
491.536	8268
491.611	6630
491.686	7516
491.762	7162
491.837	7390
491.913	7140
491.988	8278
492.063	7402
492.139	6808
492.214	6451
492.289	6560
492.365	6376
492.440	6644
492.515	6000
492.590	6299
492.666	6242
492.741	7064
492.816	7589
492.891	6877
492.967	7337
493.042	7658
493.117	6589
493.192	8469
493.267	10670
493.342	25130
493.418	33553
493.493	9241
493.568	7497
493.643	6483
493.718	7341
493.793	6317
493.868	6766
493.943	6623
494.018	6757
494.093	6388
494.168	7087
494.243	5406
494.318	6477
494.393	6669
494.468	6147
494.543	6690
494.618	6308
494.693	6740
494.768	6393
494.842	6685
494.917	6219
494.992	6104
495.067	5749
495.142	6726
495.217	6050
495.292	7215
495.366	5809
495.441	4835
495.516	7016
495.591	7199
495.665	7487
495.740	9067
495.815	7981
495.890	6890
495.964	5034
496.039	9703
496.114	12224
496.188	23212
496.263	17288
496.338	6492
496.412	6352
496.487	6060
496.561	6992
496.636	6460
496.710	7561
496.785	9074
496.860	6997
496.934	5843
497.009	6416
497.083	6152
497.158	5738
497.232	5593
497.307	6455
497.381	5522
497.455	5757
497.530	5664
497.604	5198
497.679	6137
497.753	5881
497.827	5441
497.902	5710
497.976	5753
498.050	5141
498.125	6531
498.199	6489
498.273	5711
498.348	5640
498.422	5729
498.496	6046
498.570	5643
498.645	6109
498.719	4436
498.793	6244
498.867	5632
498.941	5428
499.016	5531
499.090	5587
499.164	5818
499.238	7579
499.312	7097
499.386	6752
499.460	6054
499.534	6160
499.609	5983
499.683	5799
499.757	6844
499.831	5831
499.905	6083
499.979	6110
500.053	5501
500.127	5924
500.201	5770
500.275	6395
500.349	5483
500.422	5464
500.496	6018
500.570	6481
500.644	6922
500.718	5942
500.792	6687
500.866	6721
500.940	6313
501.013	6937
501.087	7272
501.161	6674
501.235	5536
501.309	8058
501.382	6139
501.456	7117
501.530	7147
501.603	6083
501.677	5621
501.751	5262
501.825	7603
501.898	6615
501.972	6038
502.046	6371
502.119	5902
502.193	5971
502.266	5913
502.340	6107
502.413	6195
502.487	6330
502.561	5144
502.634	6721
502.708	6648
502.781	5556
502.855	7450
502.928	5933
503.002	6534
503.075	5528
503.149	6350
503.222	7653
503.295	6327
503.369	8306
503.442	8837
503.516	9067
503.589	11441
503.662	13441
503.736	16292
503.809	22590
503.882	27919
503.956	42354
504.029	83323
504.102	223998
504.175	326278
504.249	144527
504.322	56891
504.395	32103
504.468	21708
504.542	16086
504.615	12615
504.688	10411
504.761	8062
504.834	9242
504.907	7640
504.980	8317
505.053	6579
505.127	4631
505.200	8822
505.273	5225
505.346	5702
505.419	4992
505.492	6499
505.565	5785
505.638	6368
505.711	5130
505.784	4673
505.857	4593
505.930	7000
506.003	3474
506.076	7284
506.149	4330
506.221	3779
506.294	5866
506.367	2733
506.440	4398
506.513	4842
506.586	5348
506.659	4708
506.731	4804
506.804	4004
506.877	3565
506.950	5150
507.022	5845
507.095	2757
507.168	4750
507.241	5311
507.313	4550
507.386	4231
507.459	5346
507.531	4175
507.604	3460
507.677	5228
507.749	2619
507.822	4724
507.894	4299
507.967	5144
508.040	3352
508.112	5313
508.185	4952
508.257	2509
508.330	6519
508.402	3625
508.475	4230
508.547	4609
508.620	4052
508.692	3943
508.765	3941
508.837	4323
508.909	5566
508.982	3054
509.054	5486
509.127	3908
509.199	3906
509.271	3619
509.344	4029
509.416	4373
509.488	3754
509.560	3880
509.633	3219
509.705	3995
509.777	3813
509.849	5018
509.922	2733
509.994	4438
510.066	5156
510.138	2663
510.210	5810
510.283	3494
510.355	4975
510.427	4206
510.499	4556
510.571	4248
510.643	4292
510.715	4529
510.787	2301
510.859	5376
510.931	3860
511.003	4676
511.076	4934
511.148	3650
511.219	2249
511.291	4788
511.363	4082
511.435	4432
511.507	3401
511.579	5002
511.651	4843
511.723	4327
511.795	3817
511.867	2913
511.939	4435
512.010	3215
512.082	4483
512.154	3002
512.226	4259
512.298	5224
512.369	4434
512.441	4899
512.513	4802
512.585	3240
512.656	4405
512.728	3743
512.800	3962
512.871	5115
512.943	5133
513.015	2880
513.086	4872
513.158	4495
513.230	3890
513.301	4351
513.373	3904
513.444	3355
513.516	4027
513.588	3907
513.659	4583
513.731	3370
513.802	2681
513.874	5842
513.945	3947
514.016	3383
514.088	4793
514.159	2511
514.231	4669
514.302	3768
514.374	4383
514.445	2223
514.516	6733
514.588	3217
514.659	3244
514.730	3359
514.802	5711
514.873	1680
514.944	6836
515.016	4654
515.087	3895
515.158	3000
515.229	4565
515.301	3448
515.372	4487
515.443	3252
515.514	4722
515.585	4603
515.656	5312
515.728	5295
515.799	4365
515.870	5184
515.941	5139
516.012	3737
516.083	5930
516.154	3625
516.225	5474
516.296	6411
516.367	4577
516.438	5139
516.509	4438
516.580	6228
516.651	11196
516.722	22309
516.793	11878
516.864	5752
516.935	6900
517.006	7160
517.077	7167
517.148	9587
517.219	32425
517.289	45188
517.360	9553
517.431	7383
517.502	5179
517.573	6705
517.643	6861
517.714	6181
517.785	7400
517.856	6136
517.926	9227
517.997	10032
518.068	9488
518.138	13476
518.209	14884
518.280	31058
518.350	90311
518.421	45599
518.492	29014
518.562	35755
518.633	49410
518.703	77542
518.774	169324
518.845	386372
518.915	356401
518.986	118525
519.056	51872
519.127	30647
519.197	22617
519.268	15287
519.338	14720
519.408	10754
519.479	10061
519.549	8195
519.620	9813
519.690	7714
519.760	7309
519.831	7035
519.901	5958
519.971	6352
520.042	5021
520.112	4357
520.182	5808
520.253	5713
520.323	5558
520.393	3179
520.463	5930
520.534	2656
520.604	7601
520.674	5727
520.744	4797
520.814	4388
520.885	6380
520.955	4876
521.025	4001
521.095	3992
521.165	6096
521.235	4726
521.305	3803
521.375	6025
521.445	5173
521.515	4502
521.585	6537
521.655	3922
521.725	5165
521.795	5925
521.865	2452
521.935	7550
522.005	4160
522.075	5173
522.145	5499
522.215	5686
522.285	6418
522.355	5374
522.424	6446
522.494	6430
522.564	6284
522.634	5233
522.704	7587
522.774	4938
522.843	5958
522.913	6782
522.983	5720
523.053	4470
523.122	6297
523.192	4710
523.262	5680
523.331	4593
523.401	5771
523.471	5344
523.540	5794
523.610	4324
523.680	6112
523.749	7179
523.819	8158
523.888	8196
523.958	6933
524.027	7009
524.097	6199
524.166	6236
524.236	6146
524.305	7751
524.375	5984
524.444	5566
524.514	8075
524.583	5997
524.653	5486
524.722	6259
524.791	4709
524.861	8649
524.930	6012
524.999	7149
525.069	8302
525.138	7070
525.207	7795
525.277	8302
525.346	8851
525.415	11113
525.484	11953
525.554	13014
525.623	18802
525.692	25390
525.761	26280
525.830	31653
525.900	42059
525.969	66725
526.038	129067
526.107	243648
526.176	639571
526.245	499625
526.314	169131
526.383	334774
526.452	441958
526.522	552361
526.591	501308
526.660	113241
526.729	65839
526.797	68913
526.867	95218
526.935	239579
527.004	727420
527.073	497980
527.142	101486
527.211	43118
527.280	28915
527.349	20582
527.418	15770
527.487	15156
527.555	11457
527.624	11184
527.693	8969
527.762	10685
527.831	8786
527.899	9330
527.968	8332
528.037	6431
528.106	8879
528.174	7928
528.243	8303
528.312	7694
528.380	6618
528.449	5325
528.518	8534
528.586	5863
528.655	7610
528.723	7597
528.792	7154
528.861	5309
528.929	6165
528.998	7610
529.066	6602
529.135	7081
529.203	5968
529.272	5329
529.340	7393
529.409	7290
529.477	6016
529.545	5130
529.614	8474
529.682	5549
529.751	5975
529.819	9718
529.887	6839
529.956	5099
530.024	7323
530.092	5626
530.161	7710
530.229	6634
530.297	5910
530.365	7856
530.434	7489
530.502	6493
530.570	7072
530.638	5443
530.707	7897
530.775	8044
530.843	7323
530.911	6717
530.979	7550
531.047	6472
531.115	7757
531.183	7682
531.252	7014
531.320	6829
531.388	6501
531.456	7591
531.524	5366
531.592	7418
531.660	9784
531.728	6864
531.796	7803
531.864	7099
531.932	7582
532.000	6636
532.067	7053
532.135	8835
532.203	9919
532.271	9017
532.339	10709
532.407	10593
532.475	10013
532.542	9796
532.610	9731
532.678	7523
532.746	11721
532.814	13315
532.881	10822
532.949	10402
533.017	9640
533.084	9350
533.152	8780
533.220	9737
533.287	7832
533.355	8972
533.423	9841
533.490	8986
533.558	9293
533.625	10962
533.693	9234
533.761	10137
533.828	10955
533.896	9103
533.963	11387
534.031	11990
534.098	15185
534.166	17659
534.233	16318
534.300	19933
534.368	19570
534.435	18316
534.503	20472
534.570	22779
534.637	25393
534.705	28174
534.772	35801
534.840	67763
534.907	269291
534.974	320981
535.041	53686
535.109	24842
535.176	19943
535.243	19295
535.310	18474
535.378	17348
535.445	18115
535.512	17836
535.579	17907
535.646	16571
535.714	17647
535.781	18683
535.848	19120
535.915	18877
535.982	17558
536.049	17466
536.116	19784
536.183	17247
536.250	15955
536.317	16539
536.384	19346
536.451	19615
536.518	19030
536.585	17378
536.652	20991
536.719	20250
536.786	16993
536.853	18082
536.920	19701
536.987	18893
537.053	16890
537.120	20741
537.187	22364
537.254	21423
537.321	20036
537.388	22271
537.454	20066
537.521	20279
537.588	19866
537.654	21506
537.721	22090
537.788	22574
537.855	20912
537.921	20517
537.988	19726
538.055	20361
538.121	17825
538.188	18785
538.254	17652
538.321	17528
538.388	20034
538.454	23111
538.521	23557
538.587	23421
538.654	22122
538.720	21282
538.787	22422
538.853	21418
538.920	21354
538.986	18388
539.053	18352
539.119	19573
539.185	18790
539.252	21025
539.318	20811
539.385	24816
539.451	21837
539.517	22086
539.583	21721
539.650	20242
539.716	21064
539.782	19996
539.849	19736
539.915	20986
539.981	20138
540.047	20010
540.114	20604
540.180	22050
540.246	21962
540.312	23119
540.378	22113
540.444	22545
540.510	22747
540.576	22950
540.643	21467
540.709	19876
540.775	21181
540.841	20057
540.907	19467
540.973	20364
541.039	20606
541.105	20720
541.171	21797
541.237	23542
541.303	22703
541.369	24823
541.435	22879
541.500	21135
541.566	20333
541.632	20427
541.698	21311
541.764	22292
541.830	21890
541.896	20664
541.961	21133
542.027	20218
542.093	23601
542.159	23570
542.224	21274
542.290	22781
542.356	20866
542.421	21724
542.487	20532
542.553	18952
542.618	20296
542.684	21127
542.750	20994
542.815	22081
542.881	21108
542.947	23255
543.012	23077
543.078	22049
543.143	20609
543.209	20750
543.274	20094
543.340	21328
543.405	21472
543.471	21471
543.536	22998
543.602	22548
543.667	21603
543.732	23261
543.798	21329
543.863	22563
543.928	22624
543.994	21945
544.059	21951
544.124	23552
544.190	23353
544.255	23760
544.320	24500
544.386	24074
544.451	25095
544.516	24562
544.581	22539
544.646	24624
544.712	26010
544.777	25892
544.842	24433
544.907	25356
544.972	25713
545.037	26425
545.102	28551
545.168	27152
545.233	27246
545.298	28717
545.363	27306
545.428	29235
545.493	29799
545.558	29197
545.623	30077
545.688	29732
545.753	31595
545.818	31420
545.883	34882
545.947	33855
546.012	36116
546.077	36384
546.142	40283
546.207	39728
546.272	43062
546.337	43435
546.401	45922
546.466	47277
546.531	48380
546.596	54044
546.661	55162
546.725	59047
546.790	62291
546.855	68296
546.919	73255
546.984	83742
547.049	88413
547.113	101542
547.178	112673
547.243	126394
547.307	144253
547.372	159895
547.436	162767
547.501	169827
547.565	181793
547.630	168835
547.695	161187
547.759	160839
547.823	164149
547.888	166254
547.952	173758
548.017	179441
548.081	190730
548.146	180778
548.210	184610
548.274	198639
548.339	196637
548.403	178170
548.468	167160
548.532	166834
548.596	171720
548.660	171316
548.725	185790
548.789	199521
548.853	194678
548.917	189111
548.982	182447
549.046	163627
549.110	149941
549.174	155209
549.238	179883
549.303	195480
549.367	198618
549.431	190453
549.495	179381
549.559	178173
549.623	205780
549.687	224458
549.751	217966
549.815	257749
549.879	263842
549.943	253228
550.007	263513
550.071	261835
550.135	238053
550.199	225314
550.263	223981
550.327	210824
550.391	220073
550.455	242172
550.519	251715
550.582	261951
550.646	294423
550.710	296714
550.774	293850
550.838	297721
550.901	305442
550.965	322474
551.029	329998
551.093	350794
551.156	374410
551.220	393210
551.284	409547
551.347	348489
551.411	314599
551.475	302922
551.538	313906
551.602	299216
551.666	283539
551.729	267194
551.793	262294
551.856	259668
551.920	253752
551.983	252977
552.047	249996
552.110	250672
552.174	256400
552.237	259339
552.301	243143
552.364	233019
552.428	227276
552.491	233465
552.554	237835
552.618	235723
552.681	241446
552.745	230262
552.808	236458
552.871	246860
552.934	242438
552.998	239078
553.061	232600
553.124	224821
553.187	224949
553.251	229228
553.314	229967
553.377	234556
553.440	247649
553.503	268383
553.567	280656
553.630	248970
553.693	248430
553.756	247200
553.819	243394
553.882	235137
553.945	235527
554.008	236200
554.071	238462
554.134	241050
554.197	227538
554.260	224225
554.323	227561
554.386	228685
554.449	237529
554.512	238584
554.575	227096
554.638	225831
554.701	222517
554.764	222390
554.827	215660
554.889	209599
554.952	197043
555.015	194048
555.078	196516
555.141	198577
555.203	195599
555.266	193132
555.329	194294
555.391	186549
555.454	183518
555.517	176742
555.580	171239
555.642	166040
555.705	162442
555.768	163556
555.830	158975
555.893	149196
555.955	145682
556.018	143791
556.080	143776
556.143	145997
556.206	146016
556.268	142275
556.330	140490
556.393	134143
556.455	132308
556.518	128973
556.580	125122
556.643	121127
556.705	118350
556.767	116143
556.830	114585
556.892	112179
556.955	111007
557.017	107587
557.079	107161
557.142	104614
557.204	102350
557.266	101587
557.328	94689
557.391	89277
557.453	88499
557.515	88292
557.577	89100
557.639	89336
557.701	87902
557.764	87608
557.826	87258
557.888	89870
557.950	91240
558.012	98136
558.074	116442
558.136	208562
558.198	412757
558.260	178806
558.322	95017
558.384	92173
558.446	94469
558.508	98210
558.570	107110
558.632	118601
558.694	144564
558.756	220784
558.818	485441
558.880	839814
558.942	460896
559.003	453470
559.065	242955
559.127	116305
559.189	107035
559.251	115815
559.312	150405
559.374	293517
559.436	667785
559.498	394407
559.559	133720
559.621	107095
559.683	117308
559.744	169247
559.806	407270
559.868	543810
559.929	175290
559.991	118377
560.052	167859
560.114	396163
560.176	270427
560.237	249033
560.299	358471
560.360	104536
560.422	53066
560.483	45890
560.545	41592
560.606	40081
560.667	40065
560.729	37287
560.790	35703
560.852	34549
560.913	34836
560.974	33805
561.036	34098
561.097	34260
561.158	31982
561.220	32333
561.281	30534
561.342	29994
561.403	30916
561.465	29168
561.526	30749
561.587	29881
561.648	28979
561.709	28044
561.771	27922
561.832	26406
561.893	26183
561.954	26854
562.015	25974
562.076	26010
562.137	25365
562.198	26119
562.259	26176
562.320	25979
562.381	25050
562.442	25243
562.503	24402
562.564	24842
562.625	23465
562.686	23587
562.747	22338
562.808	23385
562.869	23174
562.930	23028
562.991	22202
563.051	21542
563.112	21554
563.173	21638
563.234	20756
563.294	21919
563.355	19971
563.416	21166
563.477	22224
563.537	20316
563.598	21283
563.659	20775
563.720	20900
563.780	19560
563.841	20818
563.901	21793
563.962	20295
564.023	20318
564.083	19453
564.144	19595
564.204	20234
564.265	19617
564.325	18920
564.386	19585
564.446	18967
564.507	18187
564.567	18317
564.628	17904
564.688	18296
564.749	17887
564.809	19614
564.869	18900
564.930	17980
564.990	19078
565.050	17539
565.111	18498
565.171	18852
565.231	18314
565.292	18594
565.352	17997
565.412	18125
565.472	19385
565.532	17271
565.593	16545
565.653	17632
565.713	17600
565.773	18297
565.833	18848
565.893	19925
565.953	17944
566.013	17298
566.074	17323
566.134	17121
566.194	16269
566.254	16838
566.314	16733
566.374	16644
566.434	16457
566.494	17199
566.554	16082
566.614	17325
566.673	17632
566.733	18462
566.793	18682
566.853	18743
566.913	17389
566.973	18162
567.033	18826
567.092	17145
567.152	18281
567.212	19208
567.272	18820
567.331	18687
567.391	18909
567.451	19618
567.511	19990
567.570	18952
567.630	19437
567.690	18208
567.749	19164
567.809	18461
567.868	18707
567.928	18207
567.988	17896
568.047	17891
568.107	18116
568.166	18196
568.226	17718
568.285	19585
568.345	18422
568.404	19633
568.464	17752
568.523	17551
568.582	18370
568.642	18637
568.701	18184
568.761	16609
568.820	16494
568.879	17068
568.939	18038
568.998	17821
569.057	17983
569.116	17839
569.176	18296
569.235	16590
569.294	17992
569.353	17887
569.413	17532
569.472	17061
569.531	16690
569.590	16540
569.649	16331
569.708	16446
569.767	18276
569.827	16480
569.886	17480
569.945	17444
570.004	17480
570.063	18788
570.122	17956
570.181	18553
570.240	18834
570.299	18550
570.358	18306
570.417	18706
570.475	19438
570.534	19204
570.593	17740
570.652	19202
570.711	18687
570.770	17474
570.829	18694
570.887	18199
570.946	19015
571.005	19331
571.064	18615
571.122	18820
571.181	17427
571.240	17931
571.299	17197
571.357	17659
571.416	17487
571.475	17150
571.533	17993
571.592	19763
571.650	18986
571.709	20419
571.768	21361
571.826	21627
571.885	20643
571.943	19525
572.002	18716
572.060	18417
572.119	18939
572.177	17407
572.236	18700
572.294	18738
572.352	18729
572.411	19642
572.469	18933
572.528	18405
572.586	18292
572.644	18093
572.703	17323
572.761	16422
572.819	17085
572.877	15745
572.936	16483
572.994	15907
573.052	15535
573.110	16258
573.169	16893
573.227	17381
573.285	17476
573.343	17363
573.401	16781
573.459	17388
573.517	16660
573.576	17544
573.634	17705
573.692	17337
573.750	17918
573.808	16801
573.866	16143
573.924	16861
573.982	14813
574.040	16233
574.098	16655
574.155	15731
574.213	15940
574.271	16273
574.329	17131
574.387	16184
574.445	15257
574.503	15007
574.560	15067
574.618	14929
574.676	14909
574.734	15429
574.792	15156
574.849	14504
574.907	12906
574.965	12338
575.022	11473
575.080	12495
575.138	13205
575.195	12644
575.253	11365
575.311	12279
575.368	13513
575.426	11627
575.483	13124
575.541	12885
575.598	12551
575.656	12765
575.713	12151
575.771	13623
575.828	13358
575.886	13153
575.943	12489
576.001	11171
576.058	11008
576.115	11874
576.173	12010
576.230	12427
576.287	12908
576.345	12750
576.402	12374
576.459	12144
576.517	12429
576.574	11733
576.631	11668
576.688	10827
576.746	11892
576.803	11189
576.860	11331
576.917	12662
576.974	12083
577.031	12385
577.089	11798
577.146	10759
577.203	10663
577.260	11518
577.317	11022
577.374	10538
577.431	9818
577.488	10396
577.545	10311
577.602	11579
577.659	11456
577.716	11393
577.773	11910
577.830	11750
577.886	11583
577.943	10571
578.000	10664
578.057	10584
578.114	10769
578.171	10255
578.227	10371
578.284	9929
578.341	11241
578.398	10599
578.454	10427
578.511	10921
578.568	10582
578.625	10994
578.681	10993
578.738	10841
578.794	11336
578.851	11030
578.908	11347
578.964	10283
579.021	11104
579.077	10897
579.134	11791
579.190	11320
579.247	11295
579.303	10328
579.360	11193
579.416	10410
579.473	10276
579.529	10795
579.586	11169
579.642	11279
579.698	12039
579.755	11435
579.811	11292
579.867	11734
579.924	11135
579.980	11020
580.036	11947
580.093	12016
580.149	11205
580.205	12160
580.261	12141
580.317	11899
580.374	12527
580.430	12465
580.486	12899
580.542	12334
580.598	12952
580.619	12822
580.654	12608
580.692	12980
580.710	13185
580.765	12230
580.767	12210
580.823	12919
580.838	12876
580.879	12782
580.911	12537
580.935	12385
580.984	12212
580.991	12195
581.047	12795
581.057	12716
581.103	12424
581.130	12346
581.159	12246
581.203	11552
581.215	11392
581.270	12134
581.276	12121
581.326	12064
581.349	12179
581.382	12345
581.422	11921
581.438	11756
581.494	12080
581.494	12065
581.550	10971
581.567	11317
581.606	12124
581.640	11996
581.661	11865
581.713	12518
581.717	12586
581.773	12266
581.786	12115
581.829	11540
581.859	11713
581.885	11908
581.932	12186
581.940	12241
581.996	12805
582.004	12784
582.052	12573
582.077	12565
582.107	12527
582.150	12017
582.163	11897
582.219	11443
582.223	11429
582.274	11380
582.296	11368
582.330	11302
582.368	11589
582.386	11765
582.441	12865
582.441	12866
582.497	11464
582.514	11759
582.552	12658
582.587	12338
582.608	12034
582.659	12391
582.663	12435
582.719	12180
582.732	12226
582.774	12348
582.805	12189
582.830	12080
582.877	12030
582.885	12003
582.941	12488
582.950	12383
582.996	11799
583.023	11907
583.052	12228
583.095	12499
583.107	12495
583.162	11368
583.168	11438
583.218	12085
583.240	11874
583.273	11681
583.313	12336
583.328	12597
583.384	11987
583.385	12002
583.439	12003
583.458	11771
583.494	11678
583.531	11827
583.549	11851
583.603	12237
583.605	12243
583.660	12439
583.676	12272
583.715	12187
583.748	12513
583.770	12672
583.820	13457
583.825	13523
583.881	13555
583.893	13267
583.936	12196
583.965	12585
583.991	13030
584.038	13364
584.046	13396
584.101	13101
584.110	13169
584.156	13592
584.183	13724
584.211	13872
584.255	13917
584.266	13977
584.321	14202
584.328	14289
584.376	14588
584.400	14628
584.431	14955
584.472	14429
584.486	14183
584.541	15563
584.545	15580
584.596	16037
584.617	15920
584.651	15937
584.689	16658
584.706	16758
584.761	17186
584.762	17180
584.816	17576
584.834	18058
584.871	19099
584.906	19726
584.926	19977
584.978	20844
584.980	20898
585.035	23137
585.051	23753
585.090	25769
585.123	27849
585.145	29294
585.195	32090
585.200	32470
585.254	37632
585.267	39203
585.309	44630
585.340	48744
585.364	52517
585.412	61497
585.419	63146
585.473	77718
585.484	81785
585.528	106439
585.556	129338
585.583	172418
585.628	267695
585.637	300394
585.692	557631
585.700	597983
585.747	728933
585.772	671056
585.801	487179
585.845	236748
585.856	199401
585.910	102089
585.917	92642
585.965	66740
585.989	56482
586.019	49668
586.061	42504
586.074	41025
586.128	36106
586.133	35764
586.183	34217
586.205	33574
586.237	32972
586.277	32174
586.292	32162
586.346	31948
586.349	31917
586.401	30197
586.421	29374
586.455	29348
586.493	30173
586.509	30516
586.564	30058
586.565	30069
586.618	33058
586.637	33979
586.672	37478
586.709	42579
586.727	45075
586.781	50070
586.781	50107
586.835	42423
586.853	40119
586.889	36518
586.925	33735
586.944	33062
586.996	31835
586.998	31853
587.052	31391
587.068	31240
587.106	31505
587.140	31791
587.161	31752
587.212	31424
587.215	31484
587.269	32077
587.284	32243
587.323	32866
587.356	33604
587.377	34215
587.427	34856
587.431	34911
587.485	35291
587.499	35437
587.539	36177
587.571	36874
587.593	37782
587.643	39829
587.648	40005
587.702	40508
587.715	40551
587.755	40331
587.786	40269
587.810	40508
587.858	40899
587.864	41000
587.917	41255
587.930	41311
587.971	40902
588.001	40497
588.025	40797
588.073	41272
588.079	41338
588.133	41152
588.145	41111
588.187	41236
588.217	41121
588.241	41358
588.288	42248
588.295	42440
588.348	43319
588.360	43419
588.402	43147
588.431	42672
588.456	42835
588.503	43555
588.510	43831
588.564	45471
588.575	45842
588.617	47964
588.646	49082
588.671	49516
588.718	50352
588.725	50769
588.778	54344
588.789	55172
588.832	67170
588.861	76683
588.886	102241
588.932	157107
588.939	163148
588.993	210525
589.004	211213
589.047	122136
589.075	70601
589.100	61036
589.147	49719
589.154	49379
589.207	47154
589.218	46624
589.261	47440
589.290	48008
589.314	48784
589.361	50540
589.368	51250
589.421	56856
589.433	58276
589.475	81204
589.504	98567
589.528	124341
589.576	180474
589.582	175682
589.635	104690
589.647	90139
589.689	64257
589.718	49425
589.742	48874
589.790	47983
589.795	48061
589.849	48185
589.861	48105
589.902	48035
589.932	47625
589.955	47473
590.004	47173
590.009	47263
590.062	47568
590.075	47474
590.115	47645
590.146	47589
590.168	47779
590.218	48021
590.222	48201
590.275	49706
590.289	49902
590.328	51300
590.360	52288
590.381	52366
590.431	52168
590.435	52320
590.488	53139
590.503	53317
590.541	53970
590.574	54270
590.594	54778
590.645	55788
590.647	55995
590.700	58545
590.716	59196
590.753	60261
590.787	61259
590.806	62270
590.859	64162
590.859	64315
590.912	65804
590.930	66147
590.965	66564
591.001	66804
591.018	66871
591.071	66354
591.072	66209
591.124	65165
591.143	64649
591.177	65294
591.214	65843
591.230	66434
591.283	67781
591.285	67685
591.336	67294
591.356	66995
591.389	66781
591.427	65996
591.442	66044
591.495	65894
591.498	65739
591.547	67145
591.569	67588
591.600	68084
591.640	68471
591.653	68869
591.706	69723
591.711	69679
591.759	71559
591.782	72281
591.811	74538
591.853	77377
591.864	77419
591.917	76693
591.924	76416
591.969	76444
591.995	76166
592.022	76914
592.066	77748
592.075	78367
592.127	81089
592.137	81403
592.180	82920
592.208	83587
592.233	84773
592.279	86542
592.285	87034
592.338	89397
592.350	89732
592.390	89591
592.421	89110
592.443	90361
592.491	92430
592.495	92718
592.548	93608
592.562	93628
592.600	93409
592.633	92811
592.653	93415
592.704	93889
592.705	94443
592.775	95148
592.846	98709
592.916	99686
592.987	98544
593.058	100314
593.128	102958
593.199	104251
593.270	103193
593.341	105368
593.411	109790
593.482	112632
593.553	115334
593.623	118704
593.694	121974
593.764	124124
593.835	122190
593.906	124940
593.976	128222
594.047	131014
594.117	137546
594.188	141549
594.258	140633
594.329	140669
594.399	144387
594.470	149489
594.540	154721
594.611	156601
594.681	155689
594.751	155345
594.822	160536
594.892	168300
594.963	172922
595.033	176881
595.103	183133
595.174	183124
595.244	187433
595.314	192972
595.384	198153
595.455	203944
595.525	212025
595.595	220508
595.665	217617
595.736	213003
595.806	216488
595.876	220539
595.946	222155
596.016	232530
596.087	237969
596.157	238046
596.227	241175
596.297	250162
596.367	268472
596.437	283001
596.507	281372
596.577	279485
596.647	290720
596.717	305134
596.787	309967
596.857	307741
596.927	308850
596.997	311407
597.067	315764
597.137	319835
597.207	319720
597.277	324314
597.347	311777
597.417	299266
597.487	300791
597.557	306882
597.626	316143
597.696	319611
597.766	317630
597.836	300215
597.906	285591
597.975	278714
598.045	283045
598.115	296301
598.185	315548
598.254	352232
598.324	378699
598.394	384659
598.464	372759
598.533	368486
598.603	342428
598.672	335069
598.742	341552
598.812	342458
598.881	353017
598.951	349456
599.020	355144
599.090	366137
599.159	373504
599.229	357532
599.299	350271
599.368	360634
599.437	356043
599.507	329236
599.576	315623
599.646	311556
599.715	307855
599.785	304847
599.854	295525
599.924	289071
599.993	289778
600.062	297193
600.132	305018
600.201	322350
600.270	369259
600.340	389924
600.409	379195
600.478	379000
600.547	390205
600.617	349574
600.686	279041
600.755	254544
600.824	240343
600.894	234448
600.963	234684
601.032	232063
601.101	223976
601.170	211265
601.239	204320
601.308	202800
601.378	204290
601.447	203638
601.516	206162
601.585	208486
601.654	209616
601.723	209524
601.792	218613
601.861	223792
601.930	231936
601.999	232873
602.068	230038
602.137	235473
602.206	237910
602.275	240823
602.343	244408
602.412	246287
602.481	247647
602.550	250814
602.619	259333
602.688	260341
602.756	261942
602.825	265044
602.894	272446
602.963	275496
603.032	281421
603.100	282964
603.169	282917
603.238	284202
603.307	288270
603.375	290794
603.444	296585
603.513	304426
603.581	307177
603.650	308821
603.719	307214
603.787	320287
603.856	328018
603.924	334575
603.993	346317
604.061	359422
604.130	372085
604.198	381492
604.267	388245
604.335	392339
604.404	400314
604.472	403464
604.541	408088
604.609	411114
604.678	409492
604.746	413313
604.815	425159
604.883	430945
604.951	432670
605.020	437882
605.088	448346
605.156	458174
605.225	464283
605.293	465912
605.361	467328
605.429	469989
605.498	480985
605.566	490366
605.634	510469
605.702	528941
605.771	542668
605.839	545328
605.907	536525
605.975	517205
606.043	514208
606.111	511470
606.180	507759
606.248	507511
606.316	500942
606.384	500987
606.452	506014
606.520	517869
606.588	533586
606.656	541286
606.724	533170
606.792	502974
606.860	461897
606.928	422558
606.996	407564
607.064	402468
607.132	411101
607.200	434674
607.267	446699
607.335	456801
607.403	467249
607.471	449599
607.539	437437
607.607	437665
607.674	391569
607.742	392449
607.810	389155
607.878	390800
607.946	395272
608.013	416503
608.081	425036
608.149	424132
608.216	441250
608.284	453254
608.352	454420
608.419	450580
608.487	439923
608.555	432195
608.622	446456
608.690	471818
608.757	515496
608.825	523588
608.893	508732
608.960	484948
609.028	463523
609.095	465350
609.163	462531
609.230	415960
609.298	386955
609.365	405715
609.432	436660
609.500	470072
609.567	528307
609.635	591810
609.702	613632
609.769	584638
609.837	467709
609.904	415314
609.971	425374
610.039	452053
610.106	529649
610.173	784341
610.241	1304010
610.308	960280
610.375	541031
610.442	463552
610.509	436318
610.577	434734
610.644	442828
610.711	451943
610.778	462246
610.845	483090
610.912	507719
610.980	523975
611.047	525075
611.114	516064
611.181	500701
611.248	499927
611.315	520020
611.382	534726
611.449	554353
611.516	559380
611.583	552652
611.650	556031
611.717	562692
611.784	569387
611.851	584629
611.918	607908
611.984	665479
612.051	804509
612.118	1132277
612.185	1679277
612.252	1423421
612.319	869238
612.386	729023
612.452	665423
612.519	628080
612.586	611391
612.653	622947
612.719	636552
612.786	617035
612.853	579485
612.919	570149
612.986	574850
613.053	545431
613.120	519152
613.186	505455
613.253	507339
613.319	510929
613.386	508166
613.453	517665
613.519	518300
613.586	508252
613.652	513390
613.719	508689
613.785	517723
613.852	521049
613.918	518060
613.985	521187
614.051	545038
614.118	543511
614.184	524680
614.250	518869
614.317	527816
614.383	520988
614.449	530781
614.516	525379
614.582	529727
614.648	522016
614.715	519292
614.781	507288
614.847	507241
614.914	501981
614.980	490807
615.046	495665
615.112	505779
615.179	509494
615.245	513829
615.311	507868
615.377	513497
615.443	520793
615.509	525675
615.575	540602
615.642	538433
615.708	548838
615.774	565829
615.840	592615
615.906	611552
615.972	685562
616.038	860115
616.104	1282980
616.170	1768590
616.236	1651562
616.302	1083393
616.368	897158
616.434	715059
616.500	647851
616.565	684524
616.631	808236
616.697	721656
616.763	709686
616.829	910897
616.895	1345137
616.961	1311475
617.026	811284
617.092	612296
617.158	559194
617.224	536533
617.289	499857
617.355	478424
617.421	470560
617.487	467318
617.552	445269
617.618	442153
617.684	443716
617.749	445573
617.815	427768
617.880	418957
617.946	416763
618.012	427004
618.077	434308
618.143	414113
618.208	421207
618.274	446853
618.339	449252
618.405	377879
618.470	376952
618.536	377329
618.601	369526
618.667	346351
618.732	329730
618.798	328560
618.863	326174
618.928	323367
618.994	326588
619.059	322087
619.124	327191
619.190	322442
619.255	321596
619.320	320917
619.386	326041
619.451	322306
619.516	309508
619.581	317696
619.647	327430
619.712	325411
619.777	312754
619.842	314620
619.907	318596
619.972	326969
620.038	321926
620.103	313797
620.168	318138
620.233	320652
620.298	321066
620.363	324485
620.428	332445
620.493	339183
620.558	344015
620.623	350806
620.688	346282
620.753	347298
620.818	355094
620.883	355104
620.948	351620
621.013	349959
621.078	342219
621.143	348587
621.207	350665
621.272	345280
621.337	335286
621.402	333481
621.467	326977
621.532	328303
621.596	331352
621.661	321270
621.726	318652
621.791	323455
621.855	322070
621.920	316679
621.985	322763
622.049	329015
622.114	330610
622.179	334165
622.243	343913
622.308	351046
622.373	362261
622.437	355893
622.502	337980
622.566	336749
622.631	335313
622.695	342781
622.760	340110
622.824	337584
622.889	338814
622.953	339083
623.018	361226
623.082	363311
623.147	360784
623.211	350519
623.276	351121
623.340	339165
623.404	332477
623.469	330941
623.533	335026
623.597	328272
623.662	327747
623.726	304550
623.790	290991
623.854	280346
623.919	285283
623.983	291660
624.047	293537
624.111	300725
624.176	304572
624.240	303329
624.304	314214
624.368	302471
624.432	305511
624.496	308763
624.560	324192
624.625	328383
624.689	324161
624.753	338473
624.817	322505
624.881	315706
624.945	288406
625.009	280989
625.073	285413
625.137	296506
625.201	306982
625.265	308693
625.329	295262
625.393	298427
625.456	304658
625.520	308258
625.584	314497
625.648	325432
625.712	328694
625.776	323819
625.839	306219
625.903	265495
625.967	248896
626.031	264610
626.095	309999
626.158	288487
626.222	233713
626.286	217923
626.349	211838
626.413	198664
626.477	196054
626.540	202674
626.604	197670
626.668	193754
626.731	192937
626.795	193335
626.858	192856
626.922	190618
626.986	189179
627.049	189324
627.113	196595
627.176	190396
627.240	184612
627.303	187747
627.366	183304
627.430	186885
627.493	182747
627.557	181029
627.620	183498
627.684	194982
627.747	194184
627.810	177761
627.874	162066
627.937	154986
628.000	161731
628.064	156840
628.127	140294
628.190	138331
628.253	134557
628.317	129169
628.380	124823
628.443	121546
628.506	119894
628.569	114511
628.632	111045
628.696	109568
628.759	109825
628.822	105145
628.885	103401
628.948	102529
629.011	99336
629.074	97387
629.137	93908
629.200	91743
629.263	91243
629.326	89616
629.389	90581
629.452	88860
629.515	86005
629.578	86724
629.641	88742
629.704	88389
629.767	85363
629.830	84309
629.892	81864
629.955	81570
630.018	84546
630.081	82438
630.144	82687
630.207	79576
630.269	82260
630.332	78116
630.395	79490
630.458	76192
630.520	73608
630.583	76107
630.646	76009
630.708	77312
630.771	78165
630.834	82411
630.896	80066
630.959	80875
631.021	78065
631.084	78084
631.146	78812
631.209	79339
631.272	79354
631.334	81001
631.397	80608
631.459	81164
631.522	84864
631.584	86992
631.646	91149
631.709	93267
631.771	91893
631.834	90584
631.896	86025
631.958	83141
632.021	81626
632.083	77060
632.145	77275
632.208	75360
632.270	74855
632.332	75136
632.395	73597
632.457	74358
632.519	73296
632.581	73306
632.643	72713
632.706	72835
632.768	70514
632.830	73166
632.892	75616
632.954	74984
633.016	76154
633.078	75609
633.141	75338
633.203	74461
633.265	75185
633.327	72424
633.389	73067
633.451	74863
633.513	73593
633.575	76234
633.637	74358
633.698	77897
633.760	82052
633.822	85443
633.884	84953
633.946	87451
634.008	89326
634.070	92369
634.132	95973
634.193	102107
634.255	109224
634.317	110214
634.379	107227
634.441	99429
634.502	91277
634.564	84943
634.626	79217
634.687	76252
634.749	73663
634.811	73142
634.873	71422
634.934	72329
634.996	73072
635.057	71482
635.119	73629
635.181	74935
635.242	76439
635.304	72837
635.365	78162
635.427	73950
635.488	74427
635.550	73607
635.611	74694
635.673	74371
635.734	80723
635.796	84691
635.857	90524
635.918	95710
635.980	104867
636.041	108699
636.102	114121
636.164	113709
636.225	110019
636.286	96834
636.348	89077
636.409	82538
636.470	78133
636.531	74361
636.593	71614
636.654	69648
636.715	67622
636.776	67485
636.838	65265
636.899	64451
636.960	64529
637.021	62812
637.082	61469
637.143	61063
637.204	58160
637.265	59307
637.326	59077
637.387	60953
637.448	59784
637.509	60054
637.570	59731
637.631	60529
637.692	56669
637.753	55055
637.814	57556
637.875	55858
637.936	56799
637.997	55039
638.058	55082
638.119	54837
638.179	55240
638.240	54471
638.301	54979
638.362	53067
638.423	51997
638.483	52898
638.544	50455
638.605	53326
638.666	51389
638.726	52455
638.787	51934
638.848	51997
638.908	51045
638.969	49593
639.030	47644
639.090	48170
639.151	49474
639.211	50223
639.272	50423
639.332	50177
639.393	52013
639.453	54664
639.514	55704
639.574	50293
639.635	47065
639.695	46811
639.756	45071
639.816	46141
639.877	44535
639.937	46115
639.997	45994
640.058	44452
640.118	45361
640.178	46186
640.239	45463
640.299	45863
640.359	46730
640.420	50653
640.480	54830
640.540	60369
640.600	61988
640.661	58519
640.721	57141
640.781	65803
640.841	62800
640.901	49640
640.961	47330
641.021	49209
641.082	52687
641.142	47742
641.202	45483
641.262	42870
641.322	44924
641.382	42991
641.442	45011
641.502	43196
641.562	42910
641.622	45798
641.682	48453
641.742	53760
641.802	50958
641.861	45411
641.921	42880
641.981	42351
642.041	39845
642.101	40031
642.161	38986
642.221	38729
642.280	41122
642.340	40195
642.400	40984
642.460	42492
642.519	41735
642.579	42741
642.639	43825
642.698	42424
642.758	45342
642.818	43186
642.877	42552
642.937	42727
642.997	42530
643.056	42124
643.116	41021
643.175	45158
643.235	44483
643.294	45851
643.354	47673
643.414	50543
643.473	56032
643.532	64164
643.592	79880
643.651	111303
643.711	174950
643.770	311982
643.830	631017
643.889	942759
643.948	403812
644.008	138125
644.067	85532
644.126	64015
644.186	56617
644.245	50507
644.304	46195
644.363	47324
644.423	42917
644.482	45348
644.541	45580
644.600	46752
644.659	55542
644.719	65056
644.778	89092
644.837	141043
644.896	269230
644.955	516203
645.014	199843
645.073	72610
645.132	55265
645.191	50989
645.250	49035
645.309	50256
645.368	55312
645.427	70989
645.486	119619
645.545	191513
645.604	64855
645.663	45417
645.722	43099
645.781	46615
645.840	48437
645.898	57031
645.957	73477
646.016	101128
646.075	163035
646.134	294309
646.192	635949
646.251	762333
646.310	238071
646.369	99760
646.427	81103
646.486	60460
646.545	50234
646.603	43983
646.662	41704
646.721	39792
646.779	38776
646.838	39635
646.896	46983
646.955	61188
647.014	90475
647.072	165518
647.131	388723
647.189	191372
647.248	49365
647.306	39487
647.365	35943
647.423	31030
647.481	33710
647.540	30986
647.598	31263
647.657	31203
647.715	31889
647.773	29877
647.832	28911
647.890	27532
647.948	26841
648.007	27508
648.065	25440
648.123	25923
648.181	26982
648.240	27048
648.298	26257
648.356	25585
648.414	26202
648.472	24799
648.531	24898
648.589	24186
648.647	24400
648.705	25331
648.763	23808
648.821	24917
648.879	26436
648.937	27755
648.995	32468
649.053	37814
649.111	52577
649.169	77451
649.227	133401
649.285	268379
649.343	591075
649.401	310040
649.459	74573
649.516	44214
649.574	36147
649.632	39767
649.690	42949
649.748	46646
649.806	67792
649.863	120810
649.921	298082
649.979	189721
650.037	39703
650.094	25453
650.152	23680
650.210	22979
650.268	23818
650.325	24936
650.383	30019
650.440	19831
650.498	19116
650.556	18334
650.613	17717
650.671	18291
650.728	18325
650.786	20717
650.843	28750
650.901	21280
650.958	16662
651.016	15947
651.073	15632
651.131	15585
651.188	14747
651.246	16079
651.303	14030
651.360	14357
651.418	15332
651.475	14868
651.532	14474
651.590	15192
651.647	13875
651.704	13569
651.762	14087
651.819	14149
651.876	13389
651.933	12535
651.990	14052
652.048	12234
652.105	12778
652.162	13753
652.219	12240
652.276	12747
652.333	13561
652.390	11749
652.448	12955
652.505	13751
652.562	12270
652.619	12884
652.676	14358
652.733	15018
652.790	12478
652.847	11292
652.904	11564
652.961	10165
653.017	11632
653.074	11868
653.131	11783
653.188	11592
653.245	11118
653.302	11129
653.359	11834
653.415	12531
653.472	11535
653.529	12111
653.586	10813
653.642	10801
653.699	12843
653.756	10672
653.813	11268
653.869	12677
653.926	11336
653.983	10888
654.039	12537
654.096	11690
654.152	12149
654.209	10209
654.266	11265
654.322	9894
654.379	10073
654.435	11530
654.492	9851
654.548	11030
654.605	11053
654.661	12365
654.717	10319
654.774	11977
654.830	11298
654.887	10658
654.943	12141
655.000	16029
655.056	12896
655.112	10482
655.168	10841
655.225	11974
655.281	11859
655.337	11434
655.394	10342
655.450	10828
655.506	11164
655.562	10109
655.618	10827
655.675	9823
655.731	10136
655.787	10517
655.843	12646
655.899	11044
655.955	11928
656.011	12778
656.067	11505
656.123	13341
656.179	12347
656.235	14024
656.291	12017
656.347	13811
656.403	12499
656.459	12396
656.515	11100
656.571	10803
656.627	10371
656.683	10867
656.739	11061
656.795	10783
656.850	10976
656.906	10205
656.962	11670
657.018	12104
657.074	14326
657.129	19706
657.185	30150
657.241	67740
657.297	35618
657.352	12295
657.408	10346
657.464	10609
657.519	9195
657.575	8180
657.630	9304
657.686	9063
657.742	8726
657.797	9374
657.853	8994
657.908	10681
657.964	8095
658.019	9136
658.075	9444
658.130	9730
658.186	8106
658.241	8900
658.297	8140
658.352	8826
658.407	9065
658.463	7614
658.518	8711
658.573	8599
658.629	7801
658.684	8631
658.739	8969
658.795	7698
658.850	8516
658.905	8508
658.960	8431
659.016	7660
659.071	8134
659.126	8515
659.181	7442
659.236	8520
659.291	8848
659.346	8093
659.401	8647
659.457	9592
659.512	8955
659.567	10002
659.622	8032
659.677	8022
659.732	7274
659.787	8116
659.842	8184
659.897	7398
659.952	8049
660.007	7973
660.061	7982
660.116	6747
660.171	6968
660.226	8028
660.281	9491
660.336	6654
660.391	7857
660.445	6562
660.500	7374
660.555	7505
660.610	7268
660.664	7814
660.719	6407
660.774	7313
660.828	8015
660.883	7389
660.938	7177
660.992	6048
661.047	7495
661.101	7074
661.156	6756
661.211	6411
661.265	7299
661.320	7424
661.374	6754
661.429	6108
661.483	8039
661.538	6636
661.592	8562
661.647	9611
661.701	12247
661.755	8374
661.810	8687
661.864	6456
661.919	6553
661.973	7279
662.027	7602
662.081	5990
662.136	7749
662.190	7061
662.244	7401
662.299	6299
662.353	6919
662.407	7050
662.461	7152
662.515	8118
662.569	6238
662.624	6639
662.678	6542
662.732	6000
662.786	6777
662.840	6550
662.894	6176
662.948	7290
663.002	7057
663.056	7083
663.110	6836
663.164	6068
663.218	6787
663.272	7157
663.326	7217
663.380	6693
663.434	6558
663.488	6408
663.542	7397
663.595	6807
663.649	6640
663.703	6993
663.757	6409
663.811	5297
663.864	6579
663.918	7354
663.972	6289
664.026	7136
664.079	7145
664.133	7069
664.187	8250
664.240	7321
664.294	7845
664.348	8421
664.401	8271
664.455	7229
664.508	7222
664.562	6354
664.615	6742
664.669	7207
664.722	7211
664.776	7285
664.829	6683
664.883	6408
664.936	6305
664.990	6037
665.043	6939
665.097	6523
665.150	7677
665.203	7167
665.257	7028
665.310	7672
665.363	6953
665.417	7392
665.470	7747
665.523	7235
665.576	7583
665.630	7596
665.683	8040
665.736	7533
665.789	7776
665.842	6859
665.895	7020
665.949	7583
666.002	7753
666.055	7533
666.108	8899
666.161	7686
666.214	7590
666.267	7580
666.320	8297
666.373	7700
666.426	8182
666.479	7559
666.532	8327
666.585	8842
666.638	8830
666.691	8374
666.744	8794
666.796	7333
666.849	7898
666.902	8836
666.955	8051
667.008	7133
667.060	6846
667.113	7959
667.166	8649
667.219	8295
667.271	8839
667.324	8329
667.377	8554
667.430	8865
667.482	8870
667.535	8062
667.587	8395
667.640	7920
667.693	7282
667.745	7930
667.798	8090
667.850	7747
667.903	9307
667.955	8681
668.008	8349
668.060	8070
668.113	6803
668.165	7819
668.218	8615
668.270	8000
668.322	7727
668.375	7757
668.427	7691
668.479	6854
668.532	7996
668.584	7660
668.636	6716
668.689	7644
668.741	7129
668.793	7224
668.845	7319
668.898	8049
668.950	7987
669.002	7863
669.054	7262
669.106	7145
669.158	7611
669.211	6599
669.263	7259
669.315	8028
669.367	7530
669.419	6671
669.471	7651
669.523	6838
669.575	7506
669.627	6159
669.679	6638
669.731	6279
669.783	6639
669.835	6878
669.886	6360
669.938	7130
669.990	6932
670.042	6572
670.094	6116
670.146	7322
670.197	6466
670.249	6482
670.301	6889
670.353	6685
670.404	8275
670.456	6925
670.508	7540
670.560	7564
670.611	8072
670.663	8592
670.715	14858
670.766	18640
670.818	9099
670.869	7487
670.921	8705
670.972	8598
671.024	8080
671.075	8103
671.127	7515
671.178	8030
671.230	8475
671.281	9410
671.333	10485
671.384	12296
671.436	16720
671.487	23317
671.538	32130
671.590	51430
671.641	82906
671.692	143851
671.744	246592
671.795	186746
671.846	82295
671.897	42804
671.949	28476
672.000	20107
672.051	15680
672.102	13363
672.153	10228
672.204	9860
672.256	9542
672.307	9426
672.358	8145
672.409	7553
672.460	7392
672.511	6499
672.562	5947
672.613	5256
672.664	6551
672.715	6884
672.766	5638
672.817	5307
672.868	5245
672.919	5142
672.970	5473
673.021	5454
673.071	4783
673.122	4854
673.173	4857
673.224	5653
673.275	4930
673.326	5116
673.376	4878
673.427	4494
673.478	5628
673.528	5007
673.579	4721
673.630	5226
673.680	6075
673.731	5400
673.782	3833
673.832	5333
673.883	4733
673.934	4886
673.984	4926
674.035	5172
674.085	4051
674.136	5227
674.186	4788
674.237	5189
674.287	5170
674.338	5548
674.388	6091
674.438	5837
674.489	5904
674.539	5682
674.589	6065
674.640	6297
674.690	5724
674.740	6014
674.791	5569
674.841	5653
674.891	4384
674.942	4508
674.992	4384
675.042	4115
675.092	4364
675.142	2819
675.193	3448
675.243	3973
675.293	5169
675.343	4682
675.393	4128
675.443	4036
675.493	4623
675.543	3663
675.593	4775
675.643	4971
675.693	5043
675.743	4445
675.793	4151
675.843	2915
675.893	4117
675.943	3739
675.993	3755
676.043	3015
676.093	3904
676.142	3251
676.192	3635
676.242	3189
676.292	3552
676.341	3747
676.391	3237
676.441	2876
676.491	3446
676.540	3665
676.590	2918
676.640	3855
676.689	4126
676.739	2254
676.789	3033
676.838	3204
676.888	2561
676.937	2888
676.987	2927
677.037	3014
677.086	2739
677.136	2886
677.185	3214
677.235	2444
677.284	3003
677.333	3119
677.383	3360
677.432	3010
677.482	3175
677.531	2462
677.580	2250
677.630	2814
677.679	3509
677.728	2865
677.778	2756
677.827	1804
677.876	2573
677.925	2268
677.975	3494
678.024	3601
678.073	3264
678.122	3831
678.171	4126
678.220	3437
678.269	5405
678.319	5427
678.368	4698
678.417	4929
678.466	3473
678.515	3587
678.564	3551
678.613	2256
678.662	2329
678.711	3217
678.760	3234
678.809	2815
678.857	3255
678.906	3547
678.955	3285
679.004	3290
679.053	4983
679.102	3964
679.151	3357
679.199	1705
679.248	2206
679.297	2229
679.346	2019
679.394	2137
679.443	2396
679.492	2398
679.540	2385
679.589	2881
679.638	2161
679.686	2391
679.735	3229
679.784	4846
679.832	4297
679.881	3008
679.929	2827
679.978	2357
680.026	3125
680.075	2975
680.123	2203
680.172	2321
680.220	2450
680.268	2982
680.317	2527
680.365	1824
680.414	1851
680.462	2431
680.510	2914
680.559	2239
680.607	2209
680.655	2565
680.703	3102
680.752	2670
680.800	1961
680.848	2379
680.896	2181
680.945	2307
680.993	1858
681.041	1944
681.089	2790
681.137	1568
681.185	1763
681.233	2474
681.258	2213
681.281	1931
681.329	2009
681.377	1907
681.380	1982
681.425	2758
681.473	3280
681.502	3011
681.521	2759
681.569	3600
681.617	3048
681.624	3048
681.665	2775
681.713	3760
681.745	3322
681.761	3053
681.809	3072
681.857	3314
681.867	3311
681.904	3165
681.952	3815
681.989	3141
682.000	2894
682.048	3463
682.096	2920
682.111	2881
682.143	2685
682.191	3811
682.233	4116
682.239	4125
682.286	3151
682.334	3589
682.354	3383
682.382	3052
682.430	4447
682.476	4072
682.477	4032
682.525	4246
682.572	3984
682.598	4293
682.620	4500
682.667	3742
682.715	4413
682.720	4449
682.763	4494
682.810	4348
682.841	3781
682.857	3425
682.905	3577
682.952	4380
682.963	4343
683.000	4126
683.047	3989
683.085	5440
683.095	5803
683.142	4603
683.190	4491
683.206	4635
683.237	4794
683.284	5415
683.328	4586
683.332	4487
683.379	5274
683.426	5253
683.449	5312
683.473	5408
683.521	5091
683.568	5178
683.571	5208
683.615	5056
683.662	6240
683.693	5631
683.709	5308
683.757	4685
683.804	5043
683.814	5078
683.851	5082
683.898	5786
683.936	6178
683.945	6252
683.992	6081
684.039	5926
684.057	5910
684.086	5770
684.133	5788
684.179	5729
684.180	5710
684.227	5594
684.274	5246
684.300	5544
684.321	5751
684.368	6035
684.415	6847
684.422	6767
684.462	6226
684.509	5861
684.543	6735
684.556	7015
684.603	7030
684.649	6745
684.665	6670
684.696	6443
684.743	6855
684.786	7244
684.790	7246
684.837	6955
684.883	7480
684.908	7146
684.930	6987
684.977	6912
685.023	7337
685.029	7353
685.070	7092
685.117	7309
685.150	7336
685.164	7360
685.210	7237
685.257	7920
685.272	7903
685.303	7799
685.350	7222
685.393	7670
685.396	7678
685.443	6638
685.490	7589
685.514	7665
685.536	7800
685.583	7162
685.629	6941
685.636	6983
685.675	7154
685.722	7613
685.757	7247
685.768	7138
685.815	7461
685.861	7855
685.878	7777
685.908	7563
685.954	7934
686.000	7671
686.000	7662
686.047	8189
686.093	8851
686.121	9118
686.139	9174
686.185	8579
686.232	8405
686.242	8473
686.278	8734
686.324	8828
686.363	8479
686.370	8409
686.416	8668
686.463	9242
686.484	9042
686.509	8785
686.555	8887
686.601	8776
686.606	8848
686.647	9423
686.693	9211
686.727	8544
686.739	8307
686.785	8975
686.831	8477
686.848	8638
686.877	9017
686.923	9541
686.969	9401
686.969	9399
687.015	9478
687.061	9873
687.090	10429
687.107	10611
687.153	10248
687.199	10320
687.211	10053
687.245	9366
687.291	9915
687.332	9949
687.336	9986
687.382	9871
687.428	10297
687.453	10645
687.474	10906
687.520	11389
687.565	11708
687.574	11739
687.611	12631
687.657	13937
687.695	15670
687.702	16207
687.748	19974
687.794	23802
687.816	24303
687.839	21880
687.885	17981
687.931	14801
687.937	14208
687.976	12702
688.022	12041
688.058	11336
688.067	11366
688.113	11036
688.158	11190
688.179	10955
688.204	10722
688.249	10991
688.295	11307
688.300	11322
688.340	11553
688.386	11339
688.421	11421
688.431	11449
688.477	11351
688.522	11442
688.542	11746
688.567	12350
688.613	12604
688.658	12602
688.663	12710
688.703	12901
688.749	11739
688.784	11719
688.794	11885
688.839	12518
688.884	12871
688.905	12967
688.930	12816
688.975	12180
689.020	12660
689.026	12564
689.065	12415
689.110	12636
689.146	13353
689.155	13574
689.201	14131
689.246	14705
689.267	14542
689.291	13748
689.336	13510
689.381	12210
689.388	12156
689.426	12780
689.471	12681
689.509	12805
689.516	12790
689.561	12670
689.606	12263
689.630	12257
689.651	12415
689.696	12354
689.741	12551
689.750	12595
689.785	12769
689.830	12831
689.871	12747
689.875	12735
689.920	12608
689.965	12545
689.992	12392
690.010	12421
690.054	12144
690.099	12383
690.112	12517
690.144	12744
690.189	12528
690.233	12096
690.233	12111
690.278	12458
690.323	12764
690.354	12573
690.367	12542
690.412	12989
690.457	12962
690.474	13033
690.501	12884
690.546	12588
690.590	12256
690.595	12135
690.635	11478
690.680	11846
690.716	11413
690.724	11398
690.769	12024
690.813	12461
690.836	12445
690.857	12562
690.902	13232
690.946	13855
690.957	13856
690.991	13553
691.035	13680
691.077	13396
691.080	13403
691.124	13859
691.168	13890
691.198	13271
691.213	12993
691.257	13367
691.301	13270
691.318	13162
691.346	13183
691.390	13607
691.434	13742
691.439	13699
691.478	13497
691.522	13871
691.559	13836
691.567	13866
691.611	14369
691.655	13985
691.680	14180
691.699	14324
691.743	14288
691.787	14361
691.800	14316
691.831	14325
691.875	14451
691.919	14149
691.921	14132
691.964	14397
692.008	14613
692.041	14284
692.052	14175
692.096	14116
692.139	13939
692.162	13771
692.183	13785
692.227	13907
692.271	13792
692.282	13797
692.315	13866
692.359	14224
692.402	14143
692.403	14167
692.447	13881
692.490	13680
692.523	13576
692.534	13728
692.578	14142
692.622	14565
692.643	14558
692.666	14402
692.709	14743
692.753	14691
692.763	14706
692.797	14790
692.840	14589
692.884	14346
692.884	14374
692.928	14523
692.971	14206
693.004	14182
693.015	14290
693.059	14340
693.102	14677
693.124	14846
693.146	14811
693.189	14192
693.233	13891
693.245	13889
693.276	14504
693.320	14893
693.363	15182
693.365	15171
693.407	15325
693.450	15060
693.485	15037
693.493	15060
693.537	15118
693.580	14744
693.605	14905
693.624	15046
693.667	14709
693.710	14385
693.725	14375
693.753	14438
693.797	13921
693.840	13979
693.845	13932
693.883	14031
693.926	14057
693.966	13922
693.970	13974
694.013	14309
694.056	15124
694.086	15050
694.099	14959
694.142	15160
694.185	15220
694.206	15190
694.229	15470
694.272	16024
694.315	16321
694.326	16419
694.358	16222
694.401	15736
694.444	15563
694.446	15501
694.487	15589
694.530	15884
694.566	15954
694.573	15968
694.616	16088
694.659	16099
694.686	16073
694.702	16260
694.745	16638
694.787	16942
694.806	17042
694.830	16962
694.873	16754
694.916	16767
694.926	16689
694.959	16991
695.002	17129
695.044	17428
695.046	17409
695.087	17807
695.130	17812
695.166	17945
695.172	18073
695.215	18586
695.258	19159
695.286	19376
695.301	19451
695.343	19686
695.386	20007
695.406	20039
695.428	21086
695.471	22975
695.514	25106
695.526	25666
695.556	27005
695.599	28540
695.641	30301
695.646	30394
695.684	28802
695.726	27158
695.766	25491
695.769	25515
695.811	24997
695.854	24445
695.886	24070
695.896	24273
695.938	24858
695.981	25252
696.005	25493
696.023	26251
696.065	28203
696.108	29957
696.125	30621
696.150	30975
696.192	31426
696.235	31718
696.245	31760
696.277	31675
696.319	31421
696.361	31099
696.365	31007
696.404	30761
696.446	30356
696.485	29931
696.488	30028
696.530	30119
696.572	30592
696.604	30661
696.614	30554
696.656	30051
696.698	29388
696.724	28852
696.740	29033
696.783	29373
696.825	29925
696.844	30019
696.867	30439
696.909	31081
696.951	31675
696.964	31808
696.992	31910
697.034	31950
697.076	32031
697.083	31965
697.118	33318
697.160	34811
697.202	36331
697.203	36284
697.244	35268
697.286	34162
697.323	33070
697.327	33183
697.369	33461
697.411	33795
697.442	33949
697.453	34074
697.494	34223
697.536	34300
697.562	34322
697.578	34495
697.620	34667
697.661	34857
697.682	34890
697.703	35643
697.744	36988
697.786	38295
697.801	38661
697.828	38448
697.869	37947
697.911	37503
697.921	37284
697.952	36840
697.994	36122
698.035	35489
698.040	35323
698.077	35918
698.118	36438
698.160	36983
698.160	36894
698.201	37927
698.243	38881
698.279	39689
698.284	39894
698.325	40840
698.367	41792
698.399	42416
698.408	42666
698.449	43341
698.491	43992
698.518	44323
698.532	44328
698.573	44026
698.614	43691
698.638	43397
698.656	43505
698.697	43500
698.738	43494
698.757	43384
698.779	43537
698.820	43616
698.862	43686
698.877	43608
698.903	43607
698.944	43421
698.985	43228
698.996	43068
699.026	43203
699.067	43237
699.116	43168
699.235	43199
699.354	42248
699.474	40384
699.593	39843
699.713	39699
699.832	40402
699.951	43060
700.070	40580
700.190	38678
700.309	37399
700.428	36949
700.547	36528
700.667	36480
700.786	35697
700.905	35065
701.024	35086
701.143	33649
701.262	37890
701.381	37606
701.500	37837
701.619	36096
701.738	37374
701.857	36489
701.976	33783
702.095	35485
702.214	37639
702.333	34498
702.452	37411
702.571	36582
702.690	36560
702.809	36053
702.928	34826
703.047	32288
703.165	32935
703.284	33018
703.403	32333
703.522	32184
703.640	31133
703.759	30353
703.878	30124
703.997	31451
704.115	31509
704.234	30621
704.353	32291
704.471	29295
704.590	29556
704.708	27848
704.827	28559
704.946	27024
705.064	28639
705.183	27758
705.301	29043
705.420	26525
705.538	26641
705.656	24841
705.775	26733
705.893	35635
706.012	36478
706.130	25582
706.249	27042
706.367	24767
706.485	25505
706.604	24545
706.722	26193
706.840	33844
706.958	56311
707.077	37729
707.195	24836
707.313	23820
707.431	21519
707.549	21681
707.668	21052
707.786	24204
707.904	22252
708.022	24483
708.140	22480
708.258	21545
708.376	23735
708.494	21051
708.612	23830
708.730	22412
708.848	22722
708.966	23810
709.084	23034
709.202	22434
709.320	20003
709.438	20646
709.556	20875
709.674	18657
709.791	19939
709.909	18138
710.027	19049
710.145	18746
710.263	18383
710.380	18414
710.498	18626
710.616	18504
710.733	16725
710.851	17034
710.969	18265
711.086	17190
711.204	19174
711.322	18344
711.439	18144
711.557	15497
711.674	17375
711.792	18325
711.909	17300
712.027	17665
712.144	16116
712.262	16663
712.379	17278
712.497	16514
712.614	16767
712.732	16010
712.849	15462
712.966	17058
713.084	17913
713.201	15560
713.318	16894
713.436	19007
713.553	16932
713.670	20068
713.787	19383
713.905	17840
714.022	19245
714.139	21856
714.256	26928
714.373	40692
714.490	78868
714.608	205625
714.725	700566
714.842	613022
714.959	93960
715.076	37761
715.193	27849
715.310	23689
715.427	18413
715.544	18756
715.661	17806
715.778	15875
715.895	15905
716.011	15453
716.128	15691
716.245	15559
716.362	14849
716.479	12457
716.596	14350
716.713	14180
716.829	13631
716.946	13168
717.063	12405
717.180	11550
717.296	12645
717.413	12409
717.530	11538
717.646	11562
717.763	11142
717.880	11446
717.996	11385
718.113	11498
718.229	12528
718.346	11045
718.462	11134
718.579	12370
718.695	10873
718.812	10749
718.928	11489
719.045	10467
719.161	11102
719.277	12416
719.394	13439
719.510	13573
719.626	14752
719.743	19086
719.859	31650
719.975	71159
720.092	273977
720.208	517224
720.324	77046
720.440	21835
720.557	15722
720.673	12909
720.789	12951
720.905	11007
721.021	11227
721.137	10239
721.253	9085
721.369	10154
721.486	10128
721.602	9333
721.718	9322
721.834	9094
721.950	9739
722.066	8868
722.181	8777
722.297	9650
722.413	9402
722.529	9636
722.645	9738
722.761	9567
722.877	10520
722.993	12193
723.108	16113
723.224	13644
723.340	9755
723.456	8722
723.571	8583
723.687	7349
723.803	8437
723.918	9178
724.034	7732
724.150	8759
724.265	9215
724.381	7685
724.497	7639
724.612	8379
724.728	8930
724.843	7514
724.959	7415
725.074	8334
725.190	8317
725.305	8284
725.421	8043
725.536	8802
725.651	8761
725.767	7969
725.882	8033
725.997	8118
726.113	8562
726.228	7177
726.343	7686
726.459	8400
726.574	7734
726.689	7011
726.804	8230
726.920	7756
727.035	7683
727.150	6995
727.265	7514
727.380	7394
727.495	7909
727.610	7897
727.725	7572
727.841	8764
727.956	12952
728.071	10336
728.186	8330
728.301	6381
728.416	8144
728.531	7550
728.645	6806
728.760	6925
728.875	7563
728.990	7309
729.105	6896
729.220	6952
729.335	7715
729.449	7221
729.564	7573
729.679	6490
729.794	8035
729.908	7684
730.023	7265
730.138	7704
730.253	8711
730.367	6818
730.482	8276
730.596	8377
730.711	11947
730.826	18190
730.940	21261
731.055	11477
731.169	11766
731.284	11618
731.398	12770
731.513	13128
731.627	15266
731.742	19984
731.856	26289
731.970	27214
732.085	35936
732.199	53828
732.313	98615
732.428	244698
732.542	579554
732.656	325524
732.771	82270
732.885	45244
732.999	37309
733.113	35309
733.227	33018
733.342	31517
733.456	30217
733.570	27181
733.684	26247
733.798	24608
733.912	26028
734.026	25177
734.140	25003
734.254	24391
734.368	23230
734.482	24173
734.596	24085
734.710	21908
734.824	22628
734.938	23035
735.052	23705
735.166	23156
735.280	22657
735.393	21175
735.507	21796
735.621	20994
735.735	19941
735.849	21517
735.962	19869
736.076	20834
736.190	20187
736.303	20622
736.417	20254
736.531	19233
736.644	19374
736.758	19908
736.872	18324
736.985	19593
737.099	18963
737.212	18419
737.326	18168
737.439	19383
737.553	17140
737.666	19185
737.780	16993
737.893	18731
738.007	17807
738.120	18514
738.233	17085
738.347	17330
738.460	17032
738.573	18756
738.687	16029
738.800	17666
738.913	19003
739.026	17337
739.140	17041
739.253	17429
739.366	16610
739.479	16630
739.592	17066
739.705	14568
739.818	18704
739.932	14247
740.045	16802
740.158	15492
740.271	16599
740.384	14504
740.497	13145
740.610	17098
740.723	13613
740.836	14684
740.949	14783
741.062	16962
741.174	14132
741.287	14709
741.400	15006
741.513	12169
741.626	14586
741.739	14345
741.851	13132
741.964	15248
742.077	13812
742.189	12261
742.302	15515
742.415	14112
742.527	14141
742.640	13627
742.753	11391
742.865	12763
742.978	12926
743.090	12060
743.203	12940
743.316	11712
743.428	11822
743.541	13148
743.653	10851
743.766	12721
743.878	13649
743.990	11416
744.103	15204
744.215	14332
744.327	11140
744.440	14071
744.552	11440
744.664	10278
744.777	13234
744.889	11047
745.001	10717
745.113	12629
745.226	10504
745.338	9999
745.450	12418
745.562	11050
745.674	9812
745.786	13165
745.898	11481
746.010	10557
746.122	11318
746.234	11688
746.347	11636
746.459	10702
746.570	9510
746.682	14426
746.794	18101
746.906	9710
747.018	10591
747.130	11603
747.242	9580
747.354	9598
747.466	11088
747.577	9660
747.689	10438
747.801	10805
747.913	9244
748.024	9453
748.136	8986
748.248	8782
748.359	9524
748.471	9976
748.583	8248
748.694	7710
748.806	10842
748.918	8775
749.029	8739
749.141	9753
749.252	9296
749.364	8441
749.475	8088
749.587	8169
749.698	7841
749.809	8306
749.921	8624
750.032	8063
750.144	8033
750.255	7694
750.366	8315
750.478	7782
750.589	8240
750.700	7875
750.811	9134
750.923	7021
751.034	7013
751.145	8725
751.256	6959
751.367	6742
751.479	7776
751.590	7702
751.701	7722
751.812	6833
751.923	6564
752.034	9300
752.145	8089
752.256	7377
752.367	7876
752.478	7815
752.589	8580
752.700	7863
752.811	7195
752.922	7342
753.032	7807
753.143	8071
753.254	7089
753.365	8706
753.476	8063
753.586	7734
753.697	7385
753.808	6900
753.919	7066
754.029	6820
754.140	6425
754.251	7208
754.361	7437
754.472	7201
754.582	6783
754.693	6998
754.804	7613
754.914	7021
755.025	5834
755.135	8008
755.246	7689
755.356	6911
755.466	6495
755.577	5581
755.687	6360
755.798	6370
755.908	5405
756.018	6030
756.129	7022
756.239	8420
756.349	6653
756.460	7734
756.570	8430
756.680	6473
756.790	7148
756.900	6751
757.011	5620
757.121	5812
757.231	5463
757.341	6549
757.451	5537
757.561	5700
757.671	7047
757.781	6704
757.891	6152
758.001	4573
758.111	6710
758.221	7732
758.331	8377
758.441	7219
758.551	7679
758.661	7734
758.771	8194
758.880	7517
758.990	6863
759.100	6589
759.210	7769
759.320	7374
759.429	7408
759.539	8515
759.649	8801
759.758	10824
759.868	11206
759.978	11356
760.087	12727
760.197	11546
760.307	11555
760.416	10615
760.526	8579
760.635	9885
760.745	11567
760.854	11652
760.964	14050
761.073	14108
761.182	13132
761.292	10845
761.401	9534
761.511	7348
761.620	7131
761.729	7110
761.839	5436
761.948	6917
762.057	5984
762.166	7189
762.276	5998
762.385	6540
762.494	5842
762.603	5571
762.712	5930
762.822	5551
762.931	5236
763.040	3941
763.149	5387
763.258	5386
763.367	4556
763.476	5284
763.585	5061
763.694	4900
763.803	4665
763.912	4465
764.021	4333
764.130	4329
764.238	5503
764.347	5015
764.456	5815
764.565	4774
764.674	4356
764.783	4349
764.891	4326
765.000	5018
765.109	4783
765.217	3040
765.326	5596
765.435	4714
765.543	4491
765.652	4185
765.761	4526
765.869	3642
765.978	3664
766.086	5081
766.195	5654
766.303	7203
766.412	18836
766.520	15199
766.629	3873
766.737	4391
766.846	4535
766.954	3264
767.062	4958
767.171	5603
767.279	5307
767.387	3883
767.496	4229
767.604	3551
767.712	3477
767.820	3764
767.928	3806
768.037	2924
768.145	4305
768.253	3886
768.361	4300
768.469	3018
768.577	3733
768.685	4520
768.793	4246
768.901	3810
769.009	4599
769.117	3368
769.225	3699
769.333	4986
769.441	4364
769.549	4771
769.657	5184
769.765	7546
769.873	15919
769.981	6321
770.088	4549
770.196	4866
770.304	5978
770.412	5560
770.519	5356
770.627	5769
770.735	5881
770.842	6782
770.950	6150
771.058	6665
771.165	9651
771.273	10514
771.380	9414
771.488	14917
771.595	16616
771.703	15130
771.810	14069
771.918	13677
772.025	17903
772.133	19761
772.240	19421
772.348	21680
772.455	21390
772.562	17520
772.670	18164
772.777	18778
772.884	18985
772.991	16300
773.099	18644
773.206	16751
773.313	17610
773.420	17313
773.528	16932
773.635	15443
773.742	18858
773.849	15493
773.956	17297
774.063	15013
774.170	17283
774.277	17332
774.384	15498
774.491	15731
774.598	16281
774.705	15294
774.812	16042
774.919	15514
775.026	15813
775.133	16145
775.239	15732
775.346	14105
775.453	15305
775.560	14053
775.667	15985
775.773	13704
775.880	15416
775.987	14868
776.093	15122
776.200	16432
776.307	11785
776.413	12804
776.520	16243
776.627	13770
776.733	12902
776.840	12017
776.946	18910
777.053	17931
777.159	21916
777.266	15616
777.372	21174
777.478	19444
777.585	14749
777.691	11485
777.798	14905
777.904	12570
778.010	13029
778.117	13514
778.223	12360
778.329	12318
778.435	10421
778.542	12917
778.648	11698
778.754	10267
778.860	11350
778.966	11818
779.072	11001
779.178	11671
779.284	9967
779.391	10076
779.497	11548
779.603	12173
779.708	9098
779.815	9013
779.920	11832
780.026	9366
780.132	11840
780.238	9582
780.344	9423
780.450	13626
780.556	8243
780.661	8612
780.767	12222
780.873	6838
780.979	9135
781.085	10901
781.190	9164
781.296	9603
781.402	10597
781.507	9506
781.613	8396
781.719	9516
781.824	11812
781.930	8689
782.035	9367
782.141	11042
782.246	7398
782.352	8757
782.457	9238
782.563	8761
782.668	9670
782.773	7631
782.879	6696
782.984	9006
783.090	9227
783.195	9236
783.300	10458
783.405	7550
783.511	5795
783.616	7889
783.721	8493
783.826	7671
783.932	7648
784.037	7684
784.142	8555
784.247	7226
784.352	8696
784.457	7299
784.562	8540
784.667	8063
784.772	6033
784.877	4852
784.982	8424
785.087	8368
785.192	6908
785.297	6361
785.402	7809
785.507	7015
785.611	7633
785.716	5272
785.821	7568
785.926	8016
786.031	6768
786.135	6883
786.240	7164
786.345	5830
786.450	6173
786.554	7151
786.659	6211
786.763	6049
786.868	7001
786.973	7518
787.077	5995
787.182	5039
787.286	6762
787.391	8072
787.495	4801
787.600	4136
787.704	5832
787.809	6312
787.913	5667
788.017	6010
788.122	7502
788.226	5532
788.330	4181
788.435	6218
788.539	8049
788.643	5367
788.747	3493
788.852	6060
788.956	6222
789.060	7107
789.164	6175
789.268	4912
789.372	6823
789.476	5993
789.580	3875
789.684	4440
789.788	7163
789.892	5717
789.996	4157
790.100	4072
790.204	5636
790.308	6545
790.412	5211
790.516	3978
790.620	5846
790.724	7399
790.828	5460
790.931	2307
791.035	6576
791.139	5064
791.242	4902
791.346	5509
791.450	5368
791.554	4465
791.657	3197
791.761	5467
791.864	6086
791.968	5460
792.072	4747
792.175	3781
792.279	4526
792.382	4624
792.486	3650
792.589	4641
792.693	5326
792.796	2659
792.899	4624
793.003	5669
793.106	4547
793.209	3990
793.313	4282
793.416	1645
793.519	4294
793.623	6514
793.726	5615
793.829	2332
793.932	2643
794.035	2736
794.138	5940
794.242	6346
794.345	3777
794.448	3338
794.551	2611
794.654	6322
794.757	5432
794.860	3634
794.963	4415
795.066	2910
795.169	4976
795.272	3694
795.375	6173
795.477	3077
795.580	4188
795.683	2129
795.786	5197
795.889	2783
795.991	4329
796.094	4145
796.197	2896
796.300	5466
796.402	5249
796.505	2462
796.608	2142
796.710	4381
796.813	4976
796.915	5176
797.018	4319
797.120	3908
797.223	2972
797.326	4815
797.428	2497
797.530	2188
797.633	3030
797.735	5828
797.838	3903
797.940	4551
798.042	3495
798.145	2284
798.247	4047
798.349	2157
798.452	4108
798.554	3432
798.656	4267
798.758	5995
798.860	3609
798.962	3761
799.065	3669
799.167	2395
799.269	4503
799.371	4371
799.473	6777
799.575	4171
799.677	3450
799.779	4243
799.881	1740
799.983	4798
800.085	2740
800.187	2566
800.289	1986
800.390	2078
800.492	4909
800.594	3787
800.696	2623
800.798	2102
800.899	2557
801.001	3318
801.103	3036
801.205	3195
801.306	3323
801.408	2885
801.509	4043
801.611	3073
801.713	3805
801.814	2141
801.916	1926
802.017	2327
802.119	2140
802.220	3447
802.322	2000
802.423	3643
802.525	1715
802.626	1753
802.727	3638
802.829	3546
802.930	1404
803.031	4194
803.133	2987
803.234	2720
803.335	3269
803.436	1845
803.538	2622
803.639	1730
803.740	3111
803.841	2197
803.942	3853
804.043	2723
804.144	2376
804.245	3073
804.346	2944
804.447	2416
804.548	3016
804.649	3480
804.750	1801
804.851	1532
804.952	3120
805.053	2286
805.154	1492
805.255	3457
805.355	1984
805.456	2453
805.557	2320
805.658	1589
805.758	3079
805.859	2126
805.960	2667
806.061	1802
806.161	1644
806.262	2121
806.362	2032
806.463	1797
806.564	3394
806.664	2459
806.765	1556
806.865	1565
806.966	1128
807.066	1395
807.166	2293
807.267	2414
807.367	2331
807.468	2350
807.568	359
807.668	2946
807.769	3116
807.869	1586
807.969	2111
808.069	1827
808.170	1963
808.270	1782
808.370	2413
808.470	2499
808.570	1673
808.670	864
808.770	1868
808.870	1162
808.970	3474
809.070	2202
809.170	1944
809.271	2410
809.370	2555
809.470	2351
809.570	1777
809.670	1072
809.770	2704
809.870	2346
809.970	2369
810.070	2016
810.169	3210
810.269	1314
810.369	2890
810.469	2148
810.568	1945
810.668	1821
810.768	1816
810.867	2946
810.967	1672
811.066	1582
811.166	2229
811.265	3165
811.365	1083
811.464	1713
811.564	1964
811.663	2254
811.763	1760
811.862	2650
811.962	2436
812.061	2078
812.160	1664
812.260	1865
812.359	2093
812.458	1426
812.557	2341
812.657	1783
812.756	2404
812.855	1928
812.954	1815
813.053	2420
813.153	2566
813.252	1163
813.351	2738
813.450	2552
813.549	2066
813.648	1583
813.747	1716
813.846	1786
813.945	2272
814.044	2941
814.143	2471
814.242	2681
814.341	1937
814.439	2454
814.538	3700
814.637	2549
814.736	3881
814.835	4161
814.933	2943
815.032	4560
815.131	6851
815.229	12525
815.328	17407
815.427	13167
815.525	10485
815.624	10859
815.722	10172
815.821	11890
815.919	11471
816.018	10315
816.116	11590
816.215	11446
816.313	12030
816.412	14318
816.510	14899
816.609	16702
816.707	17280
816.805	14499
816.904	14268
817.002	15832
817.100	16039
817.198	16040
817.296	14017
817.395	14879
817.493	15074
817.591	14585
817.689	13373
817.787	14905
817.885	12758
817.983	12194
818.081	13773
818.179	12280
818.277	16013
818.375	14506
818.473	13528
818.571	11197
818.669	13776
818.767	15607
818.865	11417
818.963	9369
819.061	12381
819.158	11545
819.256	13897
819.354	11379
819.452	13466
819.549	11873
819.647	13723
819.745	10513
819.842	11641
819.940	11524
820.038	11092
820.135	9532
820.233	11381
820.330	11333
820.428	9926
820.525	11970
820.623	10767
820.720	8941
820.818	11161
820.915	11540
821.012	10385
821.110	9382
821.207	11817
821.304	9463
821.402	11431
821.499	12995
821.596	11862
821.693	10519
821.791	10525
821.888	10502
821.985	10915
822.082	7770
822.179	11020
822.276	11456
822.373	7916
822.470	9076
822.567	9719
822.664	8452
822.761	8729
822.858	9750
822.955	8788
823.052	8040
823.149	9315
823.246	9800
823.343	7920
823.440	8045
823.536	10048
823.633	9339
823.730	7314
823.827	9829
823.923	8409
824.020	7751
824.117	11261
824.213	10828
824.310	7797
824.407	6210
824.503	9583
824.600	7683
824.696	7260
824.793	9513
824.889	8342
824.986	7708
825.082	5783
825.179	6874
825.275	9612
825.371	10099
825.468	7309
825.564	4481
825.660	9339
825.757	10648
825.853	7670
825.949	5936
826.045	6689
826.142	7278
826.238	8535
826.334	7460
826.430	7701
826.526	4046
826.622	4808
826.718	8405
826.814	9215
826.910	6615
827.006	3570
827.102	4351
827.198	8275
827.294	9051
827.390	8275
827.486	5503
827.582	3010
827.678	4360
827.774	9005
827.869	4164
827.965	6196
828.061	4696
828.157	8162
828.252	7401
828.348	6300
828.444	5348
828.539	5338
828.635	6778
828.731	6847
828.826	5519
828.922	6740
829.017	7790
829.113	7890
829.208	4445
829.304	6147
829.399	8574
829.495	7429
829.590	5813
829.685	5208
829.781	6822
829.876	7435
829.971	2857
830.066	2903
830.162	5660
830.257	9793
830.352	5554
830.447	4627
830.543	4729
830.638	5720
830.733	7715
830.828	5396
830.923	6416
831.018	6139
831.113	7152
831.208	4654
831.303	3182
831.398	3194
831.493	5605
831.588	10391
831.683	3449
831.778	4131
831.873	4114
831.967	7287
832.062	7248
832.157	4942
832.252	5146
832.346	5055
832.441	6392
832.536	4726
832.631	5381
832.725	4009
832.820	5215
832.914	5610
833.009	3435
833.104	2577
833.198	3757
833.293	4395
833.387	6874
833.482	4919
833.576	4328
833.670	5912
833.765	5052
833.859	6789
833.954	5576
834.048	5133
834.142	3080
834.237	3217
834.331	4884
834.425	5024
834.519	3395
834.613	4275
834.708	3367
834.802	4492
834.896	3824
834.990	4656
835.084	3067
835.178	2955
835.272	4428
835.366	5719
835.460	6052
835.554	4119
835.648	2894
835.742	3017
835.836	3038
835.930	3202
836.024	3557
836.117	4514
836.211	3642
836.305	2388
836.399	3166
836.493	3453
836.586	4363
836.680	4600
836.774	3470
836.867	3526
836.961	2352
837.055	2242
837.148	3106
837.242	4426
837.335	3897
837.429	2793
837.522	2122
837.616	2544
837.709	3186
837.803	3210
837.896	5310
837.989	4585
838.083	2041
838.176	1875
838.269	1023
838.363	3266
838.456	2451
838.549	3654
838.642	2950
838.735	2733
838.829	3406
838.922	3370
839.015	2625
839.108	1849
839.201	3141
839.294	4633
839.387	2338
839.480	2030
839.573	1757
839.666	1612
839.759	3210
839.852	2569
839.945	3801
840.038	2670
840.131	1338
840.223	1986
840.316	3101
840.409	2908
840.502	4361
840.594	3472
840.687	449
840.780	999
840.873	1071
840.965	1365
841.058	3259
841.150	3138
841.243	764
841.336	2487
841.428	1704
841.521	2352
841.613	2273
841.706	2093
841.798	2335
841.890	3699
841.983	932
842.075	2417
842.167	2042
842.260	2686
842.352	4006
842.444	2111
842.537	1182
842.629	968
842.721	1194
842.813	2457
842.905	1572
842.997	1681
843.090	2677
843.182	1852
843.274	1570
843.366	1907
843.458	2313
843.550	3643
843.642	2715
843.734	3110
843.826	1462
843.918	1045
844.009	2310
844.101	2721
844.193	2046
844.285	3115
844.377	3856
844.469	3628
844.560	2399
844.652	2829
844.744	1664
844.835	2014
844.927	2113
845.019	3432
845.110	1353
845.202	2827
845.293	1738
845.385	1131
845.476	1376
845.568	2186
845.659	1189
845.751	2654
845.842	1310
845.934	1923
846.025	1089
846.116	1864
846.208	1254
846.299	1862
846.390	840
846.482	1437
846.573	1733
846.664	3166
846.755	1197
846.846	2650
846.937	37
847.029	1163
847.120	1558
847.211	1847
847.302	3215
847.393	1769
847.484	1876
847.575	1325
847.666	609
847.757	795
847.847	2763
847.938	2321
848.029	1780
848.120	1531
848.211	1668
848.302	796
848.392	1047
848.483	1764
848.574	1998
848.664	2901
848.755	1653
848.846	1550
848.936	1764
849.027	2001
849.118	2439
849.208	2225
849.299	3383
849.389	6822
849.480	11024
849.570	21535
849.661	41185
849.751	63476
849.841	25393
849.932	5689
850.022	2416
850.112	3231
850.203	2222
850.293	1891
850.383	711
850.474	947
850.564	949
850.654	427
850.744	1378
850.834	2697
850.924	2576
851.014	3079
851.104	2190
851.194	1392
851.284	1861
851.374	1284
851.464	1180
851.554	1149
851.644	1298
851.734	2301
851.824	1781
851.914	2077
852.004	2253
852.094	1009
852.183	1324
852.273	2140
852.363	1825
852.452	2200
852.542	1773
852.632	793
852.721	2224
852.811	1805
852.901	3014
852.990	3156
853.080	2534
853.169	2533
853.259	3615
853.348	3505
853.438	3795
853.527	7083
853.617	7989
853.706	13594
853.795	23231
853.885	45720
853.974	77805
854.063	132315
854.152	164602
854.242	80002
854.331	27445
854.420	13389
854.509	9484
854.598	7555
854.687	6367
854.777	4329
854.866	2660
854.955	3477
855.044	3568
855.133	2888
855.222	2132
855.311	1672
855.400	1533
855.488	1683
855.577	1255
855.666	978
855.755	2407
855.844	2464
855.933	2414
856.021	2213
856.110	1847
856.199	1156
856.288	1139
856.376	1042
856.465	1801
856.554	2367
856.642	2031
856.731	2624
856.819	2036
856.908	1067
856.996	1268
857.085	1133
857.173	1142
857.262	119
857.350	1382
857.438	1414
857.527	1122
857.615	1138
857.703	2009
857.792	1002
857.880	89
857.968	479
858.056	878
858.145	1431
858.233	1455
858.321	888
858.409	1676
858.497	1141
858.585	778
858.673	1696
858.761	778
858.849	1835
858.937	745
859.025	1236
859.113	2220
859.201	1800
859.289	2820
859.377	1545
859.465	1042
859.552	1237
859.640	306
859.728	2011
859.816	1004
859.903	1953
859.991	517
860.079	1283
860.166	1031
860.254	1281
860.342	1410
860.429	1439
860.517	895
860.604	1201
860.692	1700
860.779	784
860.867	1608
860.954	1903
861.042	1652
861.129	1920
861.216	2135
861.304	1566
861.391	1727
861.478	1022
861.565	938
861.653	2108
861.740	1286
861.827	2050
861.914	1539
862.001	1226
862.089	1337
862.176	1509
862.263	1470
862.350	1349
862.437	1637
862.524	1440
862.611	1460
862.698	2218
862.785	2070
862.871	3596
862.958	3175
863.045	3087
863.132	2187
863.219	1327
863.306	1494
863.392	2358
863.479	771
863.566	1880
863.652	2349
863.739	2331
863.826	2278
863.912	2481
863.999	2078
864.086	1967
864.172	2601
864.259	3907
864.345	2507
864.432	3295
864.518	3258
864.604	2894
864.691	3337
864.777	4313
864.863	5764
864.950	7102
865.036	9362
865.122	18445
865.209	18880
865.295	16690
865.381	15213
865.467	14403
865.553	16428
865.639	17731
865.726	22543
865.812	35363
865.898	52864
865.984	73066
866.070	115165
866.156	112354
866.242	50317
866.328	25371
866.414	16842
866.499	15832
866.585	13889
866.671	13534
866.757	14135
866.843	13024
866.928	11442
867.014	12230
867.100	11739
867.186	12677
867.271	12101
867.357	11774
867.442	11235
867.528	12303
867.614	11117
867.699	12936
867.785	12878
867.870	12836
867.956	12413
868.041	11659
868.127	10558
868.212	12439
868.297	11533
868.383	11990
868.468	11157
868.553	11851
868.639	10256
868.724	11152
868.809	10435
868.894	10536
868.979	9160
869.065	10612
869.150	8948
869.235	10244
869.320	10047
869.405	9745
869.490	10550
869.575	9634
869.660	7540
869.745	10846
869.830	11138
869.915	9050
870.000	9883
870.085	9699
870.169	11535
870.254	11553
870.339	6575
870.424	7639
870.509	10113
870.593	11472
870.678	10193
870.763	9345
870.847	7989
870.932	10762
871.016	10061
871.101	7843
871.186	9178
871.270	11376
871.355	7287
871.439	7816
871.523	8852
871.608	7795
871.692	7141
871.777	10781
871.861	9502
871.945	7880
872.030	9102
872.114	8567
872.198	6699
872.282	6829
872.367	7695
872.451	7548
872.535	7173
872.619	7615
872.703	7360
872.787	8654
872.871	7879
872.955	6393
873.039	5681
873.123	8698
873.207	8851
873.291	4663
873.375	6289
873.459	9401
873.543	7358
873.627	6048
873.711	5822
873.794	9234
873.878	6292
873.962	6158
874.045	6362
874.129	7060
874.137	7065
874.213	7117
874.245	7095
874.296	7074
874.352	6339
874.380	5975
874.460	6487
874.464	6509
874.547	5977
874.568	6257
874.631	7095
874.676	7111
874.714	7107
874.784	7867
874.798	8017
874.881	5906
874.892	5761
874.965	4870
874.999	5879
875.048	7197
875.107	7343
875.131	7402
875.215	4697
875.215	4696
875.298	4880
875.323	5401
875.381	6669
875.430	7718
875.465	8376
875.538	6854
875.548	6650
875.631	4604
875.646	4513
875.714	4187
875.753	4721
875.798	5328
875.861	7083
875.881	7584
875.964	5510
875.968	5490
876.047	5405
876.076	5669
876.130	6110
876.183	5939
876.213	5857
876.291	6612
876.296	6651
876.379	5509
876.398	5291
876.462	4596
876.506	4410
876.545	4308
876.613	5340
876.628	5566
876.711	6021
876.721	6232
876.794	7825
876.828	7325
876.877	6404
876.935	4698
876.960	4127
877.043	5213
877.043	5215
877.125	5654
877.150	6146
877.208	7029
877.258	5861
877.291	5124
877.365	3445
877.374	3251
877.456	4708
877.472	4638
877.539	4528
877.579	5466
877.622	6321
877.687	5653
877.704	5484
877.787	5091
877.794	5171
877.869	6264
877.901	6015
877.952	5214
878.008	3790
878.034	3228
878.115	4219
878.117	4244
878.199	4752
878.222	4881
878.282	5376
878.329	5852
878.364	5946
878.437	6376
878.447	6425
878.529	4050
878.544	4043
878.611	4116
878.651	4452
878.694	5197
878.758	5787
878.776	5835
878.858	5768
878.865	5749
878.941	4885
878.972	4148
879.023	3476
879.078	4053
879.105	4383
879.185	5309
879.187	5327
879.269	4954
879.292	5188
879.351	5436
879.399	4934
879.433	4596
879.506	4356
879.516	4349
879.598	4493
879.613	4471
879.680	4292
879.720	4351
879.762	4616
879.827	4735
879.844	4668
879.926	4677
879.933	4661
880.007	4651
880.040	4182
880.089	3582
880.147	4274
880.171	4704
880.253	6082
880.254	6076
880.335	4268
880.360	4489
880.417	5545
880.467	5225
880.499	4997
880.574	5308
880.580	5347
880.662	5508
880.680	5333
880.744	3940
880.787	3657
880.825	3973
880.893	4130
880.907	4073
880.989	3845
881.000	3900
881.070	4818
881.106	5043
881.152	4742
881.213	3877
881.233	3691
881.315	3963
881.319	3977
881.396	4784
881.426	4824
881.478	4898
881.532	5857
881.559	6235
881.639	4979
881.641	4928
881.722	3860
881.745	3679
881.803	4452
881.852	4790
881.885	4494
881.958	3808
881.966	3823
882.047	4104
882.064	4152
882.129	4088
882.171	3816
882.210	3187
882.277	2556
882.291	2705
882.372	4238
882.383	4459
882.454	6083
882.489	6099
882.535	5312
882.596	5390
882.616	5572
882.697	5103
882.702	5091
882.778	3843
882.808	3396
882.859	3594
882.914	3995
882.940	4130
883.020	4903
883.021	4911
883.102	4866
883.127	4985
883.183	5480
883.233	5410
883.264	4787
883.339	3409
883.345	3324
883.426	2237
883.445	2213
883.507	3542
883.551	4289
883.587	4739
883.657	5683
883.668	5777
883.749	5913
883.763	5796
883.830	4121
883.869	3616
883.910	3298
883.975	3085
883.991	3363
884.072	4185
884.081	4282
884.152	5297
884.187	5921
884.233	6395
884.292	6296
884.314	5610
884.394	2731
884.398	2632
884.475	2201
884.504	1992
884.555	2543
884.610	3156
884.636	3457
884.716	4515
884.716	4531
884.797	6572
884.821	6847
884.877	5859
884.927	5102
884.958	4683
885.033	3620
885.038	3554
885.118	2904
885.139	2666
885.199	3166
885.244	3767
885.279	4130
885.350	4681
885.359	4848
885.439	6433
885.456	6510
885.520	5229
885.561	4771
885.600	4186
885.667	3527
885.680	3695
885.760	4251
885.773	4335
885.840	3675
885.878	3366
885.920	3530
885.984	3730
886.000	3865
886.080	4648
886.089	4709
886.160	5087
886.195	5225
886.240	4997
886.300	4588
886.320	4475
886.400	4343
886.406	4302
886.480	3450
886.511	3253
886.560	3589
886.616	3767
886.640	3671
886.720	3539
886.722	3528
886.800	3792
886.827	4012
886.879	4458
886.932	4520
886.959	4688
887.038	5431
887.039	5435
887.119	4896
887.143	4707
887.198	4472
887.248	4299
887.278	4360
887.354	4506
887.358	4503
887.437	4190
887.459	4125
887.517	4831
887.564	5258
887.596	4620
887.669	3329
887.676	3276
887.755	2489
887.774	2309
887.835	2960
887.880	3569
887.914	3944
887.985	4400
887.994	4550
888.073	5998
888.090	6253
888.153	6727
888.195	7030
888.232	5936
888.300	3924
888.311	3867
888.391	3421
888.405	3343
888.470	3042
888.510	2822
888.549	2976
888.615	3357
888.628	3569
888.708	4681
888.720	4850
888.787	4927
888.825	4927
888.866	3875
888.930	2324
888.945	2644
889.024	4362
889.035	4571
889.103	4769
889.140	4864
889.182	4552
889.245	4174
889.261	4313
889.340	4876
889.349	4935
889.419	4306
889.454	3979
889.498	3713
889.559	3374
889.577	3809
889.656	5689
889.664	5869
889.735	4714
889.768	4149
889.814	4416
889.873	4749
889.978	3738
890.083	4042
890.187	3838
890.292	4732
890.397	3526
890.501	3731
890.606	3176
890.710	4021
890.815	6036
890.919	4558
891.024	3181
891.128	3836
891.233	3143
891.337	5905
891.442	4398
891.546	4468
891.650	3062
891.755	3661
891.859	5352
891.963	5603
892.068	4315
892.172	3251
892.276	1935
892.380	3424
892.484	5187
892.589	5977
892.693	4066
892.797	2896
892.901	3264
893.005	3066
893.109	5551
893.213	5811
893.317	4180
893.421	3201
893.525	2455
893.629	3143
893.733	5356
893.837	3748
893.941	3141
894.045	2926
894.148	2040
894.252	3554
894.356	5148
894.460	6014
894.564	3672
894.667	3044
894.771	2960
894.875	1679
894.978	3754
895.082	4124
895.186	4727
895.289	3651
895.393	1949
895.496	4978
895.600	3374
895.703	2087
895.807	3172
895.910	4384
896.014	3749
896.117	3046
896.221	3938
896.324	4041
896.427	2020
896.531	2652
896.634	2736
896.737	4605
896.840	3674
896.944	4455
897.047	4286
897.150	4012
897.253	2444
897.356	2435
897.460	1914
897.563	2190
897.666	3375
897.769	4000
897.872	2659
897.975	1923
898.078	2892
898.181	2021
898.284	2730
898.387	4711
898.490	4872
898.593	3011
898.695	3290
898.798	2997
898.901	2583
899.004	3556
899.107	2512
899.209	3410
899.312	5463
899.415	2815
899.518	1493
899.620	2048
899.723	1732
899.826	2523
899.928	2568
900.031	2661
900.133	4727
900.236	3221
900.338	2402
900.441	2041
900.543	2927
900.646	3184
900.748	2621
900.851	4056
900.953	3095
901.055	2204
901.158	2428
901.260	2259
901.362	1769
901.465	2234
901.567	3543
901.669	4310
901.771	2495
901.873	2880
901.976	2299
902.078	2959
902.180	2270
902.282	2108
902.384	3164
902.486	4548
902.588	3691
902.690	2373
902.792	2200
902.894	2705
902.996	3242
903.098	3042
903.200	2243
903.302	2376
903.404	2352
903.505	2019
903.607	2285
903.709	4351
903.811	4714
903.913	2634
904.014	1201
904.116	1858
904.218	1679
904.319	2593
904.421	6024
904.523	5608
904.624	3083
904.726	3043
904.827	1845
904.929	3254
905.030	2402
905.132	4539
905.233	3615
905.335	2455
905.436	1426
905.537	2211
905.639	1698
905.740	3163
905.841	4607
905.943	3422
906.044	4015
906.145	2360
906.247	1998
906.348	1977
906.449	3071
906.550	2849
906.651	2200
906.752	2230
906.854	1820
906.955	1916
907.056	2657
907.157	3318
907.258	3573
907.359	1893
907.460	1139
907.561	1566
907.662	1931
907.762	3093
907.863	3087
907.964	3762
908.065	2388
908.166	1955
908.267	2322
908.367	1540
908.468	2018
908.569	2931
908.670	3437
908.770	2834
908.871	2881
908.971	2876
909.072	1907
909.173	1861
909.273	2935
909.374	2007
909.474	2317
909.575	1703
909.675	1419
909.776	3792
909.876	2132
909.977	2309
910.077	2101
910.177	3464
910.278	3087
910.378	1531
910.478	1796
910.579	3135
910.679	2823
910.779	2516
910.879	3301
910.980	3165
911.080	2876
911.180	1366
911.280	1747
911.380	1975
911.480	1923
911.580	2711
911.680	2630
911.780	2791
911.880	2916
911.980	1840
912.080	1685
912.180	2799
912.280	2129
912.380	1713
912.480	1798
912.580	2281
912.679	2514
912.779	3853
912.879	2804
912.979	2233
913.078	1482
913.178	2023
913.278	906
913.377	2018
913.477	1560
913.577	2438
913.676	3163
913.776	3313
913.875	2585
913.975	2821
914.074	2899
914.174	3569
914.273	1478
914.373	3600
914.472	2675
914.572	1313
914.671	1993
914.770	1777
914.870	1849
914.969	1786
915.068	3049
915.167	3528
915.267	2597
915.366	2846
915.465	2953
915.564	2941
915.663	2741
915.763	2655
915.862	3069
915.961	3240
916.060	2095
916.159	2369
916.258	1484
916.357	2145
916.456	2595
916.555	3244
916.654	2586
916.752	3700
916.851	2947
916.950	2525
917.049	2422
917.148	2230
917.247	2070
917.345	2128
917.444	2225
917.543	2902
917.642	2627
917.740	3115
917.839	5197
917.937	5625
918.036	3844
918.135	2212
918.233	2330
918.332	2779
918.430	1862
918.529	2395
918.627	2358
918.726	3937
918.824	3167
918.923	2626
919.021	2595
919.119	2144
919.218	2058
919.316	3334
919.414	2569
919.512	4377
919.611	4031
919.709	3873
919.807	4141
919.905	4711
920.003	4393
920.102	4999
920.200	4919
920.298	4286
920.396	4259
920.494	4530
920.592	4442
920.690	4554
920.788	4051
920.886	3440
920.984	4062
921.082	4995
921.180	5858
921.277	5928
921.375	6292
921.473	7928
921.571	8475
921.669	7244
921.766	7151
921.864	8231
921.962	7812
922.060	7423
922.157	7986
922.255	7713
922.352	8070
922.450	7574
922.548	8482
922.645	9416
922.743	13154
922.840	21022
922.938	23475
923.035	19545
923.133	19598
923.230	23003
923.327	26754
923.425	24541
923.522	24633
923.619	22721
923.717	20019
923.814	19951
923.911	19671
924.008	20565
924.106	17704
924.203	19181
924.300	20031
924.397	19402
924.494	20435
924.591	20449
924.688	18297
924.786	19833
924.883	19036
924.979	19199
925.077	18407
925.173	17940
925.270	18144
925.367	18055
925.464	19129
925.561	19610
925.658	20172
925.755	16572
925.852	19962
925.948	18243
926.045	20230
926.142	21253
926.239	19799
926.335	16691
926.432	19280
926.529	20289
926.625	22536
926.722	17107
926.818	16947
926.915	19709
927.011	17141
927.108	17365
927.204	16834
927.301	16115
927.397	18729
927.494	19553
927.590	13899
927.687	15043
927.783	20185
927.879	19318
927.976	15624
928.072	14166
928.168	17550
928.264	17758
928.361	15876
928.457	18884
928.553	15047
928.649	15871
928.745	16069
928.841	14520
928.937	15894
929.033	15820
929.129	15270
929.225	18283
929.321	14309
929.417	13633
929.513	17588
929.609	14094
929.705	14860
929.801	16405
929.897	13196
929.993	13310
930.089	14725
930.184	12540
930.280	14800
930.376	18429
930.471	13892
930.567	12279
930.663	13939
930.758	13184
930.854	13609
930.950	13034
931.045	11751
931.141	12996
931.236	17182
931.332	13546
931.427	10657
931.523	16674
931.618	14279
931.714	9790
931.809	11821
931.905	15778
932.000	9598
932.095	9683
932.191	14976
932.286	18083
932.381	13956
932.476	11137
932.572	12102
932.667	11088
932.762	11390
932.857	12831
932.952	14918
933.047	12846
933.142	9185
933.237	13288
933.332	13300
933.427	14188
933.522	11867
933.617	10053
933.712	10501
933.807	14554
933.902	16573
933.997	14882
934.092	10122
934.187	11073
934.282	13184
934.376	12564
934.471	12755
934.566	9700
934.661	10845
934.755	12639
934.850	13401
934.945	10734
935.039	9058
935.134	8477
935.228	11834
935.323	17117
935.417	10834
935.512	7632
935.606	8985
935.701	11506
935.795	13375
935.890	11414
935.984	9542
936.079	7694
936.173	10926
936.267	9601
936.362	8840
936.456	11595
936.550	13562
936.644	11163
936.738	8109
936.833	8147
936.927	6983
937.021	10072
937.115	10167
937.209	11205
937.303	9928
937.397	7690
937.491	10003
937.585	12049
937.679	10272
937.773	7999
937.867	7321
937.961	7688
938.055	12956
938.149	10536
938.243	6442
938.337	7248
938.430	9426
938.524	13642
938.618	11785
938.712	8336
938.805	9320
938.899	11540
938.993	13280
939.086	9500
939.180	9344
939.274	11107
939.367	11208
939.461	10930
939.554	7442
939.648	7714
939.741	7488
939.835	8985
939.928	11480
940.022	9703
940.115	8421
940.208	9810
940.302	10922
940.395	12261
940.488	7410
940.582	7581
940.675	6389
940.768	7111
940.861	9862
940.954	10566
941.048	5902
941.141	5477
941.234	6378
941.327	7778
941.420	9294
941.513	9765
941.606	6617
941.699	6301
941.792	9810
941.885	7304
941.978	8320
942.071	8632
942.164	5104
942.257	4717
942.349	7123
942.442	8199
942.535	5804
942.628	5444
942.721	6854
942.813	7234
942.906	7873
942.999	6578
943.091	5531
943.184	6970
943.277	6696
943.369	5265
943.462	3941
943.554	6692
943.647	6961
943.739	9396
943.832	9047
943.924	3552
944.017	4655
944.109	4109
944.201	5526
944.294	6126
944.386	7075
944.478	5792
944.571	5625
944.663	5294
944.755	6757
944.847	7737
944.940	6307
945.032	3519
945.124	4405
945.216	6254
945.308	6088
945.400	7069
945.492	5797
945.584	7907
945.676	8380
945.768	7200
945.860	7631
945.952	9094
946.044	7009
946.136	5323
946.228	5092
946.320	5900
946.412	6952
946.503	7655
946.595	8283
946.687	4176
946.779	3929
946.870	4613
946.962	4545
947.054	5407
947.145	6944
947.237	5202
947.329	5525
947.420	6841
947.512	6063
947.603	3544
947.695	3975
947.786	4544
947.878	5412
947.969	5627
948.061	7135
948.152	6179
948.243	3046
948.335	3734
948.426	3745
948.517	5408
948.609	6661
948.700	5991
948.791	5070
948.882	2677
948.973	3607
949.065	5505
949.156	5691
949.247	3858
949.338	3950
949.429	3536
949.520	3845
949.611	5090
949.702	6310
949.793	4890
949.884	4826
949.975	4547
950.066	2487
950.157	3194
950.247	4041
950.338	3334
950.429	3610
950.520	4695
950.611	2921
950.701	4545
950.792	5958
950.883	5639
950.973	3736
951.064	5466
951.155	4910
951.245	5292
951.336	5559
951.427	6698
951.517	6907
951.608	5311
951.698	4218
951.788	2898
951.879	2942
951.969	2648
952.060	3741
952.150	4731
952.240	6410
952.331	4860
952.421	6470
952.511	3031
952.602	2485
952.692	2694
952.782	2497
952.872	3427
952.962	5207
953.052	4063
953.143	2745
953.233	3843
953.323	4011
953.413	4671
953.503	5727
953.593	4349
953.683	4066
953.773	2806
953.863	2903
953.953	2017
954.042	4395
954.132	3956
954.222	4626
954.312	2978
954.402	3327
954.492	3090
954.581	3633
954.671	3887
954.761	3564
954.850	5231
954.940	1433
955.030	2879
955.119	2670
955.209	3473
955.298	3324
955.388	4141
955.477	5574
955.567	2121
955.656	3269
955.746	3600
955.835	2742
955.925	3076
956.014	3663
956.103	6070
956.193	6127
956.282	5032
956.371	3997
956.461	3289
956.550	3065
956.639	3853
956.728	3474
956.817	3361
956.906	2920
956.995	4712
957.085	2721
957.174	3893
957.263	2367
957.352	3604
957.441	3227
957.530	2934
957.619	2838
957.708	2899
957.796	2353
957.885	3012
957.974	3779
958.063	3345
958.152	1705
958.241	2126
958.329	2469
958.418	3147
958.507	3089
958.596	4549
958.684	2403
958.773	3621
958.861	1939
958.950	2205
959.039	2418
959.127	1622
959.216	3595
959.304	2354
959.393	2970
959.481	3690
959.570	2522
959.658	1553
959.746	2055
959.835	2909
959.923	1956
960.011	2651
960.100	3031
960.188	3464
960.276	2926
960.365	2325
960.453	1361
960.541	1543
960.629	2608
960.717	2021
960.805	644
960.893	1831
960.981	2521
961.069	5630
961.158	5154
961.245	5779
961.333	4404
961.421	2758
961.509	2886
961.597	3876
961.685	2073
961.773	2620
961.861	3115
961.949	4475
962.036	2418
962.124	3083
962.212	2315
962.299	2541
962.387	1671
962.475	2142
962.562	1283
962.650	3911
962.738	2417
962.825	2020
962.913	2102
963.000	2473
963.088	3949
963.175	2953
963.263	1560
963.350	2113
963.438	2483
963.525	2409
963.612	2745
963.700	1655
963.787	3603
963.874	1865
963.962	1904
964.049	1321
964.136	1844
964.223	1888
964.310	1140
964.398	1990
964.485	1884
964.572	2517
964.659	2639
964.746	1738
964.833	1721
964.920	2559
965.007	2183
965.094	2664
965.181	2673
965.268	2869
965.355	2680
965.441	2066
965.528	2158
965.615	3831
965.702	2378
965.789	1995
965.875	2833
965.962	3213
966.049	2437
966.136	2791
966.222	3047
966.309	4101
966.395	2648
966.482	3190
966.569	2655
966.655	4053
966.742	3020
966.828	2229
966.915	1255
967.001	2160
967.087	326
967.174	1873
967.260	1032
967.347	2890
967.433	2135
967.519	2250
967.605	2500
967.692	2938
967.778	2492
967.864	2376
967.950	2136
968.036	1881
968.123	2618
968.209	1715
968.295	563
968.381	2910
968.467	2156
968.553	1046
968.639	2232
968.725	1525
968.811	3024
968.897	3771
968.983	2007
969.069	1571
969.154	2088
969.240	1693
969.326	1016
969.412	1745
969.497	1528
969.583	1456
969.669	4010
969.755	2267
969.840	2170
969.926	4760
970.012	5510
970.097	6066
970.183	4370
970.268	4467
970.354	2909
970.439	1890
970.525	2558
970.610	1016
970.696	2972
970.781	1854
970.866	1474
970.952	3002
971.037	1323
971.122	3033
971.208	2933
971.293	1798
971.378	1027
971.463	2337
971.549	1313
971.634	988
971.719	2292
971.804	2499
971.889	2595
971.974	1889
972.059	2338
972.144	2268
972.229	2491
972.314	2087
972.399	1685
972.484	742
972.569	1972
972.654	1665
972.739	1746
972.824	2103
972.908	2197
972.993	2466
973.078	1581
973.163	1968
973.247	2242
973.332	823
973.417	2809
973.501	1460
973.586	2601
973.671	2609
973.755	1443
973.840	2358
973.924	4115
974.009	3848
974.093	3702
974.178	4670
974.262	2623
974.346	2262
974.431	2803
974.515	1731
974.600	2468
974.684	1966
974.768	2222
974.852	3929
974.937	1430
975.021	2918
975.105	2576
975.189	1521
975.273	2015
975.358	1541
975.442	1134
975.526	1973
975.610	1735
975.694	1262
975.778	3110
975.862	1738
975.946	344
976.030	3756
976.114	1869
976.198	2677
976.281	1693
976.365	3375
976.449	2216
976.533	2100
976.617	939
976.700	1498
976.784	1816
976.868	1157
976.951	1867
977.035	2158
977.119	2193
977.202	2132
977.286	3391
977.369	3735
977.453	7122
977.536	4463
977.620	4459
977.703	4124
977.787	2938
977.870	4125
977.953	3719
978.037	1576
978.120	2427
978.203	3033
978.287	2599
978.370	2554
978.453	2234
978.536	2089
978.620	2224
978.703	3043
978.786	1709
978.869	1793
978.952	2050
979.035	3946
979.118	3143
979.201	2035
979.284	2826
979.367	2587
979.450	3008
979.533	2139
979.616	2023
979.699	2459
979.782	3011
979.865	2491
979.948	2182
980.030	1655
980.113	2029
980.196	1988
980.279	2529
980.361	2731
980.444	1992
980.526	4286
980.609	4722
980.692	6700
980.774	5527
980.857	2760
980.939	4812
981.022	2706
981.104	2332
981.187	2647
981.269	2877
981.352	4244
981.434	2534
981.516	3372
981.599	3184
981.681	3227
981.763	3463
981.846	3071
981.928	3632
982.010	2593
982.092	1782
982.174	3659
982.256	2188
982.339	2214
982.421	3027
982.503	2481
982.585	2137
982.667	2691
982.749	2930
982.831	2934
982.913	2426
982.995	2802
983.077	2547
983.158	4811
983.240	2851
983.322	4658
983.404	6968
983.486	6234
983.568	5423
983.649	4354
983.731	4355
983.813	4665
983.894	4633
983.976	3998
984.058	3701
984.139	5117
984.221	2816
984.302	4760
984.384	4053
984.465	3473
984.547	4227
984.628	3148
984.710	5291
984.791	3999
984.872	4447
984.954	2974
985.035	5259
985.116	3160
985.198	3543
985.279	4718
985.360	3645
985.441	3591
985.522	3821
985.604	4517
985.685	2285
985.766	4826
985.847	5146
985.928	4309
986.009	3776
986.090	3712
986.171	4336
986.252	4108
986.333	4161
986.414	3978
986.495	4312
986.576	4715
986.656	5197
986.737	5764
986.818	4752
986.899	4536
986.980	3403
987.060	5570
987.141	5335
987.222	5783
987.302	6097
987.383	7875
987.464	7248
987.544	6254
987.625	5787
987.705	7079
987.786	6704
987.866	6557
987.947	6413
988.027	5817
988.108	5245
988.188	6147
988.268	4854
988.349	5455
988.429	6415
988.509	4811
988.589	5387
988.670	4284
988.750	5763
988.830	3641
988.910	5073
988.990	4583
989.070	4823
989.151	4533
989.231	4983
989.311	5066
989.391	3654
989.471	5316
989.551	4476
989.631	3673
989.711	5032
989.791	3488
989.870	3756
989.950	4773
990.030	4417
990.110	4457
990.190	3042
990.269	3890
990.349	3878
990.429	4714
990.509	3908
990.588	2925
990.668	4643
990.747	4881
990.827	2748
990.907	3873
990.986	4356
991.066	4530
991.145	2575
991.225	4286
991.304	3884
991.383	4570
991.463	4292
991.542	4657
991.622	3057
991.701	3892
991.780	3741
991.859	3154
991.939	3809
992.018	4056
992.097	4399
992.176	3221
992.256	3986
992.335	3340
992.414	3913
992.493	2882
992.572	2527
992.651	3921
992.730	3637
992.809	3173
992.888	3344
992.967	3659
993.046	3904
993.125	2840
993.203	3298
993.282	3274
993.361	3095
993.440	2583
993.519	1304
993.597	2754
993.676	2363
993.755	4064
993.834	3113
993.912	1437
993.991	3052
994.069	2954
994.148	3118
994.226	2495
994.305	2405
994.384	3549
994.462	3797
994.540	1527
994.619	2043
994.697	2869
994.776	2857
994.854	3165
994.932	2819
995.011	2407
995.089	2143
995.167	2712
995.245	2630
995.324	3168
995.402	1890
995.480	2511
995.558	1673
995.636	1537
995.714	1360
995.792	3538
995.870	1265
995.948	1060
996.026	2439
996.104	1210
996.182	2738
996.260	1589
996.338	2122
996.416	1031
996.494	2330
996.572	2909
996.649	1678
996.727	1369
996.805	992
996.883	2020
996.960	1529
997.038	2278
997.116	2426
997.193	1160
997.271	1667
997.348	462
997.426	2161
997.504	1666
997.581	2806
997.658	1801
997.736	-433
997.813	298
997.891	2866
997.968	1197
998.046	1660
998.123	1436
998.200	1973
998.277	1412
998.355	1759
998.432	68
998.509	177
998.586	2823
998.663	1306
998.741	1011
998.818	1552
998.895	1200
998.972	2827
999.049	2535
999.126	933
999.203	1810
999.280	1618
999.357	955
999.434	673
999.511	819
999.587	861
999.664	-469
999.741	974
999.818	1793
999.895	1446
999.971	399
1000.048	659
1000.125	1896
1000.202	-169
1000.278	1699
1000.355	1180
1000.431	693
1000.508	-261
1000.584	-27
1000.661	318
1000.738	140
1000.814	543
1000.890	1408
1000.967	151
1001.043	673
1001.120	303
1001.196	1216
1001.272	258
1001.349	15
1001.425	-133
1001.501	299
1001.577	129
1001.654	1058
1001.730	-266
1001.806	1447
1001.882	34
1001.958	1045
1002.034	590
1002.110	721
1002.186	-226
1002.262	406
1002.338	467
1002.414	1100
1002.490	1164
1002.566	521
1002.642	-807
1002.718	1355
1002.794	671
1002.870	348
1002.945	15
1003.021	-405
1003.097	-103
1003.173	1358
1003.248	-178
1003.324	1022
1003.400	649
1003.475	-983
1003.551	388
1003.626	428
1003.702	83
1003.777	504
1003.853	-767
1003.928	-679
1004.004	-262
1004.079	-119
1004.155	768
1004.230	353
1004.305	911
1004.381	-504
1004.456	-492
1004.531	82
1004.607	188
1004.682	15
1004.757	501
1004.832	-112
1004.907	-323
1004.982	148
1005.057	409
1005.133	110
1005.208	78
1005.283	-584
1005.358	404
1005.433	-1421
1005.508	657
1005.583	-513
1005.657	-34
1005.732	905
1005.807	-599
1005.882	-502
1005.957	-408
1006.032	737
1006.106	-599
1006.181	248
1006.256	362
1006.331	-680
1006.405	-533
1006.480	-687
1006.554	-678
1006.629	180
1006.704	-235
1006.778	-114
1006.853	10
1006.927	-82
1007.002	-772
1007.076	186
1007.150	-171
1007.225	-324
1007.299	-41
1007.373	-599
1007.448	-808
1007.522	-69
1007.596	-135
1007.671	-75
1007.745	813
1007.819	-131
1007.893	-345
1007.967	118
1008.041	-1545
1008.115	-26
1008.190	-1014
1008.264	254
1008.338	-978
1008.412	-815
1008.486	10
1008.560	-530
1008.633	-338
1008.707	-65
1008.781	549
1008.855	-141
1008.929	-519
1009.003	-1171
1009.076	-650
1009.150	-959
1009.224	-1070
1009.298	-836
1009.371	-1664
1009.445	-331
1009.519	-120
1009.592	-1150
1009.666	-586
1009.739	-958
1009.813	-1450
1009.886	190
1009.960	-1282
1010.033	266
1010.107	326
1010.180	-1039
1010.253	-173
1010.327	-1946
1010.400	-823
1010.473	-964
1010.547	508
1010.620	-347
1010.693	-1147
1010.766	187
1010.840	-365
1010.913	-561
1010.986	-1035
1011.059	-828
1011.132	-688
1011.205	-125
1011.278	-645
1011.351	-475
1011.424	-564
1011.497	-613
1011.570	-820
1011.643	-251
1011.716	-704
1011.789	-1424
1011.862	-597
1011.934	-669
1012.007	-1354
1012.080	-532
1012.153	-778
1012.225	251
1012.298	-1309
1012.371	-1270
1012.443	-252
1012.516	-1171
1012.588	-332
1012.661	-530
1012.733	-1063
1012.806	259
1012.879	-681
1012.951	-560
1013.023	-1243
1013.096	-467
1013.168	-1243
1013.241	-926
1013.313	-1203
1013.385	-1595
1013.458	-610
1013.530	-1018
1013.602	-1764
1013.674	-654
1013.746	-1353
1013.819	-1702
1013.891	-337
1013.963	-1207
1014.035	143
1014.107	-723
1014.179	-310
1014.251	-1721
1014.323	-658
1014.395	-686
1014.467	-1745
1014.539	602
1014.611	-1490
1014.683	-821
1014.754	-573
1014.826	-962
1014.898	-750
1014.970	-1505
1015.042	-500
1015.113	-464
1015.185	-223
1015.257	-2609
1015.328	-575
1015.400	-1217
1015.471	-1069
1015.543	-1621
1015.615	-365
1015.686	-443
1015.757	-1449
1015.829	-567
1015.901	-1207
1015.972	-907
1016.043	-1760
1016.115	-1205
1016.186	-314
1016.257	-2121
1016.328	-861
1016.400	-11
1016.471	-1833
1016.542	-907
1016.613	-980
1016.685	-1149
1016.756	68
1016.827	-1392
1016.898	-2031
1016.969	-551
1017.040	-1504
1017.111	-1281
1017.182	-1294
1017.253	-1659
1017.324	-1128
1017.395	-1331
1017.466	-1594
1017.537	-1783
1017.608	-1057
1017.678	-1291
1017.749	-989
1017.820	-1658
1017.891	-2932
1017.961	-748
1018.032	-1376
1018.103	-975
1018.173	-599
1018.244	-1357
1018.315	-1925
1018.385	-1825
1018.456	-1116
1018.526	-902
1018.597	-670
1018.667	-943
1018.738	-1913
1018.808	-1578
1018.878	-1205
1018.949	-1640
1019.019	-787
1019.089	-852
1019.160	-1290
1019.230	-1880
1019.300	-1314
1019.371	-1734
1019.441	-1501
1019.511	-572
1019.581	-1338
1019.651	-1580
1019.721	-2409
1019.791	-1472
1019.861	-1586
1019.931	-855
1020.001	-1699
1020.071	-1906
1020.141	-1717
1020.211	-1076
1020.281	-2215
1020.351	-1809
1020.421	-1094
1020.491	-1588
1020.560	-1183
1020.630	-1144
1020.700	-1434
1020.770	-2028
1020.839	-1350
1020.909	-1135
1020.979	-2369
1021.048	-1715
1021.118	-1154
1021.187	-2080
1021.257	-1411
1021.326	-949
1021.396	-1250
1021.465	-1157
1021.535	-1765
1021.604	-995
1021.674	-838
1021.743	-1396
1021.812	-1859
1021.882	-923
1021.951	-1338
1022.020	-1440
1022.089	-898
1022.159	-1453
1022.228	-1198
1022.297	-1596
1022.366	-1464
1022.435	-1934
1022.504	-1637
1022.573	-1986
1022.642	-999
1022.711	-1554
1022.781	-2406
1022.849	-1930
1022.918	-2510
1022.987	-1415
1023.056	-2224
1023.125	-1646
1023.194	-1531
1023.263	-552
1023.331	-1384
1023.400	-1684
1023.469	-1732
1023.538	-1086
1023.606	-2451
1023.675	-1328
1023.744	-1900
1023.812	-2179
1023.881	-1525
1023.949	-1363
1024.018	-1431
1024.086	-1827
1024.155	-1387
1024.223	-1486
1024.292	-1398
1024.360	-1148
1024.429	-1080
1024.497	-2266
1024.565	-1550
1024.634	-1673
1024.702	-1398
1024.770	-1801
1024.838	-1104
1024.907	-762
1024.975	-1714
1025.043	-1373
1025.111	-1279
1025.179	-2067
1025.247	-1984
1025.315	-1475
1025.383	-1633
1025.451	-712
1025.519	-2678
1025.587	-1819
1025.655	-1696
1025.723	-2932
1025.791	-2361
1025.859	-1352
1025.927	-1572
1025.995	-1157
1026.062	-1492
1026.130	-2060
1026.198	-1026
1026.266	-1426
1026.333	-427
1026.401	-853
1026.469	-1543
1026.536	-1812
1026.604	-1699
1026.671	-2510
1026.739	-1773
1026.806	-1203
1026.874	-1880
1026.941	-1569
1027.009	-1819
1027.076	-2309
1027.144	-1058
1027.211	-2103
1027.278	-1734
1027.345	-1745
1027.413	-2050
1027.480	-1677
1027.547	-882
1027.614	-1653
1027.682	-1699
1027.749	-2075
1027.816	-1979
1027.883	-1286
1027.950	-2093
1028.017	-1718
1028.084	-644
1028.151	-2296
1028.218	-1547
1028.285	-1077
1028.352	-2072
1028.419	-1385
1028.486	-1962
1028.553	-1102
1028.619	-1643
1028.686	-1399
1028.753	-1769
1028.820	-2164
1028.886	-2243
1028.953	-884
1029.020	-1803
1029.086	-2488
1029.153	-2650
1029.220	-2196
1029.286	-1192
1029.353	-1854
1029.419	-796
1029.486	-1942
1029.552	-1868
1029.619	-2026
1029.685	-2089
1029.751	-1576
1029.818	-1476
1029.884	-2199
1029.951	-549
1030.017	-1851
1030.083	-1892
1030.149	-1070
1030.216	-1773
1030.282	-2140
1030.348	-2926
1030.414	-2542
1030.480	-1273
1030.546	-2032
1030.612	-1518
1030.678	-1826
1030.744	-1782
1030.810	-993
1030.876	-1448
1030.942	-2309
1031.008	-1666
1031.074	-1485
1031.140	-1923
1031.206	-1669
1031.272	-2718
1031.337	-2231
1031.403	-1933
1031.469	-1620
1031.534	-1787
1031.600	-1956
1031.666	-2124
1031.731	-1765
1031.797	-1482
1031.863	-2054
1031.928	-2203
1031.994	-2113
1032.059	-1842
1032.125	-2150
1032.190	-2364
1032.256	-1774
1032.321	-1832
1032.386	-2094
1032.452	-1351
1032.517	-2134
1032.582	-1614
1032.647	-1766
1032.713	-2175
1032.778	-1411
1032.843	-1396
1032.908	-1559
1032.974	-1648
1033.039	-1676
1033.104	-614
1033.169	-1983
1033.234	-1632
1033.299	-985
1033.364	-2406
1033.429	-2076
1033.494	-1830
1033.559	-2180
1033.624	-1941
1033.688	-1963
1033.753	-1636
1033.818	-1901
1033.883	-1735
1033.948	-273
1034.013	-668
1034.077	-76
1034.142	105
1034.207	352
1034.271	372
1034.336	1793
1034.400	285
1034.465	-1005
1034.530	-1241
1034.594	-1294
1034.658	-1564
1034.723	-1656
1034.787	-1467
1034.852	-1109
1034.916	-1659
1034.981	-2303
1035.045	-1865
1035.109	-1856
1035.173	-1866
1035.238	-1625
1035.302	-1662
1035.366	-2198
1035.430	-1515
1035.495	-1844
1035.559	-1706
1035.623	-1955
1035.687	-2428
1035.751	-1879
1035.815	-2795
1035.879	-1620
1035.943	-1904
1036.007	-1826
1036.071	-2103
1036.135	-2588
1036.198	-1517
1036.262	-1926
1036.326	-2349
1036.390	-1721
1036.454	-2382
1036.517	-2050
1036.581	-1651
1036.645	-1745
1036.709	-1714
1036.772	-1705
1036.836	-2222
1036.900	-1609
1036.963	-1922
1037.026	-2189
1037.090	-2550
1037.154	-1666
1037.217	-1884
1037.280	-1775
1037.344	-2259
1037.407	-1444
1037.471	-2143
1037.534	-1501
1037.597	-2351
1037.661	-1852
1037.724	-911
1037.787	-2513
1037.850	-1898
1037.913	-1864
1037.977	-1462
1038.040	-1778
1038.103	-2306
1038.166	-2349
1038.229	-983
1038.292	-1720
1038.355	-1637
1038.418	-1992
1038.481	-1283
1038.544	-2053
1038.607	-1855
1038.670	-1616
1038.732	-1617
1038.795	-2483
1038.858	-1544
1038.921	-1445
1038.984	-1103
1039.046	-2050
1039.109	-2446
1039.172	-1611
1039.234	-2564
1039.297	-2374
1039.360	-1827
1039.422	-2107
1039.485	-2392
1039.547	-2186
1039.610	-2671
1039.672	-1965
1039.734	-1538
1039.797	-1762
1039.859	-1981
1039.922	-1541
1039.984	-2131
1040.046	-1704
1040.109	-1694
1040.171	-2135
1040.233	-2448
1040.295	-1851
1040.358	-2708
1040.420	-2445
1040.482	-1851
1040.544	-2493
1040.606	-2434
1040.668	-2869
1040.730	-1520
1040.792	-2202
1040.854	-2388
1040.916	-1156
1040.978	-2100
1041.040	-1550
1041.102	-2302
1041.164	-2156
1041.225	-1842
1041.287	-2008
1041.349	-2107
1041.411	-1610
1041.472	-1665
1041.534	-1359
1041.596	-2942
1041.657	-1888
1041.719	-1471
1041.781	-2384
1041.842	-2126
1041.904	-1396
1041.965	-2065
1042.027	-2181
1042.088	-1911
1042.150	-1853
1042.211	-2165
1042.272	-2201
1042.334	-2356
1042.395	-1441
1042.456	-2326
1042.518	-2097
1042.579	-2288
1042.640	-2163
1042.701	-1697
1042.763	-1783
1042.824	-2363
1042.885	-2559
1042.946	-1710
1043.007	-1564
1043.068	-1764
1043.129	-1979
1043.190	-2110
1043.251	-1296
1043.312	-1873
1043.373	-2610
1043.434	-1981
1043.495	-1215
1043.556	-2130
1043.616	-1599
1043.677	-1595
1043.738	-2671
1043.799	-2151
1043.859	-1562
1043.920	-2657
1043.981	-2282
1044.041	-1856
1044.102	-2574
1044.162	-2834
1044.223	-2285
1044.284	-2147
1044.344	-1984
1044.405	-1677
1044.465	-2038
1044.525	-2034
1044.586	-1133
1044.646	-2384
1044.707	-1563
1044.767	-2215
1044.827	-1541
1044.887	-1826
1044.948	-2199
1045.008	-1346
1045.068	-1932
1045.128	-2128
1045.188	-1794
1045.249	-1364
1045.309	-1526
1045.369	-1616
1045.429	-1460
1045.489	-1460
1045.549	-2240
1045.609	-2185
1045.669	-2361
1045.729	-2392
1045.789	-1048
1045.848	-1592
1045.908	-2565
1045.968	-1696
1046.028	-1046
1046.088	-1484
1046.147	-396
1046.207	-1191
1046.267	-1993
1046.326	-1771
1046.386	-1325
1046.446	-399
1046.505	-1071
1046.565	-1758
1046.624	-1117
1046.684	-1018
1046.743	-929
1046.803	-80
1046.862	-461
1046.922	0
