'Start Wavelength	183.907
'End Wavelength	1046.922
'Gate Delay	5.000
'Gate Width (ms)	1.050
'Laser Output Level	0.000
'X Position	0.000
'Y Position	0.000
'Z Position	0.000
'Grid Point Number	1.000
'Shot Number	100.000
183.907	636.000
183.977	672.000
184.047	86
184.116	174
184.186	175
184.256	591
184.325	-108
184.395	-47
184.465	1415
184.534	226
184.604	171
184.674	630
184.743	496
184.813	429
184.883	1070
184.952	415
185.022	70
185.092	225
185.161	-147
185.231	602
185.301	25
185.370	644
185.440	342
185.509	-338
185.579	935
185.649	-134
185.718	811
185.788	513
185.857	224
185.927	344
185.996	862
186.066	-104
186.136	162
186.205	905
186.275	964
186.344	236
186.414	302
186.483	-303
186.553	1405
186.622	1061
186.692	794
186.761	188
186.831	902
186.900	-315
186.970	820
187.039	565
187.109	1007
187.178	888
187.248	645
187.317	708
187.387	570
187.456	985
187.526	483
187.595	264
187.664	906
187.734	1029
187.803	792
187.873	462
187.942	729
188.012	467
188.081	593
188.150	25
188.220	553
188.289	1005
188.358	785
188.428	1099
188.497	578
188.567	873
188.636	732
188.705	-406
188.775	488
188.844	175
188.913	1272
188.983	58
189.052	25
189.121	760
189.191	185
189.260	830
189.329	-212
189.399	106
189.468	712
189.537	-687
189.606	605
189.676	142
189.745	852
189.814	640
189.883	968
189.953	572
190.022	723
190.091	424
190.161	199
190.230	684
190.299	349
190.368	-237
190.437	274
190.507	1018
190.576	176
190.645	230
190.714	-161
190.783	833
190.853	1168
190.922	729
190.991	60
191.060	365
191.129	-549
191.198	912
191.268	-453
191.337	329
191.406	574
191.475	324
191.544	525
191.613	906
191.682	23
191.752	913
191.821	517
191.890	294
191.959	884
192.028	17
192.097	167
192.166	656
192.235	437
192.304	759
192.373	78
192.442	6
192.511	259
192.580	35
192.650	792
192.719	-24
192.788	522
192.857	548
192.926	866
192.995	755
193.064	234
193.133	36
193.202	581
193.271	568
193.340	31
193.409	375
193.478	939
193.547	-352
193.615	-147
193.684	462
193.753	276
193.822	466
193.891	-260
193.960	717
194.029	138
194.098	-109
194.167	-474
194.236	429
194.305	393
194.374	230
194.443	-50
194.512	685
194.580	1138
194.649	582
194.718	446
194.787	788
194.856	-155
194.925	542
194.994	565
195.062	751
195.131	216
195.200	-117
195.269	396
195.338	495
195.407	1116
195.475	213
195.544	94
195.613	-11
195.682	443
195.751	481
195.819	374
195.888	270
195.957	571
196.026	416
196.094	670
196.163	374
196.232	607
196.301	492
196.369	719
196.438	270
196.507	839
196.576	-604
196.644	604
196.713	452
196.782	581
196.850	1077
196.919	613
196.988	843
197.056	21
197.125	659
197.194	32
197.262	605
197.331	903
197.400	283
197.468	176
197.537	518
197.606	314
197.674	557
197.743	505
197.812	58
197.880	79
197.949	103
198.017	251
198.086	-549
198.155	288
198.223	-99
198.292	237
198.360	111
198.429	259
198.497	228
198.566	496
198.635	1276
198.703	1207
198.772	672
198.840	34
198.909	235
198.977	431
199.046	185
199.114	301
199.183	489
199.251	-659
199.320	-216
199.388	-18
199.457	-434
199.525	-355
199.594	402
199.662	355
199.731	-116
199.799	712
199.867	989
199.936	220
200.004	1681
200.073	665
200.141	99
200.210	743
200.278	1122
200.346	444
200.415	898
200.483	971
200.552	633
200.620	654
200.688	1418
200.757	342
200.825	489
200.893	609
200.962	613
201.030	581
201.098	418
201.167	501
201.235	271
201.303	362
201.372	586
201.440	628
201.508	-89
201.577	590
201.645	615
201.713	378
201.781	187
201.850	495
201.918	377
201.986	1047
202.055	385
202.123	208
202.191	421
202.259	355
202.327	-143
202.396	855
202.464	375
202.532	-258
202.600	1189
202.669	366
202.737	472
202.805	570
202.873	-177
202.941	143
203.009	689
203.078	1004
203.146	1093
203.214	217
203.282	-61
203.350	614
203.418	1037
203.487	444
203.555	30
203.623	463
203.691	716
203.759	-214
203.827	1167
203.895	850
203.963	574
204.031	333
204.099	800
204.168	-9
204.236	610
204.304	657
204.372	1027
204.440	-219
204.508	297
204.576	-71
204.644	712
204.712	302
204.780	267
204.848	609
204.916	328
204.984	285
205.052	168
205.120	220
205.188	398
205.256	-416
205.324	-368
205.392	-62
205.460	522
205.528	418
205.596	304
205.664	429
205.732	47
205.799	903
205.867	276
205.935	25
206.003	598
206.071	342
206.139	-93
206.207	447
206.275	440
206.343	605
206.411	-40
206.478	1252
206.546	957
206.614	504
206.682	117
206.750	-118
206.818	1116
206.885	1160
206.953	-712
207.021	1128
207.089	438
207.157	-263
207.225	-5
207.292	61
207.360	-1565
207.428	-192
207.496	199
207.563	260
207.631	530
207.699	427
207.767	262
207.834	-152
207.902	161
207.970	882
208.038	278
208.105	874
208.173	83
208.241	229
208.309	490
208.376	-139
208.444	120
208.512	-46
208.579	-314
208.647	893
208.715	1149
208.782	225
208.850	372
208.918	153
208.985	-196
209.053	-1
209.120	200
209.188	-912
209.256	-154
209.323	-332
209.391	294
209.459	1542
209.526	50
209.594	-13
209.661	9
209.729	645
209.796	824
209.864	502
209.932	-967
209.999	1452
210.067	469
210.134	-155
210.202	527
210.269	761
210.337	1467
210.404	1006
210.472	911
210.539	547
210.607	481
210.674	182
210.742	475
210.809	44
210.877	78
210.944	830
211.012	-658
211.079	1017
211.146	345
211.214	1069
211.281	797
211.349	2383
211.416	924
211.484	-20
211.551	-359
211.618	226
211.686	-159
211.753	48
211.821	266
211.888	739
211.955	576
212.023	666
212.090	75
212.157	-143
212.225	182
212.292	419
212.359	422
212.427	-13
212.494	52
212.561	565
212.629	-9
212.696	-591
212.763	366
212.831	-516
212.898	843
212.965	-285
213.032	564
213.100	462
213.167	-91
213.234	659
213.301	74
213.369	0
213.436	990
213.503	-208
213.570	852
213.638	379
213.705	28
213.772	-138
213.839	-229
213.906	361
213.973	-297
214.041	-545
214.108	-12
214.175	49
214.242	257
214.309	525
214.376	658
214.444	249
214.511	-86
214.578	229
214.645	1194
214.712	595
214.779	66
214.846	613
214.913	1019
214.980	820
215.048	1638
215.115	1993
215.182	1514
215.249	1068
215.316	554
215.383	1261
215.450	507
215.517	586
215.584	1107
215.651	734
215.718	1152
215.785	1261
215.852	-29
215.919	836
215.986	487
216.053	-71
216.120	-689
216.187	1
216.254	761
216.321	421
216.388	-76
216.455	-336
216.522	275
216.589	-506
216.656	340
216.722	-426
216.789	895
216.856	589
216.923	391
216.990	66
217.057	-658
217.124	25
217.191	-780
217.258	340
217.324	137
217.391	700
217.458	230
217.525	638
217.592	-433
217.659	-602
217.725	1372
217.792	480
217.859	929
217.926	-37
217.993	54
218.059	-204
218.126	114
218.193	491
218.260	-239
218.327	-35
218.393	211
218.460	289
218.527	155
218.594	-38
218.660	434
218.727	1392
218.794	-512
218.860	1286
218.927	-296
218.994	37
219.061	315
219.127	92
219.194	496
219.261	911
219.327	359
219.394	789
219.461	-74
219.527	397
219.594	1117
219.661	579
219.727	-613
219.794	1111
219.860	382
219.927	2160
219.994	2928
220.060	4275
220.127	4247
220.193	3953
220.260	1384
220.326	1974
220.393	256
220.460	499
220.526	-231
220.593	212
220.659	1459
220.726	540
220.792	-325
220.859	175
220.925	117
220.992	16
221.058	284
221.125	897
221.191	-360
221.258	-300
221.324	413
221.391	685
221.457	149
221.524	43
221.590	553
221.657	839
221.723	-149
221.789	387
221.856	883
221.922	-393
221.989	1251
222.055	1036
222.121	-270
222.188	2107
222.254	455
222.321	1230
222.387	505
222.453	625
222.520	519
222.586	-100
222.652	332
222.719	88
222.785	1044
222.851	699
222.918	819
222.984	-60
223.050	-320
223.116	-412
223.183	1190
223.249	-382
223.315	-232
223.382	84
223.448	368
223.514	235
223.580	361
223.647	-386
223.713	-1075
223.779	-452
223.845	-110
223.911	362
223.978	-161
224.044	9
224.110	53
224.176	347
224.242	92
224.309	-579
224.375	1159
224.441	168
224.507	139
224.573	-461
224.639	314
224.705	-396
224.772	252
224.838	-362
224.904	502
224.970	325
225.036	553
225.102	-1020
225.168	1088
225.234	917
225.300	420
225.366	-47
225.432	787
225.499	803
225.565	569
225.631	142
225.697	331
225.763	872
225.829	-252
225.895	486
225.961	-80
226.027	494
226.093	350
226.159	1241
226.225	1539
226.291	466
226.357	264
226.423	9
226.489	813
226.554	548
226.620	359
226.686	220
226.752	86
226.818	185
226.884	-472
226.950	1345
227.016	798
227.082	1599
227.148	468
227.214	1401
227.279	912
227.345	2169
227.411	3748
227.477	5490
227.543	4800
227.609	5917
227.674	7731
227.740	4942
227.806	3021
227.872	2240
227.938	1659
228.003	1518
228.069	1326
228.135	529
228.201	1224
228.267	426
228.332	634
228.398	-1061
228.464	37
228.530	483
228.595	291
228.661	-553
228.727	-283
228.792	1741
228.858	-715
228.924	-988
228.990	1305
229.055	-147
229.121	449
229.187	510
229.252	-750
229.318	797
229.384	121
229.449	119
229.515	-1132
229.581	-282
229.646	2112
229.712	504
229.777	271
229.843	401
229.909	127
229.974	1055
230.040	-338
230.105	172
230.171	-332
230.236	936
230.302	770
230.368	111
230.433	-618
230.499	-166
230.564	849
230.630	-1337
230.695	11
230.761	1402
230.826	-1695
230.892	1043
230.957	-855
231.023	-69
231.088	111
231.154	244
231.219	27
231.284	-697
231.350	1271
231.415	-412
231.481	1997
231.546	763
231.612	3
231.677	64
231.742	-622
231.808	1743
231.873	-140
231.939	-1032
232.004	1444
232.069	585
232.135	-175
232.200	131
232.265	528
232.331	50
232.396	-33
232.461	-310
232.527	-608
232.592	-379
232.657	580
232.723	318
232.788	-111
232.853	999
232.918	894
232.984	-218
233.049	-239
233.114	179
233.179	291
233.245	1104
233.310	568
233.375	-20
233.440	343
233.506	-657
233.571	-459
233.636	-363
233.701	145
233.766	-197
233.832	706
233.897	-92
233.962	-64
234.027	1422
234.092	616
234.157	880
234.222	216
234.288	1029
234.353	-50
234.418	935
234.483	552
234.548	427
234.613	-379
234.678	473
234.743	-557
234.808	705
234.873	-567
234.938	1105
235.004	-391
235.069	196
235.134	-504
235.199	870
235.264	65
235.329	-1107
235.394	1203
235.459	1568
235.524	-224
235.589	1354
235.654	-196
235.719	-851
235.784	698
235.849	-121
235.913	41
235.978	797
236.043	-32
236.108	443
236.173	-230
236.238	1368
236.303	260
236.368	-358
236.433	-16
236.498	-455
236.563	269
236.627	709
236.692	191
236.757	135
236.822	-19
236.887	-55
236.952	791
237.017	-747
237.081	1700
237.146	-321
237.211	874
237.276	-161
237.341	822
237.405	-149
237.470	353
237.535	96
237.600	511
237.664	906
237.729	-1159
237.794	-1238
237.859	1396
237.923	-127
237.988	259
238.053	551
238.118	120
238.182	-64
238.247	2250
238.312	-776
238.376	602
238.441	-1092
238.506	799
238.570	-1118
238.635	2343
238.700	1203
238.764	-725
238.829	479
238.893	-16
238.958	1526
239.023	550
239.087	441
239.152	1419
239.216	1313
239.281	1690
239.346	1018
239.410	1111
239.475	1115
239.539	2335
239.604	1875
239.668	3569
239.733	5006
239.797	10236
239.862	13162
239.926	13137
239.991	10148
240.055	5539
240.120	3044
240.184	3125
240.249	1910
240.313	1099
240.378	895
240.442	877
240.507	951
240.571	499
240.635	507
240.700	665
240.764	959
240.829	586
240.893	167
240.957	1049
241.022	1038
241.086	1220
241.151	-7
241.215	-163
241.279	1723
241.344	-253
241.408	454
241.472	185
241.537	993
241.601	333
241.665	-803
241.730	-867
241.794	1310
241.858	-627
241.922	350
241.987	-364
242.051	530
242.115	-584
242.179	924
242.244	375
242.308	1586
242.372	-24
242.436	122
242.501	451
242.565	-432
242.629	-123
242.693	1063
242.757	102
242.822	-481
242.886	408
242.950	320
243.014	-527
243.078	400
243.142	34
243.206	-623
243.271	448
243.335	-311
243.399	812
243.463	-213
243.527	752
243.591	-354
243.655	755
243.719	-338
243.783	224
243.847	457
243.911	503
243.975	58
244.040	-713
244.104	1744
244.168	364
244.232	248
244.296	315
244.360	52
244.424	-542
244.488	450
244.552	534
244.615	-416
244.679	-208
244.743	-121
244.807	-669
244.871	459
244.935	1177
244.999	-638
245.063	-304
245.127	1052
245.191	-386
245.255	-46
245.319	371
245.383	-1572
245.446	1148
245.510	-61
245.574	-26
245.638	1261
245.702	-1391
245.766	402
245.829	772
245.893	-907
245.957	214
246.021	1660
246.085	962
246.149	979
246.212	2101
246.276	2221
246.340	552
246.404	689
246.467	799
246.531	-953
246.595	1680
246.659	1590
246.722	-1529
246.786	608
246.850	120
246.913	1008
246.977	-568
247.041	561
247.104	-182
247.168	720
247.232	1379
247.295	2618
247.359	2072
247.423	486
247.486	1133
247.550	1499
247.614	219
247.677	1023
247.741	221
247.804	814
247.868	1062
247.932	-41
247.995	2867
248.059	1549
248.122	-418
248.186	2200
248.249	356
248.313	4841
248.376	5732
248.440	2585
248.503	-394
248.567	2062
248.630	246
248.694	734
248.757	1828
248.821	5571
248.884	3523
248.948	1795
249.011	4215
249.075	5232
249.138	6080
249.202	2429
249.265	169
249.328	1430
249.392	-1
249.455	767
249.519	845
249.582	819
249.645	1617
249.709	1773
249.772	682
249.835	379
249.899	421
249.962	1540
250.025	325
250.089	1704
250.152	4074
250.215	1221
250.279	613
250.342	1487
250.405	916
250.468	257
250.532	307
250.595	1172
250.658	-577
250.721	498
250.785	-42
250.848	2624
250.911	-557
250.974	1070
251.038	920
251.101	2614
251.164	41
251.227	672
251.290	428
251.354	494
251.417	624
251.480	-9
251.543	1016
251.606	-76
251.669	453
251.732	377
251.795	2075
251.859	2374
251.922	-170
251.985	408
252.048	316
252.111	-7
252.174	-60
252.237	745
252.300	5437
252.363	1492
252.426	3146
252.489	863
252.552	859
252.615	272
252.678	1356
252.741	3237
252.804	1360
252.867	1215
252.930	3412
252.993	1032
253.056	1764
253.119	669
253.182	-69
253.245	439
253.308	757
253.371	663
253.434	354
253.497	1319
253.559	2978
253.622	1695
253.685	1190
253.748	1094
253.811	89
253.874	1078
253.937	399
254.000	1368
254.062	1781
254.125	3406
254.188	2828
254.251	1125
254.314	1009
254.376	102
254.439	2029
254.502	1309
254.565	1031
254.628	3889
254.690	1406
254.753	662
254.816	823
254.878	1094
254.941	2347
255.004	2565
255.067	905
255.129	490
255.192	308
255.255	-330
255.317	1241
255.380	1969
255.443	765
255.505	2025
255.568	-300
255.631	500
255.693	1815
255.756	1458
255.819	2916
255.881	2168
255.944	1801
256.006	1060
256.069	1125
256.132	-143
256.194	350
256.257	800
256.319	1055
256.382	2034
256.444	5451
256.507	3203
256.569	1811
256.632	873
256.694	631
256.757	725
256.819	1181
256.882	-504
256.944	691
257.007	1717
257.069	240
257.132	1038
257.194	1270
257.257	177
257.319	-71
257.381	490
257.444	1207
257.506	504
257.569	1988
257.631	3879
257.693	1212
257.756	856
257.818	189
257.880	806
257.943	1433
258.005	736
258.067	812
258.130	840
258.192	812
258.254	495
258.317	858
258.379	1530
258.441	2622
258.503	2299
258.566	1247
258.628	2229
258.690	317
258.753	1332
258.815	1366
258.877	1105
258.939	866
259.001	1188
259.064	914
259.126	1102
259.188	1022
259.250	758
259.312	1757
259.375	2633
259.437	1650
259.499	681
259.561	1110
259.623	2703
259.685	1114
259.747	1218
259.809	1133
259.872	1715
259.934	2805
259.996	3579
260.058	1552
260.120	759
260.182	1113
260.244	1130
260.306	1202
260.368	1064
260.430	933
260.492	1546
260.554	2650
260.616	2176
260.678	1873
260.740	2973
260.802	548
260.864	1514
260.926	-35
260.988	3041
261.050	499
261.112	1240
261.174	2778
261.236	1725
261.298	895
261.359	1368
261.421	2887
261.483	1634
261.545	1842
261.607	474
261.669	2663
261.731	1345
261.793	1985
261.854	434
261.916	1554
261.978	1331
262.040	2017
262.102	1489
262.164	1200
262.225	2047
262.287	930
262.349	1149
262.411	1611
262.472	1931
262.534	1675
262.596	804
262.658	1411
262.719	436
262.781	1338
262.843	783
262.904	1230
262.966	1055
263.028	1783
263.090	2459
263.151	2255
263.213	1993
263.275	787
263.336	584
263.398	2113
263.459	1025
263.521	1399
263.583	2282
263.644	1937
263.706	589
263.767	560
263.829	1979
263.891	1282
263.952	1925
264.014	1492
264.075	1445
264.137	1134
264.198	2982
264.260	738
264.321	1543
264.383	1034
264.444	2431
264.506	644
264.567	1086
264.629	1576
264.690	-59
264.752	1646
264.813	2100
264.875	1213
264.936	2071
264.998	1072
265.059	2198
265.120	2160
265.182	1266
265.243	919
265.305	1265
265.366	1777
265.427	1715
265.489	2423
265.550	238
265.611	1895
265.673	2093
265.734	2336
265.795	2161
265.857	1245
265.918	898
265.979	2291
266.040	1101
266.102	602
266.163	1486
266.224	928
266.286	1225
266.347	758
266.408	1339
266.469	2237
266.530	1916
266.592	1419
266.653	1685
266.714	1659
266.775	1658
266.836	1744
266.898	1197
266.959	802
267.020	2014
267.081	2654
267.142	1350
267.203	1566
267.264	1786
267.326	2522
267.387	1556
267.448	944
267.509	1689
267.570	639
267.631	1201
267.692	524
267.753	1885
267.814	1024
267.875	1354
267.936	1864
267.997	1798
268.058	1565
268.119	1003
268.180	1561
268.241	1440
268.302	1098
268.363	1802
268.424	1109
268.485	1158
268.546	1278
268.607	1908
268.668	1534
268.729	1298
268.790	1948
268.851	2197
268.912	2411
268.972	1677
269.033	1027
269.094	922
269.155	1735
269.216	1458
269.277	1369
269.338	1870
269.398	1513
269.459	1835
269.520	2031
269.581	1757
269.642	1847
269.702	1005
269.763	1811
269.824	874
269.885	1376
269.945	2187
270.006	1322
270.067	1444
270.128	2076
270.188	1519
270.249	1943
270.310	1265
270.370	2102
270.431	2609
270.492	1966
270.553	2111
270.613	803
270.674	2493
270.734	2089
270.795	2498
270.856	1519
270.916	1728
270.977	1470
271.038	2752
271.098	2172
271.159	2535
271.219	1895
271.280	2120
271.340	1566
271.401	1656
271.462	2115
271.522	1321
271.583	1989
271.643	2425
271.704	2027
271.764	1668
271.825	2871
271.885	5985
271.946	9108
272.006	3775
272.066	4310
272.127	10297
272.187	12832
272.248	8261
272.308	3446
272.369	6043
272.429	4020
272.489	3265
272.550	1875
272.610	2924
272.671	2883
272.731	2451
272.791	2769
272.852	3079
272.912	2667
272.972	2140
273.033	1978
273.093	1447
273.153	2624
273.214	2042
273.274	2424
273.334	2600
273.394	5599
273.455	2635
273.515	3075
273.575	4577
273.635	3291
273.696	3347
273.756	5859
273.816	3087
273.876	2800
273.936	2874
273.997	2482
274.057	1868
274.117	2229
274.177	2568
274.237	6150
274.297	6315
274.358	3099
274.418	4860
274.478	3742
274.538	2960
274.598	1925
274.658	3048
274.718	2815
274.778	3117
274.838	2825
274.898	2542
274.958	3866
275.018	6446
275.078	5680
275.138	2922
275.198	1991
275.258	1985
275.318	2719
275.378	2644
275.438	3623
275.498	2378
275.558	2740
275.618	4362
275.678	4475
275.738	3414
275.798	4357
275.858	2737
275.918	2063
275.978	2916
276.038	2355
276.098	3626
276.157	3661
276.217	4349
276.277	4073
276.337	3091
276.397	3172
276.457	3654
276.517	4407
276.576	3179
276.636	2497
276.696	3117
276.756	2984
276.815	3119
276.875	3716
276.935	3457
276.995	3429
277.055	3258
277.114	4229
277.174	3768
277.234	3391
277.293	2317
277.353	2840
277.413	2357
277.472	2141
277.532	2206
277.592	3171
277.651	4226
277.711	7273
277.771	4411
277.830	7420
277.890	6891
277.950	5399
278.009	12942
278.069	7681
278.128	6288
278.188	7835
278.248	5209
278.307	8478
278.367	6552
278.426	2778
278.486	3801
278.545	3275
278.605	3486
278.664	2806
278.724	2886
278.783	3948
278.843	7626
278.902	3884
278.962	2525
279.021	3061
279.081	3402
279.140	3726
279.199	2300
279.259	2612
279.318	3684
279.378	3484
279.437	6193
279.496	17903
279.556	30192
279.615	22446
279.675	8061
279.734	6129
279.793	7615
279.853	16853
279.912	7826
279.971	5347
280.031	5117
280.090	6856
280.149	14954
280.208	7560
280.268	15429
280.327	18519
280.386	5522
280.445	4435
280.505	4563
280.564	4036
280.623	2784
280.682	2974
280.742	3873
280.801	3201
280.860	2856
280.919	3277
280.978	3322
281.037	2823
281.097	3081
281.156	3234
281.215	3279
281.274	3304
281.333	5360
281.392	5346
281.451	4127
281.510	2885
281.569	2799
281.628	3379
281.688	3284
281.747	3468
281.806	2794
281.865	3058
281.924	2721
281.983	2715
282.042	3379
282.101	3047
282.160	3522
282.219	3084
282.278	2673
282.337	4165
282.396	3212
282.454	2876
282.513	3544
282.572	4475
282.631	4310
282.690	2619
282.749	2885
282.808	3469
282.867	3439
282.926	2222
282.985	3425
283.043	2219
283.102	3665
283.161	2950
283.220	4391
283.279	4831
283.338	2937
283.396	2914
283.455	2277
283.514	3019
283.573	3746
283.631	3019
283.690	3330
283.749	3489
283.808	3445
283.866	3723
283.925	3768
283.984	2995
284.043	3538
284.101	3335
284.160	3534
284.219	4063
284.277	4348
284.336	3634
284.395	5031
284.453	4791
284.512	3594
284.570	3874
284.629	3915
284.688	3851
284.746	3898
284.805	3948
284.863	4884
284.922	5126
284.981	5017
285.039	8041
285.098	12990
285.156	26147
285.215	53741
285.273	55384
285.332	32191
285.390	16053
285.449	10265
285.507	7925
285.566	6771
285.624	5134
285.683	5832
285.741	3681
285.799	3912
285.858	4059
285.916	4668
285.975	4099
286.033	3596
286.091	2945
286.150	3253
286.208	3530
286.267	4017
286.325	3315
286.383	4052
286.442	3840
286.500	3934
286.558	4076
286.616	3282
286.675	3260
286.733	3177
286.791	2682
286.850	3716
286.908	4143
286.966	4141
287.024	3872
287.083	3648
287.141	3007
287.199	3475
287.257	3543
287.315	2903
287.374	4033
287.432	4144
287.490	3522
287.548	3124
287.606	3288
287.664	3826
287.723	3357
287.781	3677
287.839	4464
287.897	3334
287.955	3168
288.013	3609
288.071	3772
288.129	3344
288.187	4212
288.245	3931
288.303	3276
288.361	3711
288.419	3376
288.477	3545
288.535	3391
288.593	3152
288.651	3486
288.709	3547
288.767	3531
288.825	3977
288.883	3728
288.941	3420
288.999	3357
289.057	4619
289.115	4196
289.173	3365
289.231	3789
289.289	2679
289.346	3030
289.404	3944
289.462	4331
289.520	4349
289.578	3606
289.636	3989
289.694	3173
289.751	4199
289.809	3850
289.867	3998
289.925	4569
289.983	4058
290.040	3895
290.098	4303
290.156	3651
290.214	3711
290.271	2922
290.329	4811
290.387	3812
290.444	3808
290.502	3214
290.560	3935
290.617	3947
290.675	3805
290.733	3928
290.790	4113
290.848	4328
290.906	3558
290.963	4490
291.021	4177
291.078	4091
291.136	2795
291.194	4602
291.251	4732
291.309	3917
291.366	4032
291.424	3847
291.481	4338
291.539	3793
291.596	3604
291.654	3605
291.711	4766
291.769	3743
291.826	4299
291.884	4535
291.941	3315
291.999	3207
292.056	3978
292.114	3557
292.171	4744
292.228	4229
292.286	4223
292.343	4735
292.401	4213
292.458	4011
292.515	3185
292.573	5522
292.630	4270
292.687	3709
292.745	3817
292.802	3065
292.859	4847
292.917	5715
292.974	4345
293.031	4109
293.089	3680
293.146	3207
293.203	3920
293.260	3110
293.318	3903
293.375	3596
293.432	3379
293.489	3901
293.546	3876
293.604	3873
293.661	4996
293.718	8736
293.775	6242
293.832	5125
293.889	5323
293.947	5414
294.004	5023
294.061	3871
294.118	4734
294.175	5832
294.232	4792
294.289	3864
294.346	4571
294.403	4554
294.460	3467
294.517	3714
294.574	3596
294.631	4442
294.688	5205
294.745	5246
294.802	8024
294.859	6606
294.916	4619
294.973	5174
295.030	4183
295.087	3717
295.144	3495
295.201	3932
295.258	4130
295.315	3762
295.372	5454
295.429	7345
295.486	5355
295.542	4134
295.599	4743
295.656	3650
295.713	4283
295.770	6445
295.827	3678
295.883	3725
295.940	4075
295.997	2892
296.054	3236
296.111	4269
296.167	4453
296.224	3400
296.281	3097
296.338	3890
296.394	3121
296.451	2677
296.508	4697
296.564	5501
296.621	5006
296.678	7499
296.734	10399
296.791	5866
296.848	4798
296.904	4149
296.961	5325
297.018	7172
297.074	6258
297.131	4490
297.187	4078
297.244	4726
297.301	8061
297.357	12558
297.414	6367
297.470	4772
297.527	4434
297.583	3947
297.640	4393
297.696	3888
297.753	4139
297.809	3690
297.866	4349
297.922	3920
297.979	3906
298.035	3504
298.092	3623
298.148	5030
298.204	5417
298.261	4706
298.317	5785
298.374	9331
298.430	6786
298.486	4446
298.543	4417
298.599	3566
298.656	4213
298.712	3733
298.768	4112
298.824	3878
298.881	4143
298.937	4200
298.993	3856
299.050	4271
299.106	4259
299.162	3747
299.218	4922
299.275	4301
299.331	5119
299.387	6422
299.443	13131
299.500	26297
299.556	23209
299.612	11146
299.668	9830
299.724	21461
299.780	29688
299.837	12910
299.893	10545
299.949	18970
300.005	29176
300.061	21219
300.117	31292
300.173	17620
300.229	9544
300.285	6790
300.341	7061
300.397	5979
300.453	5831
300.510	6744
300.566	8420
300.622	12568
300.678	31626
300.734	42910
300.790	23533
300.845	16805
300.901	19741
300.957	30164
301.013	15414
301.069	8894
301.125	7158
301.181	6124
301.237	5686
301.293	4432
301.349	5246
301.405	4432
301.461	4685
301.516	3946
301.572	4601
301.628	4479
301.684	4163
301.740	4557
301.796	5269
301.851	5027
301.907	5292
301.963	6358
302.019	7619
302.074	17707
302.130	18903
302.186	10217
302.242	5857
302.297	5499
302.353	4816
302.409	5388
302.464	5382
302.520	4744
302.576	6860
302.631	8518
302.687	6151
302.743	4014
302.798	4195
302.854	4028
302.910	4349
302.965	3810
303.021	5266
303.076	3824
303.132	3953
303.187	4769
303.243	4494
303.299	4433
303.354	3669
303.410	3392
303.465	3428
303.521	3232
303.576	3899
303.632	4405
303.687	5029
303.743	7928
303.798	7432
303.853	4850
303.909	3675
303.964	3348
304.020	3827
304.075	4123
304.130	3321
304.186	4505
304.241	5826
304.297	4601
304.352	4281
304.358	4251
304.407	4005
304.449	4017
304.463	4025
304.518	4578
304.539	4351
304.573	3972
304.629	3866
304.630	3878
304.684	4488
304.720	5495
304.739	5990
304.794	9054
304.811	8370
304.850	6678
304.902	3935
304.905	3759
304.960	3590
304.992	3374
305.015	3218
305.071	3323
305.083	3462
305.126	3983
305.173	3164
305.181	3023
305.236	3869
305.264	3838
305.292	3810
305.347	3405
305.354	3425
305.402	3631
305.445	3924
305.457	3971
305.512	3332
305.535	3412
305.567	3588
305.622	3342
305.626	3376
305.678	4191
305.716	5535
305.733	5980
305.788	7331
305.807	6641
305.843	5630
305.897	7051
305.898	7060
305.953	7362
305.988	5475
306.008	4515
306.063	3971
306.078	3815
306.118	3557
306.168	2965
306.173	2903
306.228	3132
306.259	3361
306.283	3592
306.338	2655
306.349	2855
306.393	3464
306.440	3407
306.448	3431
306.503	3559
306.530	3488
306.558	3438
306.613	3426
306.620	3484
306.668	4147
306.711	5168
306.723	5257
306.778	5637
306.801	4565
306.833	3316
306.888	3238
306.892	3254
306.943	3671
306.982	3045
306.997	2762
307.052	2864
307.072	2915
307.107	2944
307.162	2659
307.163	2661
307.217	3384
307.253	3279
307.272	2992
307.327	2213
307.343	2192
307.381	2649
307.434	3041
307.436	3063
307.491	3362
307.524	3813
307.546	3994
307.600	4629
307.614	4575
307.655	4011
307.704	2763
307.710	2681
307.765	2931
307.795	2668
307.819	2433
307.874	3022
307.885	3039
307.929	3312
307.975	3659
307.984	3680
308.038	3463
308.065	3177
308.093	2914
308.148	3109
308.156	3108
308.202	2982
308.246	2823
308.257	2937
308.312	3771
308.336	4111
308.366	4028
308.421	3420
308.426	3343
308.475	2856
308.517	2668
308.530	2630
308.585	2758
308.607	2593
308.639	2444
308.694	2630
308.697	2640
308.748	2568
308.787	2342
308.803	2482
308.857	2759
308.877	3021
308.912	2924
308.967	2589
308.967	2579
309.021	3079
309.058	3757
309.076	3896
309.130	4008
309.148	3979
309.185	4288
309.238	4816
309.239	4828
309.293	5068
309.328	5180
309.348	5077
309.402	4581
309.418	4486
309.457	4511
309.508	4385
309.511	4403
309.566	4807
309.598	5230
309.620	5710
309.674	6390
309.688	6687
309.729	6841
309.778	6651
309.783	6585
309.837	5537
309.868	4963
309.892	5157
309.946	5855
309.959	6087
310.001	6965
310.049	7504
310.055	7318
310.109	5528
310.139	4391
310.163	4087
310.218	3774
310.229	3741
310.272	3945
310.319	4082
310.326	4037
310.381	3547
310.409	3336
310.435	3350
310.489	3438
310.499	3474
310.543	3752
310.589	3811
310.598	3814
310.652	3928
310.679	4002
310.706	4197
310.760	4520
310.769	4563
310.814	4547
310.859	4444
310.868	4387
310.923	4148
310.948	4000
310.977	4136
311.031	4517
311.038	4552
311.085	4461
311.128	4323
311.139	4391
311.193	4721
311.218	4910
311.247	4949
311.301	4936
311.308	4932
311.356	4443
311.398	3989
311.410	4038
311.464	4221
311.488	4303
311.518	4218
311.572	4127
311.578	4105
311.626	4090
311.668	4126
311.680	4206
311.734	4468
311.758	4614
311.788	4589
311.842	4525
311.847	4516
311.896	4527
311.937	4500
311.950	4481
312.004	4402
312.027	4367
312.058	4528
312.112	4814
312.117	4836
312.165	4666
312.207	4516
312.297	5102
312.386	4689
312.476	4538
312.566	5579
312.656	5701
312.745	4871
312.835	6359
312.925	5261
313.015	6165
313.104	6358
313.194	6943
313.284	6307
313.374	6221
313.463	7287
313.553	7943
313.643	7781
313.732	8273
313.822	7913
313.912	9774
314.001	9433
314.091	10016
314.180	9903
314.270	10966
314.360	8632
314.449	9570
314.539	9224
314.628	9216
314.718	9870
314.808	10346
314.897	11055
314.987	12234
315.076	12524
315.166	11838
315.255	11261
315.345	11975
315.434	10515
315.524	10816
315.613	12129
315.703	14706
315.792	30595
315.881	93949
315.971	37293
316.060	14171
316.150	10896
316.239	10405
316.328	10283
316.418	10759
316.507	11927
316.597	14024
316.686	14383
316.775	13470
316.865	12220
316.954	10878
317.043	10275
317.133	8753
317.222	9228
317.311	9139
317.400	7492
317.490	10061
317.579	9107
317.668	11939
317.757	17104
317.847	47130
317.936	134692
318.025	51320
318.114	44390
318.203	23592
318.293	12311
318.382	17387
318.471	19399
318.560	16457
318.649	13119
318.738	10323
318.828	8865
318.917	7185
319.006	6476
319.095	7031
319.184	7747
319.273	8194
319.362	7906
319.451	6915
319.540	6685
319.629	7619
319.718	8410
319.807	7881
319.896	7208
319.985	7966
320.074	8741
320.163	9338
320.252	8118
320.341	9903
320.430	8808
320.519	10680
320.608	10867
320.697	13788
320.786	14265
320.875	16934
320.964	16938
321.053	17806
321.142	20065
321.230	21222
321.319	22616
321.408	25052
321.497	24632
321.586	21501
321.675	19134
321.764	19210
321.852	19402
321.941	20468
322.030	20617
322.119	21056
322.207	25363
322.296	26226
322.385	29045
322.474	32104
322.562	32677
322.651	26814
322.740	23346
322.829	22061
322.917	16913
323.006	15929
323.095	15362
323.183	13158
323.272	13421
323.361	12865
323.449	12671
323.538	11725
323.626	11383
323.715	11542
323.804	9670
323.892	9894
323.981	9680
324.069	9878
324.158	9378
324.246	9523
324.335	9470
324.424	9909
324.512	9306
324.601	8755
324.689	8079
324.778	8466
324.866	9152
324.954	8699
325.043	7500
325.131	7853
325.220	7745
325.308	8323
325.397	7518
325.485	7762
325.574	7229
325.662	7887
325.750	6682
325.839	8499
325.927	6751
326.015	7676
326.104	6687
326.192	6773
326.280	6511
326.369	6885
326.457	7092
326.545	8239
326.634	6815
326.722	7686
326.810	7838
326.898	9546
326.987	9557
327.075	8935
327.163	8839
327.251	8099
327.340	7944
327.428	12627
327.516	13765
327.604	11981
327.692	9447
327.781	8242
327.869	6909
327.957	6724
328.045	6019
328.133	6558
328.221	5974
328.309	6090
328.397	6148
328.485	7824
328.574	12305
328.662	17422
328.750	12438
328.838	9215
328.926	8086
329.014	7897
329.102	6682
329.190	7064
329.278	6478
329.366	6778
329.454	5617
329.542	6199
329.630	5929
329.718	6077
329.806	5889
329.893	6955
329.981	5178
330.069	6403
330.157	6913
330.245	6855
330.333	6673
330.421	5920
330.509	6468
330.597	7836
330.684	6639
330.772	6954
330.860	5959
330.948	6453
331.036	6164
331.123	6236
331.211	5724
331.299	6738
331.387	6528
331.475	6253
331.562	6860
331.650	6620
331.738	7029
331.825	7184
331.913	6672
332.001	6894
332.089	6605
332.176	6835
332.264	6059
332.352	6817
332.439	6814
332.527	7191
332.614	7012
332.702	7322
332.790	7460
332.877	7256
332.965	8979
333.052	9023
333.140	8054
333.228	9574
333.315	7877
333.403	8619
333.490	9157
333.578	9908
333.665	12323
333.753	11644
333.840	11719
333.928	14157
334.015	15450
334.103	19085
334.190	23792
334.278	31252
334.365	38456
334.452	39664
334.540	31756
334.627	31572
334.715	39202
334.802	51190
334.889	67062
334.977	80849
335.064	57609
335.151	35529
335.239	27757
335.326	23471
335.413	22984
335.501	24021
335.588	26021
335.675	28033
335.762	36542
335.850	47514
335.937	62825
336.024	87342
336.111	112606
336.199	99190
336.286	56804
336.373	36324
336.460	26135
336.547	21966
336.635	17509
336.722	16342
336.809	13639
336.896	13499
336.983	13486
337.070	12879
337.157	11539
337.245	11656
337.332	11928
337.419	12970
337.506	11231
337.593	11179
337.680	9992
337.767	10323
337.854	9645
337.941	10074
338.028	9239
338.115	9335
338.202	10953
338.289	10454
338.376	8626
338.463	8884
338.550	7316
338.637	8345
338.724	8150
338.811	8170
338.898	8669
338.984	7388
339.071	7621
339.158	8510
339.245	8226
339.332	8421
339.419	7676
339.506	8207
339.593	7249
339.679	8402
339.766	7941
339.853	8078
339.940	7619
340.027	8246
340.113	7626
340.200	7683
340.287	6906
340.374	7175
340.460	7857
340.547	6613
340.634	6575
340.720	8900
340.807	7771
340.894	8424
340.980	7180
341.067	7867
341.154	7815
341.240	7364
341.327	8053
341.414	8647
341.500	6855
341.587	7654
341.674	7461
341.760	7939
341.847	8342
341.933	7115
342.020	6467
342.106	7004
342.193	7113
342.279	7275
342.366	6531
342.452	7947
342.539	8379
342.625	7311
342.712	8597
342.798	7171
342.885	6993
342.971	6848
343.058	7300
343.144	7110
343.230	6467
343.317	7206
343.403	7082
343.490	7013
343.576	6671
343.662	7404
343.749	6791
343.835	8048
343.921	8021
344.008	18016
344.094	31671
344.180	11486
344.267	7640
344.353	10602
344.439	9805
344.525	7300
344.612	6899
344.698	6950
344.784	5857
344.870	7095
344.957	6576
345.043	7985
345.129	5814
345.215	7960
345.301	7323
345.387	6910
345.474	6274
345.560	6494
345.646	6181
345.732	7193
345.818	6856
345.904	7067
345.990	7644
346.076	6857
346.162	5979
346.249	7919
346.335	6906
346.421	7830
346.507	8668
346.593	14101
346.679	6250
346.765	9636
346.851	14469
346.937	12846
347.023	9698
347.108	8238
347.194	8021
347.280	8876
347.366	11135
347.452	26621
347.538	37664
347.624	22995
347.710	13375
347.796	9410
347.882	7868
347.967	8717
348.053	7599
348.139	7859
348.225	6454
348.311	7853
348.397	8058
348.482	8951
348.568	9599
348.654	13880
348.740	35887
348.825	43902
348.911	21559
348.997	15601
349.083	17868
349.168	9432
349.254	8044
349.340	8066
349.425	7813
349.511	8136
349.597	8527
349.682	8898
349.768	11624
349.854	9890
349.939	7834
350.025	7461
350.110	7648
350.196	8586
350.282	7332
350.367	7355
350.453	8013
350.538	7454
350.624	6479
350.709	8245
350.795	6526
350.880	7568
350.966	8571
351.051	7953
351.137	7272
351.222	7842
351.308	8048
351.393	8898
351.479	7604
351.564	7201
351.649	7549
351.735	7195
351.820	7079
351.906	7321
351.991	6471
352.076	8022
352.162	8618
352.247	7665
352.332	6872
352.418	7332
352.503	6605
352.588	10624
352.673	8875
352.759	7459
352.844	6171
352.929	7061
353.014	6795
353.100	8233
353.185	10744
353.270	8036
353.355	7885
353.441	7715
353.526	6242
353.611	7517
353.696	7721
353.781	8310
353.866	5331
353.952	7165
354.037	6312
354.122	8420
354.207	7901
354.292	7036
354.377	6501
354.462	7568
354.547	6428
354.632	8034
354.717	9496
354.802	11362
354.887	8425
354.972	7748
355.057	6616
355.142	7103
355.227	7877
355.312	6609
355.397	7383
355.482	8790
355.567	7603
355.652	9216
355.737	8127
355.822	11696
355.907	8855
355.991	8853
356.076	6453
356.161	7850
356.246	7266
356.331	7653
356.416	8341
356.501	18167
356.585	16191
356.670	8856
356.755	10312
356.840	9832
356.924	19125
357.009	37146
357.094	15758
357.179	9173
357.263	8131
357.348	8999
357.433	7963
357.517	8349
357.602	7478
357.687	8799
357.771	9878
357.856	9300
357.941	9480
358.025	14139
358.110	39458
358.195	20946
358.279	9024
358.364	9235
358.448	10771
358.533	15261
358.617	12828
358.702	13561
358.787	10138
358.871	9126
358.956	9651
359.040	8448
359.125	7910
359.209	8157
359.294	9801
359.378	16240
359.462	13606
359.547	9826
359.631	8360
359.716	8086
359.800	8284
359.885	9443
359.969	7489
360.053	8942
360.138	8170
360.222	8367
360.306	8586
360.391	8949
360.475	8302
360.559	9828
360.644	10644
360.728	10572
360.812	15459
360.896	25412
360.981	13165
361.065	11178
361.149	10290
361.233	10050
361.318	9466
361.402	10645
361.486	12041
361.570	12776
361.654	12465
361.739	14711
361.823	22350
361.907	32878
361.991	20468
362.075	24654
362.159	32133
362.243	55877
362.327	109110
362.411	132322
362.495	63918
362.580	39600
362.664	38482
362.748	44974
362.832	67980
362.916	122285
363.000	233739
363.084	263267
363.168	134855
363.252	59283
363.336	36526
363.420	29874
363.503	24915
363.587	24276
363.671	23465
363.755	24275
363.839	28970
363.923	31198
364.007	39852
364.091	54225
364.175	82279
364.258	148717
364.342	268704
364.426	348702
364.510	212619
364.594	96422
364.677	53899
364.761	45917
364.845	34694
364.929	22671
365.013	18703
365.096	17300
365.180	14428
365.264	14303
365.347	13399
365.431	12342
365.515	12100
365.598	11306
365.682	13637
365.766	12011
365.849	11744
365.933	11601
366.017	13920
366.100	11839
366.184	12380
366.267	13161
366.351	12215
366.435	11680
366.518	10714
366.602	11982
366.685	10821
366.769	11388
366.852	11227
366.936	11886
367.019	10752
367.103	11274
367.186	11736
367.270	11576
367.353	11386
367.436	13977
367.520	12878
367.603	13703
367.687	11245
367.770	13160
367.853	12648
367.937	15079
368.020	16702
368.104	10771
368.187	11497
368.270	11108
368.353	10188
368.437	9723
368.520	10836
368.603	9880
368.687	11162
368.770	13935
368.853	10233
368.936	10243
369.020	9631
369.103	8900
369.186	8839
369.269	9057
369.352	9721
369.436	8571
369.519	9067
369.602	7872
369.685	10286
369.768	8266
369.851	10059
369.934	8115
370.018	8351
370.101	8454
370.184	10988
370.267	8904
370.350	10023
370.433	11096
370.516	24666
370.599	62227
370.682	31848
370.765	14461
370.848	13583
370.931	15929
371.014	12079
371.097	7808
371.180	8986
371.263	9962
371.346	7289
371.429	9111
371.511	7588
371.594	8755
371.677	8992
371.760	10789
371.843	8916
371.926	20417
372.009	34620
372.091	17479
372.174	11538
372.257	18772
372.340	12383
372.423	9714
372.505	11375
372.588	8797
372.671	11149
372.754	15343
372.836	12005
372.919	9759
373.002	10610
373.085	9265
373.167	11258
373.250	12063
373.332	18175
373.415	25034
373.498	46010
373.580	31177
373.663	83450
373.746	89413
373.828	23052
373.911	14617
373.993	11602
374.076	12044
374.159	11451
374.241	13472
374.324	16154
374.406	16658
374.489	19368
374.571	37284
374.654	20055
374.736	15600
374.819	25646
374.901	34986
374.983	36636
375.066	16069
375.148	14245
375.231	13518
375.313	14558
375.395	14694
375.478	14455
375.560	14391
375.643	14074
375.725	16855
375.807	28328
375.890	23866
375.972	12775
376.054	13524
376.136	12155
376.219	12197
376.301	15599
376.383	23238
376.465	14990
376.548	12076
376.630	11995
376.712	20113
376.794	12721
376.877	9407
376.959	8434
377.041	9520
377.123	8600
377.205	9665
377.287	8874
377.369	10325
377.452	10121
377.534	10410
377.616	9930
377.698	10674
377.780	8921
377.862	9512
377.944	10072
378.026	9288
378.108	10298
378.190	9513
378.272	9652
378.354	9615
378.436	9638
378.518	8827
378.600	9724
378.682	10420
378.764	11658
378.846	11741
378.928	8702
379.010	9663
379.091	10147
379.173	9693
379.255	8479
379.337	8804
379.419	9106
379.501	14125
379.583	10794
379.664	9648
379.746	8315
379.828	12581
379.910	11923
379.991	13039
380.073	7973
380.155	9289
380.237	7602
380.318	8593
380.400	8220
380.482	9808
380.564	9168
380.645	11757
380.727	10669
380.809	9911
380.890	9117
380.972	8291
381.053	9155
381.135	9571
381.217	8742
381.298	12672
381.380	9905
381.461	9822
381.543	18125
381.624	21859
381.706	10190
381.787	9610
381.869	10977
381.951	13606
382.032	32670
382.113	25014
382.195	9894
382.276	11696
382.358	14758
382.439	19383
382.521	23090
382.602	31217
382.684	17273
382.765	21486
382.846	22615
382.928	31502
383.009	20980
383.090	20543
383.172	45477
383.253	58886
383.334	26472
383.416	29392
383.497	19221
383.578	15297
383.659	20495
383.741	45666
383.822	91153
383.903	48743
383.984	23155
384.066	29186
384.147	22743
384.228	16669
384.309	18017
384.390	19387
384.471	17615
384.553	16384
384.634	14727
384.715	15005
384.796	13503
384.877	13202
384.958	15800
385.039	15482
385.120	13954
385.201	14157
385.282	13156
385.363	15145
385.444	15906
385.525	17001
385.606	24043
385.687	22978
385.768	17604
385.849	16739
385.930	27695
386.011	39124
386.092	21588
386.173	18550
386.254	17759
386.335	17663
386.416	16711
386.496	18524
386.577	19796
386.658	17865
386.739	16854
386.820	18133
386.901	17223
386.981	21065
387.062	21315
387.143	23493
387.224	26932
387.304	29863
387.385	28325
387.466	26888
387.547	28624
387.627	29264
387.708	30878
387.789	35162
387.869	35034
387.950	28575
388.031	23414
388.111	21249
388.192	22756
388.273	23051
388.353	21104
388.434	18046
388.514	18201
388.595	27339
388.676	27043
388.756	19209
388.837	19185
388.917	16800
388.998	14386
389.078	15960
389.159	14959
389.239	13168
389.320	15948
389.400	13211
389.480	15995
389.561	17140
389.641	16639
389.722	14965
389.802	14103
389.883	16635
389.963	19474
390.043	16363
390.124	13830
390.204	15018
390.284	17351
390.365	15301
390.445	14846
390.525	14274
390.605	15489
390.686	14675
390.766	16316
390.846	17147
390.927	14040
391.007	14686
391.087	16935
391.167	16032
391.247	15414
391.328	17154
391.408	17753
391.488	18324
391.568	16810
391.648	18914
391.728	20138
391.808	21468
391.888	22424
391.969	24076
392.049	25341
392.129	27611
392.209	28855
392.289	35505
392.369	34463
392.449	34843
392.529	37649
392.609	43930
392.689	48426
392.769	61428
392.849	72863
392.929	91668
393.009	120019
393.089	169305
393.169	263198
393.248	421100
393.328	540173
393.408	525153
393.488	408779
393.568	253906
393.648	160327
393.728	108350
393.807	78280
393.887	63137
393.967	51750
394.047	43016
394.127	36765
394.206	33878
394.286	29395
394.366	28481
394.446	27252
394.525	24175
394.605	23318
394.685	23830
394.764	26588
394.844	42938
394.924	58267
395.003	32351
395.083	22873
395.163	21463
395.242	19684
395.322	21393
395.402	19657
395.481	23479
395.561	25661
395.640	62094
395.720	123225
395.799	70054
395.879	32541
395.958	28122
396.038	28414
396.117	31266
396.197	33897
396.276	38638
396.356	44990
396.435	57544
396.515	78198
396.594	116372
396.673	203724
396.753	374881
396.832	504836
396.912	441202
396.991	257670
397.070	140248
397.150	87597
397.229	73659
397.308	106887
397.388	178261
397.467	103205
397.546	45509
397.625	29732
397.705	29277
397.784	24157
397.863	21887
397.942	20088
398.022	19458
398.101	17671
398.180	17503
398.259	15707
398.338	17556
398.417	15115
398.497	14981
398.576	14797
398.655	13918
398.734	14072
398.813	13162
398.892	12254
398.971	13351
399.050	11326
399.129	11900
399.208	11701
399.287	12070
399.366	10598
399.445	10768
399.524	11371
399.603	10223
399.682	11146
399.761	10811
399.840	11241
399.919	11131
399.998	9718
400.077	9021
400.156	8443
400.235	11258
400.313	9352
400.392	8717
400.471	11078
400.550	11845
400.629	8993
400.708	9971
400.786	8433
400.865	9048
400.944	7331
401.023	10394
401.102	7595
401.180	8217
401.259	8008
401.338	7957
401.416	8523
401.495	7768
401.574	8895
401.652	7551
401.731	8968
401.810	7988
401.888	7613
401.967	7872
402.046	7826
402.124	7926
402.203	6557
402.281	8179
402.360	6555
402.438	8375
402.517	6715
402.596	8335
402.674	7463
402.753	8277
402.831	8212
402.910	10474
402.988	15081
403.066	40378
403.145	25661
403.223	18398
403.302	36499
403.380	29610
403.459	31467
403.537	17267
403.615	11323
403.694	8808
403.772	10497
403.850	10109
403.929	9218
404.007	8483
404.085	12790
404.164	12438
404.242	9687
404.320	10924
404.398	9525
404.477	10210
404.555	22250
404.633	20123
404.711	10381
404.789	9400
404.868	8962
404.946	9017
405.024	7868
405.102	7773
405.180	6616
405.258	5720
405.336	8388
405.415	5777
405.493	8565
405.571	9692
405.649	6709
405.727	7114
405.805	9884
405.883	9508
405.961	8899
406.039	7812
406.117	6608
406.195	7827
406.273	7771
406.351	16920
406.429	12482
406.507	7448
406.585	6072
406.663	7028
406.740	7371
406.818	6943
406.896	6774
406.974	8548
407.052	6188
407.130	11297
407.208	14008
407.285	9206
407.363	6885
407.441	7481
407.519	7173
407.596	9733
407.674	21438
407.752	75392
407.830	54529
407.907	14406
407.985	8062
408.063	7576
408.141	6884
408.218	7935
408.296	8467
408.373	9986
408.451	9478
408.529	10335
408.606	10209
408.684	11437
408.762	10984
408.839	11763
408.917	11903
408.994	13634
409.072	15173
409.149	17955
409.227	26032
409.304	36086
409.382	40430
409.459	45913
409.537	56301
409.614	53522
409.692	45551
409.769	45699
409.846	58241
409.924	66389
410.001	54282
410.079	43816
410.156	36018
410.233	28734
410.311	23408
410.388	22057
410.465	19090
410.543	17296
410.620	17245
410.697	16154
410.775	15417
410.852	14158
410.929	16627
411.006	16395
411.083	14602
411.161	13867
411.238	13916
411.315	12194
411.392	12273
411.469	12802
411.547	10626
411.624	9572
411.701	9488
411.778	10387
411.855	9782
411.932	9562
412.009	8929
412.086	8993
412.163	9117
412.240	8416
412.317	9001
412.394	7830
412.471	8312
412.548	7863
412.625	7930
412.702	8014
412.779	8177
412.856	8358
412.933	7996
413.010	8176
413.087	7855
413.164	7466
413.241	9417
413.318	6485
413.395	7915
413.471	6715
413.548	6585
413.625	7650
413.702	5969
413.779	6761
413.855	6562
413.932	5887
414.009	5587
414.086	6263
414.162	6087
414.239	6936
414.316	7505
414.393	10812
414.469	6391
414.546	5996
414.623	6697
414.699	6071
414.776	6312
414.853	5680
414.929	5998
415.006	5814
415.082	5166
415.159	6564
415.236	6233
415.312	6515
415.389	5867
415.465	5750
415.542	5035
415.618	5682
415.695	6511
415.771	6173
415.848	5947
415.924	6361
416.000	5975
416.077	7333
416.153	5530
416.230	5269
416.306	5378
416.383	5462
416.459	6067
416.535	5545
416.612	5326
416.688	6420
416.764	6259
416.841	5548
416.917	6100
416.993	5279
417.069	6482
417.146	5965
417.222	5901
417.298	6283
417.374	5690
417.451	6994
417.527	5222
417.603	6050
417.679	6061
417.755	5704
417.831	5538
417.908	6930
417.984	6558
418.060	5552
418.136	6377
418.212	6249
418.288	6389
418.364	7199
418.440	6099
418.516	6926
418.592	7011
418.668	7564
418.744	6979
418.820	7207
418.896	7057
418.972	6919
419.048	7274
419.124	9091
419.200	5866
419.276	8228
419.352	7338
419.428	9086
419.504	7797
419.579	8157
419.655	9347
419.731	9118
419.807	10614
419.883	11285
419.959	10296
420.034	11304
420.110	10637
420.186	12383
420.262	13535
420.337	12243
420.413	13316
420.489	13576
420.565	15110
420.640	15738
420.716	17062
420.792	15966
420.867	17516
420.943	18830
421.019	19678
421.094	20490
421.170	23780
421.245	25147
421.321	27902
421.397	30527
421.472	44082
421.548	76400
421.623	59717
421.699	46460
421.774	48729
421.850	55361
421.925	65014
422.001	76790
422.076	90500
422.152	111361
422.227	139098
422.302	174828
422.378	221863
422.453	279346
422.529	297377
422.604	226048
422.679	144627
422.755	223274
422.830	297507
422.905	278045
422.981	230275
423.056	185641
423.131	151138
423.207	120088
423.282	99109
423.357	84026
423.432	69976
423.508	63568
423.583	53461
423.658	49171
423.733	42350
423.808	40101
423.883	38105
423.959	39010
424.034	41671
424.109	38720
424.184	31026
424.259	27255
424.334	24450
424.409	21375
424.484	20560
424.559	19306
424.634	17198
424.709	17172
424.784	16310
424.859	14897
424.934	14209
425.009	15438
425.084	15247
425.159	13373
425.234	12950
425.309	11201
425.384	12065
425.459	10218
425.534	10805
425.609	10962
425.683	10021
425.758	10577
425.833	10655
425.908	10432
425.983	9215
426.058	12227
426.132	9842
426.207	9196
426.282	9686
426.357	8066
426.431	9019
426.506	8561
426.581	8570
426.655	7996
426.730	7433
426.805	7002
426.879	8489
426.954	7766
427.029	6871
427.103	10784
427.178	14581
427.253	11227
427.327	7898
427.402	7490
427.476	7338
427.551	7399
427.625	7847
427.700	8280
427.774	6273
427.849	8545
427.923	7904
427.998	9372
428.072	11494
428.147	22643
428.221	68847
428.296	166131
428.370	102645
428.444	26108
428.519	13456
428.593	10285
428.667	11446
428.742	14689
428.816	31744
428.890	110692
428.965	151967
429.039	50301
429.113	14870
429.188	10507
429.262	9088
429.336	9110
429.410	9639
429.485	8402
429.559	9361
429.633	11247
429.707	13346
429.781	29753
429.855	104970
429.930	138859
430.004	50885
430.078	38321
430.152	89530
430.226	215854
430.300	205517
430.374	74419
430.448	29952
430.522	19094
430.596	18335
430.670	44739
430.744	133529
430.818	134410
430.892	37276
430.966	12926
431.040	9277
431.114	7270
431.188	6880
431.262	7032
431.336	6257
431.410	6730
431.484	6726
431.557	8415
431.631	9043
431.705	17929
431.779	58086
431.853	160689
431.927	112291
432.000	26869
432.074	9677
432.148	7523
432.222	5221
432.295	4935
432.369	4490
432.443	4373
432.516	6420
432.590	11987
432.664	6704
432.737	3404
432.811	3451
432.885	3819
432.958	3644
433.032	3628
433.106	3717
433.179	3558
433.253	3838
433.326	3735
433.400	3376
433.473	4068
433.547	3633
433.620	3993
433.694	2697
433.767	5020
433.841	4601
433.914	4694
433.988	4246
434.061	4292
434.134	4712
434.208	4747
434.281	3736
434.355	3046
434.428	4841
434.501	3943
434.575	3735
434.648	2823
434.721	3609
434.795	5184
434.868	4433
434.941	4994
435.014	4679
435.088	5426
435.161	6109
435.234	6809
435.307	8532
435.381	11081
435.454	16007
435.527	24363
435.600	28433
435.673	26657
435.746	21067
435.819	17183
435.892	13353
435.966	12332
436.039	9353
436.112	9017
436.185	7524
436.258	6686
436.331	6163
436.404	5761
436.477	5419
436.550	5165
436.623	6088
436.696	4885
436.769	3964
436.842	4462
436.915	4107
436.987	4158
437.060	4157
437.133	4249
437.206	3201
437.279	3866
437.352	3441
437.425	3662
437.498	3561
437.570	3933
437.643	3167
437.716	3732
437.789	3161
437.861	2677
437.934	3501
438.007	3725
438.080	2844
438.152	3126
438.225	2610
438.298	7624
438.370	17188
438.443	8392
438.516	3893
438.588	3682
438.661	3116
438.734	3116
438.806	3238
438.879	4151
438.951	2955
439.024	3133
439.096	3410
439.169	3168
439.241	3882
439.314	3181
439.386	2895
439.459	4030
439.531	3974
439.604	3232
439.676	3084
439.749	3745
439.821	2490
439.893	3224
439.966	2151
440.038	2606
440.110	3712
440.183	3474
440.255	2605
440.327	4249
440.400	5171
440.472	10025
440.544	7340
440.617	4263
440.689	4314
440.761	4373
440.833	3602
440.905	4059
440.978	3564
441.050	4696
441.122	4506
441.194	4331
441.266	4583
441.338	3795
441.411	4695
441.483	6376
441.555	6365
441.627	5412
441.699	4609
441.771	4783
441.843	5154
441.915	6231
441.987	5966
442.059	7562
442.131	8196
442.203	10938
442.275	14386
442.347	23867
442.419	51114
442.491	149415
442.563	244686
442.635	125688
442.706	40218
442.778	21507
442.850	15850
442.922	13849
442.994	13689
443.066	16077
443.137	18253
443.209	26735
443.281	40278
443.353	76952
443.425	180701
443.496	323006
443.568	330252
443.640	184100
443.711	70212
443.783	33422
443.855	22939
443.926	16447
443.998	12575
444.070	11459
444.141	11264
444.213	9040
444.285	9024
444.356	8825
444.428	8027
444.499	8771
444.571	8057
444.642	9381
444.714	10181
444.785	10662
444.857	12018
444.928	13803
445.000	16107
445.071	21002
445.143	27187
445.214	42357
445.285	66483
445.357	136376
445.428	272778
445.500	350621
445.571	335506
445.642	255948
445.714	121910
445.785	52685
445.856	30238
445.928	21037
445.999	15822
446.070	12427
446.141	10907
446.213	9738
446.284	7887
446.355	7713
446.426	6164
446.497	6862
446.569	5480
446.640	5098
446.711	4593
446.782	4316
446.853	4582
446.924	3711
446.995	2884
447.066	4162
447.138	3039
447.209	3358
447.280	2696
447.351	3203
447.422	2667
447.493	3497
447.564	2186
447.635	2269
447.706	1631
447.777	1948
447.847	1801
447.918	1948
447.989	2621
448.060	3155
448.131	1878
448.202	2536
448.273	2102
448.344	2548
448.414	2441
448.485	2206
448.556	1901
448.627	2292
448.698	3073
448.768	2634
448.839	1503
448.910	1496
448.981	2242
449.051	2607
449.122	1994
449.193	2006
449.263	2241
449.334	1278
449.405	1499
449.475	2913
449.546	2882
449.616	3278
449.687	2779
449.758	2531
449.828	2238
449.899	2612
449.969	2372
450.040	2216
450.110	2364
450.181	2697
450.251	2078
450.322	2335
450.392	2626
450.463	2197
450.533	2337
450.604	2854
450.674	2079
450.744	3876
450.815	3833
450.885	4672
450.955	4562
451.026	3958
451.096	4095
451.166	4407
451.237	4761
451.307	6487
451.377	5085
451.447	3577
451.518	3134
451.588	3722
451.658	2841
451.728	2283
451.799	3103
451.869	2679
451.939	1912
452.009	2973
452.079	2793
452.149	3412
452.219	2275
452.289	3839
452.360	3614
452.430	5217
452.500	6975
452.570	11835
452.640	23228
452.710	51997
452.780	59608
452.850	39478
452.920	21699
452.990	13378
453.060	8854
453.129	7053
453.199	4827
453.269	4251
453.339	3973
453.409	3708
453.479	2714
453.549	2958
453.619	2617
453.688	2634
453.758	2561
453.828	2162
453.898	1739
453.968	3062
454.037	1599
454.087	1832
454.107	1910
454.168	1475
454.177	1391
454.247	1712
454.249	1727
454.316	1553
454.330	1581
454.386	1611
454.411	1535
454.456	1309
454.492	1775
454.525	2183
454.574	2521
454.595	2650
454.655	2587
454.665	2553
454.734	2666
454.736	2695
454.804	2865
454.817	2939
454.873	3172
454.898	3094
454.943	2926
454.979	2246
455.013	1552
455.060	2223
455.082	2519
455.141	2288
455.152	2218
455.221	3081
455.222	3091
455.291	2507
455.303	2575
455.360	2724
455.384	2796
455.430	2756
455.465	3008
455.499	3215
455.546	2463
455.569	2092
455.627	2489
455.638	2534
455.707	2693
455.708	2715
455.777	3084
455.789	3122
455.846	3239
455.869	3156
455.916	2926
455.950	2568
455.985	2174
456.031	2480
456.054	2616
456.112	3132
456.124	3225
456.193	3612
456.193	3589
456.262	3965
456.274	4056
456.332	4352
456.355	4019
456.401	3335
456.436	3740
456.470	4023
456.516	3806
456.540	3694
456.597	3454
456.609	3397
456.678	4331
456.678	4306
456.747	4376
456.759	4358
456.817	4306
456.840	4299
456.886	4292
456.920	4653
456.955	4819
457.001	4856
457.024	4887
457.082	5310
457.093	5377
457.162	5786
457.163	5813
457.232	5970
457.243	6082
457.301	6629
457.324	6562
457.370	6553
457.405	7355
457.439	8113
457.485	8219
457.508	8352
457.566	10144
457.577	10772
457.646	15587
457.647	15688
457.715	31781
457.727	35825
457.784	64077
457.808	84375
457.853	110313
457.889	131322
457.922	133046
457.969	96851
457.991	95634
458.050	103431
458.060	106187
458.129	171910
458.130	173941
458.198	186698
458.211	174180
458.267	111492
458.292	83028
458.336	57294
458.372	50028
458.405	57380
458.453	77176
458.474	94522
458.533	162881
458.543	168856
458.611	259962
458.614	261644
458.680	188342
458.694	159704
458.749	88130
458.775	64425
458.818	40221
458.855	30033
458.887	23704
458.936	18994
458.955	17591
459.016	14054
459.024	13649
459.093	12310
459.097	12228
459.162	10522
459.177	10400
459.230	10228
459.257	10294
459.299	9980
459.338	9248
459.368	8782
459.418	8510
459.437	8466
459.499	8505
459.505	8523
459.574	7775
459.579	7840
459.643	7898
459.659	7802
459.711	7744
459.740	7887
459.780	8213
459.820	8154
459.849	7870
459.900	7829
459.917	7804
459.981	7423
459.986	7432
460.054	7935
460.061	7976
460.123	7692
460.141	7690
460.191	8050
460.222	8113
460.260	7929
460.302	7719
460.328	7717
460.382	8260
460.397	8620
460.462	10194
460.465	10445
460.534	16365
460.543	17225
460.602	42287
460.623	52172
460.671	79409
460.703	105597
460.739	99844
460.783	80847
460.808	68262
460.864	20816
460.876	16692
460.944	9385
460.945	9311
461.013	7810
461.024	7701
461.081	7479
461.104	7485
461.150	7785
461.184	7985
461.218	8009
461.264	7827
461.286	7745
461.345	7536
461.355	7518
461.423	7494
461.425	7496
461.491	7306
461.505	7388
461.559	7787
461.585	7671
461.628	7280
461.665	7425
461.696	7622
461.745	7337
461.764	7340
461.825	7653
461.832	7669
461.901	7542
461.905	7571
461.969	7542
461.985	7445
462.037	8119
462.065	8503
462.105	7880
462.145	7488
462.173	7866
462.225	8051
462.241	7879
462.305	7469
462.310	7501
462.378	8190
462.385	8252
462.446	8356
462.465	8379
462.514	8441
462.545	8445
462.582	8380
462.625	8264
462.650	8298
462.705	8345
462.718	8196
462.785	7837
462.786	7832
462.854	6697
462.865	6554
462.922	7198
462.945	7588
462.990	7723
463.025	7609
463.058	8028
463.104	8534
463.126	8224
463.184	7465
463.194	7514
463.262	7763
463.264	7779
463.330	8364
463.344	8406
463.398	8655
463.424	8730
463.466	8132
463.504	7860
463.533	8119
463.583	8123
463.601	8010
463.663	7707
463.669	7690
463.737	7654
463.743	7636
463.805	8538
463.823	8707
463.873	8243
463.903	8195
463.940	8285
463.982	8090
464.008	8082
464.062	8198
464.076	8305
464.142	8866
464.144	8861
464.211	8029
464.221	7943
464.279	8170
464.301	8153
464.347	8143
464.381	8186
464.414	7901
464.461	7555
464.482	7634
464.540	7626
464.550	7689
464.617	8236
464.620	8245
464.685	8294
464.699	8259
464.753	8296
464.779	8311
464.820	8135
464.859	7942
464.888	7713
464.938	7453
464.956	7895
465.018	9223
465.023	9190
465.091	8717
465.098	8659
465.158	8342
465.177	8194
465.226	8335
465.257	8408
465.293	8455
465.336	8459
465.361	8632
465.416	9029
465.428	8875
465.495	8099
465.496	8110
465.563	7979
465.575	7928
465.631	7838
465.654	7846
465.698	8296
465.734	8639
465.765	8992
465.813	9475
465.833	9293
465.893	8621
465.900	8634
465.968	8663
465.972	8647
466.035	9220
466.052	9360
466.102	9179
466.131	9104
466.170	9020
466.210	8793
466.237	8868
466.290	9011
466.304	9008
466.369	8840
466.372	8859
466.439	9096
466.449	9097
466.506	8994
466.528	8930
466.573	9137
466.607	9257
466.641	9744
466.687	10455
466.708	10366
466.766	9995
466.775	10001
466.842	9949
466.845	9928
466.909	9998
466.925	9996
466.977	10167
467.004	10229
467.044	10196
467.083	10147
467.111	10014
467.163	9702
467.178	9950
467.242	10890
467.245	10919
467.312	11115
467.321	11122
467.379	10760
467.400	10595
467.446	11224
467.480	11644
467.559	12228
467.638	12457
467.717	11824
467.796	12970
467.875	14064
467.955	14450
468.034	15972
468.113	17731
468.192	21079
468.271	26929
468.350	37546
468.429	48362
468.508	51653
468.588	34735
468.667	23026
468.746	17801
468.825	15109
468.904	14471
468.983	13654
469.062	13429
469.141	12807
469.220	11616
469.299	11512
469.378	10438
469.456	12141
469.535	11690
469.614	10618
469.693	10574
469.772	10601
469.851	11879
469.930	10812
470.009	10943
470.088	11936
470.166	11311
470.245	12037
470.324	12375
470.403	11879
470.482	11884
470.560	12029
470.639	10633
470.718	11980
470.797	10998
470.875	11145
470.954	10610
471.033	10850
471.111	10331
471.190	10554
471.269	10426
471.347	10551
471.426	9983
471.505	11366
471.583	10215
471.662	10801
471.740	11168
471.819	10872
471.898	10919
471.976	10687
472.055	10831
472.133	12051
472.212	16219
472.290	11381
472.369	10268
472.447	10407
472.526	9899
472.604	11189
472.683	11032
472.761	11477
472.839	11370
472.918	11119
472.996	10538
473.075	11265
473.153	11837
473.231	11513
473.310	11526
473.388	11637
473.466	11952
473.545	12126
473.623	12162
473.701	12224
473.780	12011
473.858	11193
473.936	13556
474.014	12649
474.093	14175
474.171	15765
474.249	12942
474.327	11184
474.405	10325
474.484	11985
474.562	12119
474.640	11772
474.718	11531
474.796	11572
474.874	11732
474.952	11082
475.030	11167
475.108	11321
475.187	11551
475.265	11721
475.343	14117
475.421	16251
475.499	11255
475.577	11070
475.655	12986
475.733	11573
475.811	10276
475.889	10634
475.966	11301
476.044	11766
476.122	12046
476.200	14570
476.278	12023
476.356	10922
476.434	11450
476.512	12342
476.590	14924
476.667	13070
476.745	11145
476.823	11310
476.901	10905
476.979	10599
477.056	11020
477.134	10819
477.212	11542
477.290	11072
477.367	10737
477.445	11397
477.523	10158
477.601	9997
477.678	10636
477.756	10653
477.834	10242
477.911	10696
477.989	10671
478.066	10875
478.144	11538
478.222	12328
478.299	17214
478.377	18379
478.454	14121
478.532	10963
478.609	9899
478.687	10729
478.764	10024
478.842	10647
478.919	10553
478.997	10707
479.074	10196
479.152	10302
479.229	11306
479.307	10645
479.384	10615
479.461	11928
479.539	10743
479.616	10965
479.694	10570
479.771	10736
479.848	9974
479.926	10226
480.003	12073
480.080	11398
480.157	11097
480.235	11296
480.312	11222
480.389	11765
480.467	10883
480.544	12517
480.621	13224
480.698	13692
480.775	13973
480.853	12486
480.930	13059
481.007	12814
481.084	17241
481.161	27799
481.238	18614
481.315	12137
481.392	12230
481.470	12930
481.547	13053
481.624	12345
481.701	13161
481.778	13195
481.855	14081
481.932	14754
482.009	15678
482.086	15655
482.163	18961
482.240	22022
482.317	27277
482.393	23676
482.470	17930
482.547	18533
482.624	16057
482.701	15156
482.778	16473
482.855	16181
482.932	16488
483.009	17263
483.085	21477
483.162	27313
483.239	27076
483.316	22890
483.393	21783
483.469	18847
483.546	17770
483.623	16066
483.699	15171
483.776	14141
483.853	13885
483.930	13787
484.006	13852
484.083	15066
484.160	14088
484.236	14587
484.313	14897
484.389	16197
484.466	19168
484.543	22427
484.619	27128
484.696	30743
484.772	22124
484.849	15802
484.925	14393
485.002	14128
485.078	13064
485.155	13074
485.231	12566
485.308	11154
485.384	12914
485.461	12774
485.537	12009
485.614	12083
485.690	12709
485.766	11866
485.843	11181
485.919	12130
485.995	10991
486.072	11316
486.148	11447
486.224	11239
486.301	11151
486.377	11456
486.453	11761
486.530	12437
486.606	13406
486.682	11869
486.758	12834
486.835	15688
486.911	14560
486.987	16573
487.063	18092
487.139	20801
487.215	30013
487.292	30960
487.368	31303
487.444	40178
487.520	56044
487.596	88114
487.672	180031
487.748	511386
487.824	793931
487.900	386939
487.976	131443
488.052	64334
488.128	41398
488.204	29611
488.280	25348
488.356	21511
488.432	18901
488.508	17779
488.584	16099
488.660	15230
488.736	15166
488.812	12978
488.888	13788
488.964	13131
489.039	14006
489.115	16856
489.191	16098
489.267	13860
489.343	12023
489.418	11557
489.494	11637
489.570	10547
489.646	12603
489.722	11890
489.797	11783
489.873	12465
489.949	12806
490.024	12068
490.100	11404
490.176	12214
490.251	11300
490.327	11418
490.403	11939
490.478	11886
490.554	11004
490.629	11924
490.705	10732
490.781	11861
490.856	11535
490.932	10925
491.007	11015
491.083	10756
491.158	10435
491.234	9771
491.309	11056
491.385	9928
491.460	10116
491.536	10751
491.611	9910
491.686	10850
491.762	10269
491.837	10721
491.913	11934
491.988	12149
492.063	12907
492.139	10945
492.214	9932
492.289	9572
492.365	9930
492.440	9542
492.515	9285
492.590	9250
492.666	8506
492.741	9640
492.816	10450
492.891	8497
492.967	10390
493.042	9456
493.117	8855
493.192	9686
493.267	9782
493.342	10713
493.418	11088
493.493	8438
493.568	9302
493.643	8495
493.718	9746
493.793	9322
493.868	9357
493.943	9098
494.018	9079
494.093	9173
494.168	8831
494.243	8767
494.318	9526
494.393	8840
494.468	9112
494.543	8950
494.618	8532
494.693	8927
494.768	8340
494.842	8875
494.917	8862
494.992	10461
495.067	8730
495.142	8561
495.217	8601
495.292	8186
495.366	7886
495.441	8713
495.516	10060
495.591	8863
495.665	12613
495.740	17389
495.815	12257
495.890	8941
495.964	8185
496.039	11816
496.114	13049
496.188	24445
496.263	18420
496.338	10758
496.412	8058
496.487	9092
496.561	8613
496.636	9432
496.710	9429
496.785	11472
496.860	8668
496.934	8567
497.009	8925
497.083	8179
497.158	8274
497.232	8498
497.307	9042
497.381	9016
497.455	8286
497.530	8645
497.604	8472
497.679	8354
497.753	8692
497.827	8161
497.902	8460
497.976	8700
498.050	8433
498.125	7927
498.199	8411
498.273	8305
498.348	9055
498.422	8106
498.496	9244
498.570	9841
498.645	8109
498.719	6966
498.793	9443
498.867	8340
498.941	8589
499.016	8463
499.090	8060
499.164	8872
499.238	10464
499.312	8645
499.386	9771
499.460	9616
499.534	9782
499.609	10053
499.683	9016
499.757	10214
499.831	8653
499.905	8431
499.979	9140
500.053	9094
500.127	9215
500.201	9205
500.275	8591
500.349	10077
500.422	8706
500.496	9886
500.570	10277
500.644	10303
500.718	9400
500.792	9714
500.866	9441
500.940	9762
501.013	9687
501.087	10143
501.161	10397
501.235	9549
501.309	12162
501.382	9941
501.456	10058
501.530	9284
501.603	8956
501.677	9346
501.751	8132
501.825	11388
501.898	9695
501.972	9287
502.046	8987
502.119	8434
502.193	10246
502.266	9076
502.340	8498
502.413	9374
502.487	9426
502.561	8181
502.634	9915
502.708	9313
502.781	9519
502.855	11017
502.928	9877
503.002	10687
503.075	10161
503.149	10145
503.222	11297
503.295	10259
503.369	12026
503.442	13941
503.516	14977
503.589	16838
503.662	19987
503.736	24648
503.809	31803
503.882	41330
503.956	62698
504.029	123387
504.102	315530
504.175	479416
504.249	241695
504.322	103162
504.395	57394
504.468	37581
504.542	26446
504.615	19513
504.688	19028
504.761	13829
504.834	14672
504.907	13197
504.980	11551
505.053	10801
505.127	8856
505.200	12799
505.273	9932
505.346	9872
505.419	9131
505.492	10446
505.565	9698
505.638	9063
505.711	8150
505.784	6823
505.857	8106
505.930	9235
506.003	7170
506.076	9337
506.149	6948
506.221	6830
506.294	8881
506.367	5846
506.440	7455
506.513	7602
506.586	6596
506.659	6184
506.731	7283
506.804	6775
506.877	6613
506.950	7199
507.022	7868
507.095	6107
507.168	7350
507.241	8045
507.313	6858
507.386	5878
507.459	8069
507.531	6306
507.604	6465
507.677	7226
507.749	6093
507.822	8027
507.894	6748
507.967	7605
508.040	6233
508.112	7944
508.185	7216
508.257	6122
508.330	9001
508.402	5684
508.475	6635
508.547	6525
508.620	6227
508.692	6483
508.765	7271
508.837	6576
508.909	7123
508.982	6457
509.054	6764
509.127	7055
509.199	7053
509.271	6078
509.344	6525
509.416	7719
509.488	6752
509.560	7363
509.633	5386
509.705	6683
509.777	6645
509.849	8088
509.922	5299
509.994	6131
510.066	7289
510.138	4297
510.210	8725
510.283	6749
510.355	6852
510.427	6940
510.499	6874
510.571	6179
510.643	6156
510.715	7523
510.787	5162
510.859	8105
510.931	6756
511.003	7159
511.076	7518
511.148	5757
511.219	5331
511.291	7488
511.363	7088
511.435	6725
511.507	5372
511.579	7739
511.651	7673
511.723	6597
511.795	6768
511.867	6849
511.939	6453
512.010	5674
512.082	6883
512.154	5618
512.226	7526
512.298	7538
512.369	5707
512.441	7620
512.513	7529
512.585	6558
512.656	7165
512.728	6788
512.800	6676
512.871	6419
512.943	7431
513.015	4827
513.086	7618
513.158	8194
513.230	6802
513.301	6296
513.373	8249
513.444	7689
513.516	6892
513.588	5817
513.659	7422
513.731	6574
513.802	6092
513.874	9196
513.945	8379
514.016	6443
514.088	6987
514.159	6036
514.231	6755
514.302	5832
514.374	6944
514.445	4917
514.516	9059
514.588	6330
514.659	7545
514.730	6550
514.802	7693
514.873	4451
514.944	8547
515.016	7620
515.087	6896
515.158	6487
515.229	7885
515.301	5417
515.372	8495
515.443	6321
515.514	7785
515.585	6998
515.656	8253
515.728	8508
515.799	6842
515.870	8188
515.941	7870
516.012	6369
516.083	8667
516.154	6117
516.225	8452
516.296	9956
516.367	8303
516.438	8591
516.509	8867
516.580	8974
516.651	16495
516.722	36403
516.793	24379
516.864	9742
516.935	10592
517.006	11071
517.077	11504
517.148	17002
517.219	46368
517.289	78848
517.360	19560
517.431	11648
517.502	9846
517.573	10926
517.643	10013
517.714	10854
517.785	11539
517.856	12080
517.926	13750
517.997	15160
518.068	16593
518.138	20724
518.209	25024
518.280	47283
518.350	139331
518.421	87222
518.492	47583
518.562	59793
518.633	80348
518.703	124427
518.774	257639
518.845	569589
518.915	557754
518.986	217713
519.056	98730
519.127	58713
519.197	40375
519.268	30267
519.338	25083
519.408	19152
519.479	17244
519.549	15030
519.620	15205
519.690	12735
519.760	12432
519.831	11361
519.901	10271
519.971	10943
520.042	10236
520.112	8937
520.182	10100
520.253	9649
520.323	8160
520.393	7282
520.463	10441
520.534	6007
520.604	10055
520.674	8882
520.744	8518
520.814	7210
520.885	8830
520.955	8088
521.025	7493
521.095	7934
521.165	10055
521.235	7726
521.305	7902
521.375	8073
521.445	8018
521.515	8206
521.585	9273
521.655	7289
521.725	9375
521.795	8944
521.865	6805
521.935	10313
522.005	8098
522.075	7942
522.145	10103
522.215	8540
522.285	9301
522.355	8168
522.424	9352
522.494	9293
522.564	10195
522.634	9287
522.704	14535
522.774	9404
522.843	10238
522.913	10523
522.983	9774
523.053	9113
523.122	10088
523.192	8922
523.262	10087
523.331	10594
523.401	10140
523.471	9515
523.540	9490
523.610	9378
523.680	10352
523.749	11367
523.819	12975
523.888	12670
523.958	10972
524.027	10469
524.097	9741
524.166	10676
524.236	9956
524.305	11948
524.375	9851
524.444	8367
524.514	11968
524.583	10738
524.653	9855
524.722	10937
524.791	9682
524.861	13203
524.930	10934
524.999	12187
525.069	12754
525.138	13071
525.207	13351
525.277	15344
525.346	15011
525.415	17423
525.484	19107
525.554	20997
525.623	28021
525.692	37365
525.761	40043
525.830	48710
525.900	63961
525.969	98736
526.038	194472
526.107	353464
526.176	871954
526.245	759797
526.314	285942
526.383	478339
526.452	672449
526.522	778819
526.591	757338
526.660	214892
526.729	113032
526.797	109087
526.867	147908
526.935	354963
527.004	966556
527.073	755873
527.142	200180
527.211	82705
527.280	51552
527.349	36880
527.418	27124
527.487	24438
527.555	19540
527.624	18448
527.693	16294
527.762	17303
527.831	14606
527.899	14830
527.968	13929
528.037	12507
528.106	12588
528.174	13898
528.243	13710
528.312	12673
528.380	11434
528.449	10614
528.518	13632
528.586	11080
528.655	12049
528.723	11629
528.792	11187
528.861	11033
528.929	10465
528.998	12835
529.066	10462
529.135	10835
529.203	9612
529.272	9430
529.340	10552
529.409	12315
529.477	10012
529.545	10132
529.614	12158
529.682	9456
529.751	10429
529.819	13434
529.887	10148
529.956	9523
530.024	11603
530.092	11073
530.161	11865
530.229	10714
530.297	9289
530.365	12379
530.434	11184
530.502	9845
530.570	11933
530.638	9893
530.707	12101
530.775	13247
530.843	10413
530.911	11426
530.979	12090
531.047	11093
531.115	11209
531.183	11225
531.252	11339
531.320	10977
531.388	10164
531.456	12361
531.524	10371
531.592	12502
531.660	13408
531.728	11212
531.796	10652
531.864	12311
531.932	11648
532.000	12449
532.067	12174
532.135	11536
532.203	15608
532.271	13847
532.339	16142
532.407	16410
532.475	16635
532.542	15361
532.610	15015
532.678	13592
532.746	19400
532.814	24165
532.881	17799
532.949	16187
533.017	16110
533.084	13045
533.152	13779
533.220	13724
533.287	12968
533.355	13912
533.423	15096
533.490	13522
533.558	16063
533.625	15893
533.693	15905
533.761	15334
533.828	16624
533.896	14637
533.963	16854
534.031	19006
534.098	23109
534.166	26864
534.233	24255
534.300	29133
534.368	29191
534.435	29042
534.503	30297
534.570	33025
534.637	37504
534.705	43731
534.772	53563
534.840	99330
534.907	381710
534.974	522147
535.041	106997
535.109	43300
535.176	31903
535.243	28936
535.310	27007
535.378	25469
535.445	25798
535.512	26963
535.579	25422
535.646	24473
535.714	26309
535.781	27523
535.848	28807
535.915	27640
535.982	25096
536.049	25071
536.116	26480
536.183	25357
536.250	25088
536.317	25743
536.384	27709
536.451	27353
536.518	28273
536.585	26067
536.652	29108
536.719	29282
536.786	25903
536.853	27345
536.920	29284
536.987	27141
537.053	26033
537.120	32132
537.187	33734
537.254	29978
537.321	29894
537.388	31232
537.454	29799
537.521	30201
537.588	29460
537.654	30018
537.721	31533
537.788	33280
537.855	29356
537.921	31128
537.988	29314
538.055	28815
538.121	26457
538.188	25932
538.254	25224
538.321	26788
538.388	28824
538.454	33331
538.521	34768
538.587	32839
538.654	32251
538.720	30424
538.787	31404
538.853	31207
538.920	30311
538.986	27328
539.053	27154
539.119	28276
539.185	28586
539.252	31139
539.318	31196
539.385	35230
539.451	31240
539.517	32034
539.583	31057
539.650	31491
539.716	31363
539.782	29916
539.849	28030
539.915	31510
539.981	28748
540.047	29224
540.114	29742
540.180	31581
540.246	32083
540.312	34537
540.378	33161
540.444	33963
540.510	33489
540.576	35664
540.643	31334
540.709	29606
540.775	31120
540.841	28727
540.907	30201
540.973	29667
541.039	29871
541.105	31188
541.171	33341
541.237	34298
541.303	33569
541.369	35064
541.435	33378
541.500	32213
541.566	29256
541.632	29864
541.698	30743
541.764	32260
541.830	31950
541.896	30897
541.961	31864
542.027	31156
542.093	34457
542.159	34480
542.224	30984
542.290	33320
542.356	30451
542.421	31476
542.487	29684
542.553	28638
542.618	29996
542.684	31126
542.750	32023
542.815	33170
542.881	31188
542.947	34753
543.012	36110
543.078	30731
543.143	29658
543.209	30815
543.274	30402
543.340	31235
543.405	31520
543.471	33451
543.536	32806
543.602	32793
543.667	32132
543.732	32966
543.798	32561
543.863	34213
543.928	32856
543.994	32638
544.059	33724
544.124	34735
544.190	34993
544.255	35261
544.320	35714
544.386	34973
544.451	37680
544.516	35294
544.581	35115
544.646	37202
544.712	40103
544.777	37670
544.842	37267
544.907	36362
544.972	36759
545.037	38582
545.102	40711
545.168	39631
545.233	40908
545.298	41048
545.363	40462
545.428	43532
545.493	45425
545.558	44694
545.623	43963
545.688	42986
545.753	45383
545.818	46081
545.883	50945
545.947	50369
546.012	52318
546.077	52781
546.142	57475
546.207	60006
546.272	61253
546.337	62958
546.401	65655
546.466	67832
546.531	70271
546.596	76051
546.661	79366
546.725	83736
546.790	87587
546.855	95763
546.919	104095
546.984	115083
547.049	124367
547.113	139856
547.178	156465
547.243	174817
547.307	200771
547.372	222381
547.436	222201
547.501	232125
547.565	251908
547.630	232015
547.695	223626
547.759	222194
547.823	227147
547.888	230474
547.952	235217
548.017	245243
548.081	257402
548.146	249292
548.210	252564
548.274	271856
548.339	269579
548.403	245769
548.468	233994
548.532	231318
548.596	236846
548.660	236945
548.725	254389
548.789	274609
548.853	267860
548.917	257851
548.982	250871
549.046	229287
549.110	209473
549.174	212739
549.238	244734
549.303	270499
549.367	275187
549.431	261937
549.495	247556
549.559	247944
549.623	278891
549.687	305745
549.751	297575
549.815	347810
549.879	356784
549.943	345036
550.007	356679
550.071	356250
550.135	324511
550.199	307942
550.263	306153
550.327	288961
550.391	295876
550.455	325426
550.519	343142
550.582	356563
550.646	398117
550.710	405741
550.774	400070
550.838	407280
550.901	417741
550.965	441266
551.029	458950
551.093	486688
551.156	524043
551.220	561678
551.284	589075
551.347	503378
551.411	438665
551.475	419585
551.538	427723
551.602	403790
551.666	384331
551.729	366595
551.793	358236
551.856	350196
551.920	345239
551.983	342564
552.047	340231
552.110	341688
552.174	345353
552.237	353006
552.301	330960
552.364	317995
552.428	309202
552.491	315782
552.554	321675
552.618	319249
552.681	326117
552.745	311488
552.808	320541
552.871	334479
552.934	329375
552.998	321250
553.061	316682
553.124	304805
553.187	301248
553.251	311302
553.314	311934
553.377	313465
553.440	330843
553.503	337098
553.567	335567
553.630	334700
553.693	332946
553.756	333345
553.819	328402
553.882	317301
553.945	318436
554.008	320802
554.071	322975
554.134	326868
554.197	310548
554.260	300189
554.323	305451
554.386	310652
554.449	322979
554.512	322245
554.575	307918
554.638	304827
554.701	302907
554.764	303736
554.827	291437
554.889	285083
554.952	268222
555.015	263106
555.078	268494
555.141	273575
555.203	266374
555.266	264498
555.329	265499
555.391	254695
555.454	250880
555.517	243123
555.580	235844
555.642	228643
555.705	223253
555.768	222831
555.830	217530
555.893	209099
555.955	202892
556.018	198961
556.080	198548
556.143	203101
556.206	201912
556.268	196319
556.330	191804
556.393	185786
556.455	183127
556.518	180232
556.580	175020
556.643	169215
556.705	163854
556.767	162616
556.830	160792
556.892	156973
556.955	154219
557.017	150172
557.079	150734
557.142	147026
557.204	144623
557.266	144027
557.328	137857
557.391	127986
557.453	124525
557.515	124632
557.577	126681
557.639	126244
557.701	124901
557.764	125147
557.826	126100
557.888	129515
557.950	133130
558.012	141535
558.074	170602
558.136	303477
558.198	633925
558.260	324368
558.322	148953
558.384	137865
558.446	138845
558.508	146046
558.570	159707
558.632	180910
558.694	222035
558.756	337060
558.818	718906
558.880	1154237
558.942	753035
559.003	711404
559.065	428099
559.127	190793
559.189	169284
559.251	179601
559.312	231603
559.374	440808
559.436	950948
559.498	664820
559.559	242062
559.621	174101
559.683	180890
559.744	256657
559.806	599637
559.868	830517
559.929	326022
559.991	190080
560.052	256727
560.114	600830
560.176	465784
560.237	379838
560.299	581663
560.360	200825
560.422	87689
560.483	72521
560.545	66440
560.606	62073
560.667	59890
560.729	57335
560.790	53556
560.852	52694
560.913	51448
560.974	50291
561.036	50262
561.097	50678
561.158	47710
561.220	47145
561.281	46837
561.342	44752
561.403	44663
561.465	45157
561.526	46384
561.587	45240
561.648	42155
561.709	41764
561.771	40203
561.832	39529
561.893	38801
561.954	39063
562.015	39043
562.076	38462
562.137	37295
562.198	36767
562.259	37919
562.320	37666
562.381	37832
562.442	37709
562.503	37153
562.564	35438
562.625	35791
562.686	34095
562.747	33068
562.808	34593
562.869	33874
562.930	33746
562.991	33172
563.051	31801
563.112	32909
563.173	33517
563.234	31469
563.294	32643
563.355	30556
563.416	32264
563.477	31476
563.537	30329
563.598	31151
563.659	32412
563.720	30225
563.780	29747
563.841	31125
563.901	30943
563.962	30658
564.023	30633
564.083	30100
564.144	30393
564.204	29503
564.265	29461
564.325	28941
564.386	29500
564.446	29515
564.507	27948
564.567	28450
564.628	26685
564.688	27465
564.749	26998
564.809	28337
564.869	27938
564.930	27341
564.990	28529
565.050	27236
565.111	28053
565.171	28231
565.231	27671
565.292	28719
565.352	26537
565.412	27655
565.472	27164
565.532	26720
565.593	27418
565.653	25990
565.713	26146
565.773	27292
565.833	27886
565.893	29310
565.953	27109
566.013	26293
566.074	26161
566.134	25890
566.194	23628
566.254	25587
566.314	25611
566.374	25144
566.434	25739
566.494	25500
566.554	26052
566.614	26032
566.673	25983
566.733	27674
566.793	27304
566.853	26489
566.913	26942
566.973	26732
567.033	28135
567.092	26752
567.152	26905
567.212	26462
567.272	26872
567.331	28855
567.391	27916
567.451	29101
567.511	29522
567.570	28544
567.630	27756
567.690	27098
567.749	25865
567.809	26239
567.868	26321
567.928	25843
567.988	27884
568.047	27104
568.107	26301
568.166	27638
568.226	26523
568.285	27616
568.345	27787
568.404	28348
568.464	27328
568.523	27049
568.582	27157
568.642	26346
568.701	26093
568.761	24737
568.820	25276
568.879	25588
568.939	25966
568.998	26562
569.057	25420
569.116	25943
569.176	26712
569.235	26526
569.294	25750
569.353	25285
569.413	25423
569.472	25276
569.531	25422
569.590	24653
569.649	25602
569.708	25925
569.767	26329
569.827	25456
569.886	25198
569.945	24762
570.004	25273
570.063	26178
570.122	26449
570.181	26279
570.240	26970
570.299	26768
570.358	27407
570.417	27913
570.475	27113
570.534	27310
570.593	27208
570.652	28357
570.711	27398
570.770	27916
570.829	26538
570.887	26860
570.946	27423
571.005	27713
571.064	27423
571.122	28226
571.181	27066
571.240	26263
571.299	26594
571.357	25480
571.416	25938
571.475	26888
571.533	27415
571.592	29219
571.650	29137
571.709	29843
571.768	33068
571.826	33791
571.885	33180
571.943	29204
572.002	27485
572.060	27956
572.119	26854
572.177	26886
572.236	26636
572.294	27261
572.352	28736
572.411	29423
572.469	27722
572.528	26926
572.586	26519
572.644	24714
572.703	25820
572.761	24158
572.819	24292
572.877	23817
572.936	24296
572.994	23196
573.052	23822
573.110	24252
573.169	26022
573.227	26850
573.285	25899
573.343	24002
573.401	25165
573.459	25117
573.517	25767
573.576	26989
573.634	27305
573.692	26411
573.750	26422
573.808	25748
573.866	24633
573.924	24044
573.982	24681
574.040	24891
574.098	23685
574.155	24253
574.213	24719
574.271	25004
574.329	25058
574.387	26740
574.445	24105
574.503	22722
574.560	22324
574.618	22064
574.676	22874
574.734	23358
574.792	22688
574.849	22114
574.907	20217
574.965	20706
575.022	19680
575.080	19361
575.138	18523
575.195	18206
575.253	18250
575.311	19040
575.368	19700
575.426	18054
575.483	20229
575.541	21195
575.598	19514
575.656	19761
575.713	19946
575.771	20178
575.828	21133
575.886	19567
575.943	19697
576.001	17560
576.058	17513
576.115	17390
576.173	19030
576.230	19442
576.287	19587
576.345	18874
576.402	19042
576.459	19914
576.517	18486
576.574	18801
576.631	18933
576.688	17960
576.746	16838
576.803	16533
576.860	16911
576.917	17090
576.974	17520
577.031	18608
577.089	17373
577.146	16545
577.203	16562
577.260	16489
577.317	16491
577.374	16331
577.431	15915
577.488	16701
577.545	16344
577.602	17088
577.659	15649
577.716	16531
577.773	16699
577.830	15467
577.886	16664
577.943	15788
578.000	16346
578.057	16664
578.114	15494
578.171	15744
578.227	15882
578.284	15605
578.341	17032
578.398	15871
578.454	16137
578.511	16912
578.568	16605
578.625	16745
578.681	16727
578.738	17114
578.794	16036
578.851	16593
578.908	15097
578.964	17259
579.021	16424
579.077	16674
579.134	16352
579.190	16853
579.247	16240
579.303	15926
579.360	15365
579.416	16638
579.473	16627
579.529	17397
579.586	16973
579.642	16723
579.698	17629
579.755	16980
579.811	16743
579.867	16716
579.924	16412
579.980	17091
580.036	17924
580.093	17330
580.149	16774
580.205	17053
580.261	17706
580.317	18371
580.374	17846
580.430	18779
580.486	16771
580.542	17294
580.598	18559
580.619	18653
580.654	18833
580.692	18576
580.710	18474
580.765	18953
580.767	18985
580.823	17993
580.838	18264
580.879	19025
580.911	19394
580.935	19684
580.984	19014
580.991	18943
581.047	18906
581.057	18708
581.103	17849
581.130	18498
581.159	19180
581.203	17412
581.215	16966
581.270	17251
581.276	17271
581.326	17547
581.349	17601
581.382	17700
581.422	18441
581.438	18763
581.494	17701
581.494	17688
581.550	17052
581.567	16997
581.606	16868
581.640	17174
581.661	17395
581.713	17615
581.717	17640
581.773	17603
581.786	17853
581.829	18611
581.859	18521
581.885	18488
581.932	18186
581.940	18137
581.996	18109
582.004	18111
582.052	17975
582.077	17613
582.107	17309
582.150	17589
582.163	17654
582.219	17763
582.223	17736
582.274	17452
582.296	17315
582.330	17101
582.368	17225
582.386	17344
582.441	18836
582.441	18839
582.497	17865
582.514	17787
582.552	17752
582.587	17612
582.608	17526
582.659	17554
582.663	17559
582.719	18475
582.732	18401
582.774	18096
582.805	17694
582.830	17378
582.877	18573
582.885	18743
582.941	17593
582.950	17456
582.996	17026
583.023	17616
583.052	18299
583.095	18288
583.107	18223
583.162	18045
583.168	18019
583.218	17729
583.240	17828
583.273	18206
583.313	17741
583.328	17533
583.384	18422
583.385	18411
583.439	17804
583.458	17910
583.494	18134
583.531	18088
583.549	18243
583.603	18877
583.605	18883
583.660	19044
583.676	19124
583.715	19384
583.748	19443
583.770	19521
583.820	19742
583.825	19743
583.881	19566
583.893	19351
583.936	18946
583.965	19265
583.991	19282
584.038	19009
584.046	19017
584.101	19597
584.110	19564
584.156	19424
584.183	19544
584.211	19822
584.255	20826
584.266	20997
584.321	21318
584.328	21280
584.376	21231
584.400	21271
584.431	21202
584.472	21213
584.486	21247
584.541	22629
584.545	22663
584.596	23452
584.617	23480
584.651	23578
584.689	24063
584.706	24261
584.761	25095
584.762	25097
584.816	26078
584.834	26684
584.871	28202
584.906	29314
584.926	29774
584.978	30318
584.980	30370
585.035	33246
585.051	34428
585.090	37700
585.123	39598
585.145	41116
585.195	46025
585.200	46575
585.254	53130
585.267	54983
585.309	62106
585.340	68245
585.364	73593
585.412	85283
585.419	87459
585.473	108632
585.484	114332
585.528	148367
585.556	180709
585.583	239336
585.628	370142
585.637	412095
585.692	745403
585.700	796458
585.747	960876
585.772	893716
585.801	675274
585.845	347609
585.856	294872
585.910	148606
585.917	135451
585.965	98035
585.989	83667
586.019	72581
586.061	62213
586.074	60158
586.128	54115
586.133	53640
586.183	49595
586.205	48178
586.237	46956
586.277	45781
586.292	45418
586.346	44348
586.349	44227
586.401	43471
586.421	43591
586.455	43848
586.493	43605
586.509	43626
586.564	44063
586.565	44058
586.618	47078
586.637	48324
586.672	53202
586.709	59373
586.727	62420
586.781	71006
586.781	71060
586.835	60826
586.853	57323
586.889	51305
586.925	46776
586.944	45965
586.996	44999
586.998	45028
587.052	44289
587.068	44047
587.106	44148
587.140	44723
587.161	45114
587.212	45554
587.215	45623
587.269	45552
587.284	45749
587.323	46604
587.356	46918
587.377	47570
587.427	49398
587.431	49537
587.485	50305
587.499	50356
587.539	50998
587.571	51951
587.593	53313
587.643	56067
587.648	56254
587.702	57205
587.715	57205
587.755	57353
587.786	57521
587.810	57716
587.858	57753
587.864	57795
587.917	57798
587.930	57487
587.971	57132
588.001	57518
588.025	58063
588.073	58403
588.079	58410
588.133	57048
588.145	56819
588.187	56835
588.217	56874
588.241	57473
588.288	57959
588.295	58163
588.348	59708
588.360	59835
588.402	59137
588.431	58513
588.456	58672
588.503	59487
588.510	59801
588.564	60828
588.575	61056
588.617	63014
588.646	64246
588.671	64621
588.718	64982
588.725	65346
588.778	67769
588.789	68265
588.832	75701
588.861	82229
588.886	101629
588.932	141513
588.939	146011
588.993	183662
589.004	184112
589.047	116727
589.075	78020
589.100	71197
589.147	63473
589.154	63430
589.207	62814
589.218	62541
589.261	63380
589.290	63952
589.314	64395
589.361	65266
589.368	65726
589.421	68771
589.433	69505
589.475	84707
589.504	96205
589.528	112970
589.576	149492
589.582	146631
589.635	101865
589.647	92491
589.689	75466
589.718	66318
589.742	66431
589.790	65863
589.795	66039
589.849	66937
589.861	66932
589.902	67002
589.932	67096
589.955	67471
590.004	67121
590.009	67207
590.062	67455
590.075	67275
590.115	67217
590.146	66923
590.168	67169
590.218	67531
590.222	67832
590.275	70119
590.289	70515
590.328	71561
590.360	72170
590.381	72686
590.431	73434
590.435	73639
590.488	74422
590.503	74511
590.541	75135
590.574	75363
590.594	76503
590.645	78987
590.647	79250
590.700	81847
590.716	82415
590.753	84620
590.787	86325
590.806	87707
590.859	90978
590.859	91192
590.912	91726
590.930	91713
590.965	92903
591.001	93713
591.018	93629
591.071	92640
591.072	92423
591.124	90764
591.143	89842
591.177	91051
591.214	92294
591.230	93018
591.283	94698
591.285	94536
591.336	93681
591.356	93120
591.389	93249
591.427	92872
591.442	93001
591.495	92750
591.498	92511
591.547	93033
591.569	93078
591.600	95158
591.640	97298
591.653	97580
591.706	97652
591.711	97460
591.759	100831
591.782	102167
591.811	104700
591.853	107712
591.864	107787
591.917	106803
591.924	106399
591.969	107088
591.995	107106
592.022	107832
592.066	108358
592.075	109146
592.127	112447
592.137	112768
592.180	114852
592.208	115772
592.233	117235
592.279	119171
592.285	119872
592.338	123280
592.350	123724
592.390	122812
592.421	121625
592.443	123349
592.491	126163
592.495	126633
592.548	128690
592.562	128937
592.600	129530
592.633	129427
592.653	129671
592.704	128731
592.705	129535
592.775	132787
592.846	136870
592.916	137795
592.987	139267
593.058	140546
593.128	142511
593.199	141650
593.270	143710
593.341	145728
593.411	151583
593.482	157945
593.553	162433
593.623	163192
593.694	168166
593.764	171072
593.835	169466
593.906	171797
593.976	174859
594.047	182535
594.117	188837
594.188	194399
594.258	190730
594.329	192562
594.399	198408
594.470	203516
594.540	210878
594.611	214543
594.681	213950
594.751	213752
594.822	221612
594.892	231458
594.963	236519
595.033	242036
595.103	249721
595.174	249482
595.244	255583
595.314	263480
595.384	273180
595.455	278296
595.525	287169
595.595	295988
595.665	298808
595.736	287429
595.806	296329
595.876	299866
595.946	302581
596.016	316229
596.087	323970
596.157	323078
596.227	328366
596.297	341643
596.367	364093
596.437	382579
596.507	379923
596.577	379539
596.647	393267
596.717	412142
596.787	417365
596.857	416946
596.927	418628
596.997	420086
597.067	425441
597.137	432081
597.207	433728
597.277	436759
597.347	419897
597.417	407151
597.487	405310
597.557	417441
597.626	426170
597.696	431264
597.766	423361
597.836	403884
597.906	384123
597.975	379238
598.045	385318
598.115	403115
598.185	429874
598.254	476468
598.324	509884
598.394	518470
598.464	504500
598.533	493050
598.603	462267
598.672	449156
598.742	460270
598.812	459419
598.881	474576
598.951	470606
599.020	478115
599.090	492137
599.159	498805
599.229	480347
599.299	473418
599.368	484433
599.437	478169
599.507	442136
599.576	430216
599.646	420593
599.715	412342
599.785	414085
599.854	403111
599.924	395709
599.993	391816
600.062	401149
600.132	411191
600.201	434823
600.270	497592
600.340	524569
600.409	513730
600.478	507733
600.547	518130
600.617	468612
600.686	379001
600.755	345429
600.824	327441
600.894	318105
600.963	322560
601.032	316459
601.101	302055
601.170	292593
601.239	282160
601.308	281534
601.378	280770
601.447	280236
601.516	284627
601.585	285903
601.654	289552
601.723	289200
601.792	296489
601.861	305043
601.930	314585
601.999	316306
602.068	314345
602.137	323853
602.206	327468
602.275	330738
602.343	331529
602.412	336833
602.481	339569
602.550	341051
602.619	353896
602.688	353946
602.756	357775
602.825	359912
602.894	368827
602.963	376719
603.032	383929
603.100	382938
603.169	384466
603.238	386478
603.307	389578
603.375	396088
603.444	397475
603.513	411240
603.581	413468
603.650	415043
603.719	414960
603.787	426942
603.856	440488
603.924	449830
603.993	463435
604.061	480517
604.130	498651
604.198	508088
604.267	518782
604.335	525141
604.404	530903
604.472	536253
604.541	542739
604.609	545638
604.678	546177
604.746	547474
604.815	563460
604.883	570319
604.951	569131
605.020	583213
605.088	591064
605.156	608353
605.225	614970
605.293	615909
605.361	618361
605.429	622445
605.498	635575
605.566	647004
605.634	677227
605.702	697294
605.771	715293
605.839	716477
605.907	705957
605.975	679632
606.043	673316
606.111	673182
606.180	670770
606.248	667956
606.316	660502
606.384	660291
606.452	665471
606.520	688322
606.588	704917
606.656	713115
606.724	696751
606.792	663572
606.860	609124
606.928	562298
606.996	541660
607.064	533420
607.132	545686
607.200	572654
607.267	593073
607.335	603743
607.403	612237
607.471	593504
607.539	577175
607.607	578336
607.674	518700
607.742	518317
607.810	515736
607.878	514674
607.946	527613
608.013	548057
608.081	562058
608.149	562021
608.216	582313
608.284	595614
608.352	597149
608.419	591664
608.487	578840
608.555	568925
608.622	587250
608.690	624893
608.757	677417
608.825	688578
608.893	673457
608.960	637082
609.028	614478
609.095	613824
609.163	613014
609.230	552031
609.298	512654
609.365	540553
609.432	577928
609.500	621498
609.567	695020
609.635	773721
609.702	800832
609.769	763909
609.837	618922
609.904	553116
609.971	565642
610.039	600139
610.106	699528
610.173	1011874
610.241	1592051
610.308	1188571
610.375	696606
610.442	604186
610.509	577788
610.577	573936
610.644	582944
610.711	598428
610.778	609342
610.845	630260
610.912	663613
610.980	687259
611.047	686733
611.114	673562
611.181	660412
611.248	659052
611.315	688223
611.382	701165
611.449	725001
611.516	729984
611.583	723928
611.650	728083
611.717	734769
611.784	749022
611.851	766488
611.918	796249
611.984	872259
612.051	1033854
612.118	1406250
612.185	2027416
612.252	1706869
612.319	1085073
612.386	935977
612.452	858514
612.519	815907
612.586	798302
612.653	811091
612.719	830926
612.786	804121
612.853	757330
612.919	747363
612.986	756894
613.053	718433
613.120	684087
613.186	664347
613.253	669467
613.319	668473
613.386	671877
613.453	681807
613.519	684216
613.586	669141
613.652	680343
613.719	672027
613.785	682372
613.852	686578
613.918	681911
613.985	686812
614.051	713396
614.118	701905
614.184	679068
614.250	682691
614.317	694526
614.383	688943
614.449	699904
614.516	693997
614.582	695783
614.648	686585
614.715	682347
614.781	671454
614.847	668477
614.914	666494
614.980	654310
615.046	653222
615.112	672791
615.179	673741
615.245	679796
615.311	673217
615.377	678243
615.443	684624
615.509	694531
615.575	713434
615.642	711807
615.708	721805
615.774	742964
615.840	777325
615.906	801728
615.972	891217
616.038	1099082
616.104	1561099
616.170	2135200
616.236	1982075
616.302	1310457
616.368	1126405
616.434	918707
616.500	842171
616.565	892392
616.631	1046800
616.697	930969
616.763	922228
616.829	1160099
616.895	1623179
616.961	1570888
617.026	1025853
617.092	787728
617.158	731550
617.224	705961
617.289	661420
617.355	631728
617.421	627785
617.487	623335
617.552	599795
617.618	595441
617.684	596520
617.749	596559
617.815	573388
617.880	564479
617.946	564422
618.012	573830
618.077	584918
618.143	562153
618.208	565908
618.274	604169
618.339	600093
618.405	514466
618.470	516070
618.536	514227
618.601	505683
618.667	478055
618.732	455364
618.798	450759
618.863	448824
618.928	447878
618.994	450627
619.059	442719
619.124	448115
619.190	445221
619.255	443181
619.320	447366
619.386	449101
619.451	444097
619.516	431237
619.581	439352
619.647	450204
619.712	450352
619.777	433554
619.842	438341
619.907	443525
619.972	449293
620.038	446025
620.103	437068
620.168	439001
620.233	443739
620.298	445089
620.363	452015
620.428	458564
620.493	470872
620.558	476271
620.623	478931
620.688	478194
620.753	476262
620.818	483710
620.883	486807
620.948	484451
621.013	479418
621.078	473199
621.143	483666
621.207	482576
621.272	475492
621.337	463727
621.402	461862
621.467	454690
621.532	455378
621.596	458354
621.661	447221
621.726	443661
621.791	450563
621.855	448259
621.920	442510
621.985	451330
622.049	458152
622.114	456934
622.179	463794
622.243	471993
622.308	485138
622.373	499533
622.437	491389
622.502	468824
622.566	468036
622.631	464866
622.695	473476
622.760	466689
622.824	468971
622.889	472756
622.953	472998
623.018	493652
623.082	498254
623.147	492095
623.211	485170
623.276	484468
623.340	469062
623.404	459049
623.469	457952
623.533	463872
623.597	457555
623.662	451863
623.726	425785
623.790	404581
623.854	396485
623.919	399716
623.983	408530
624.047	413577
624.111	417343
624.176	424161
624.240	423642
624.304	434656
624.368	423706
624.432	421495
624.496	432043
624.560	449935
624.625	455265
624.689	450312
624.753	468958
624.817	445817
624.881	437359
624.945	402920
625.009	393013
625.073	398329
625.137	410518
625.201	424352
625.265	425431
625.329	413439
625.393	412594
625.456	418514
625.520	428752
625.584	430169
625.648	442572
625.712	449407
625.776	444334
625.839	420933
625.903	368762
625.967	347469
626.031	367941
626.095	423091
626.158	400196
626.222	326408
626.286	307838
626.349	298232
626.413	280149
626.477	275688
626.540	282599
626.604	280039
626.668	273215
626.731	272987
626.795	271869
626.858	272841
626.922	269024
626.986	264767
627.049	265873
627.113	273481
627.176	266194
627.240	260289
627.303	260038
627.366	258007
627.430	260853
627.493	257529
627.557	253274
627.620	255539
627.684	267922
627.747	265250
627.810	246214
627.874	223252
627.937	217914
628.000	223384
628.064	214326
628.127	197274
628.190	195557
628.253	189826
628.317	182796
628.380	174778
628.443	169391
628.506	170565
628.569	163494
628.632	156848
628.696	156152
628.759	155105
628.822	150489
628.885	147295
628.948	146634
629.011	140158
629.074	137578
629.137	134530
629.200	129226
629.263	127842
629.326	127583
629.389	128676
629.452	125347
629.515	122462
629.578	123022
629.641	123484
629.704	124321
629.767	121521
629.830	118244
629.892	115143
629.955	115987
630.018	119255
630.081	116744
630.144	116413
630.207	113322
630.269	114193
630.332	110452
630.395	110165
630.458	106964
630.520	103890
630.583	104241
630.646	107044
630.708	107998
630.771	111398
630.834	115802
630.896	111477
630.959	110567
631.021	107545
631.084	108218
631.146	110027
631.209	109365
631.272	108174
631.334	112405
631.397	110753
631.459	111292
631.522	117030
631.584	118788
631.646	125755
631.709	127304
631.771	125907
631.834	122754
631.896	117584
631.958	112489
632.021	109736
632.083	105375
632.145	104953
632.208	103867
632.270	102679
632.332	102784
632.395	102561
632.457	103984
632.519	101698
632.581	101441
632.643	96308
632.706	99653
632.768	98024
632.830	100611
632.892	102955
632.954	102908
633.016	104171
633.078	102365
633.141	102585
633.203	101618
633.265	100472
633.327	99971
633.389	102932
633.451	102140
633.513	101232
633.575	105368
633.637	104270
633.698	104456
633.760	110234
633.822	115108
633.884	115210
633.946	118983
634.008	118564
634.070	123714
634.132	128333
634.193	136710
634.255	146986
634.317	149975
634.379	145708
634.441	134437
634.502	124015
634.564	116436
634.626	107965
634.687	104905
634.749	99754
634.811	101777
634.873	98173
634.934	99175
634.996	99022
635.057	98659
635.119	101150
635.181	104273
635.242	103552
635.304	101750
635.365	105136
635.427	101709
635.488	101984
635.550	101635
635.611	102788
635.673	103213
635.734	109314
635.796	113844
635.857	124456
635.918	130459
635.980	141598
636.041	148953
636.102	153092
636.164	155843
636.225	150324
636.286	132946
636.348	122309
636.409	112105
636.470	106161
636.531	103684
636.593	99991
636.654	96569
636.715	93597
636.776	93598
636.838	91094
636.899	88876
636.960	87849
637.021	87678
637.082	85411
637.143	84357
637.204	81775
637.265	82564
637.326	84902
637.387	87042
637.448	83793
637.509	84374
637.570	84283
637.631	83833
637.692	80458
637.753	78378
637.814	79707
637.875	78658
637.936	78908
637.997	79751
638.058	78937
638.119	77874
638.179	79489
638.240	79376
638.301	80053
638.362	76325
638.423	74073
638.483	74137
638.544	72515
638.605	74888
638.666	74003
638.726	74514
638.787	73755
638.848	74835
638.908	73743
638.969	70433
639.030	70134
639.090	70200
639.151	70914
639.211	72789
639.272	72234
639.332	72657
639.393	73965
639.453	77477
639.514	79218
639.574	71660
639.635	67215
639.695	68117
639.756	65743
639.816	66531
639.877	66346
639.937	67124
639.997	66992
640.058	65076
640.118	65715
640.178	66531
640.239	66747
640.299	66755
640.359	68259
640.420	73332
640.480	78333
640.540	86104
640.600	87634
640.661	81440
640.721	79344
640.781	84882
640.841	79573
640.901	70500
640.961	68698
641.021	71486
641.082	75209
641.142	68191
641.202	65355
641.262	62916
641.322	64579
641.382	64049
641.442	63843
641.502	63180
641.562	64065
641.622	66043
641.682	71038
641.742	78036
641.802	73284
641.861	66402
641.921	62040
641.981	60790
642.041	59360
642.101	57879
642.161	57457
642.221	59859
642.280	59910
642.340	59336
642.400	59603
642.460	60686
642.519	61551
642.579	61420
642.639	63220
642.698	59819
642.758	65031
642.818	64146
642.877	61376
642.937	63049
642.997	63482
643.056	62890
643.116	61621
643.175	64749
643.235	64236
643.294	65979
643.354	69512
643.414	72594
643.473	80745
643.532	90192
643.592	110129
643.651	151196
643.711	231258
643.770	400633
643.830	812752
643.889	1209504
643.948	522056
644.008	177837
644.067	113185
644.126	88627
644.186	78477
644.245	71975
644.304	63808
644.363	67753
644.423	62374
644.482	62178
644.541	66394
644.600	67359
644.659	79729
644.719	91559
644.778	122572
644.837	190345
644.896	351809
644.955	676074
645.014	269150
645.073	97889
645.132	77681
645.191	71505
645.250	69221
645.309	70441
645.368	75607
645.427	97700
645.486	156944
645.545	250489
645.604	92149
645.663	64113
645.722	62945
645.781	66907
645.840	72035
645.898	81886
645.957	102279
646.016	138594
646.075	218469
646.134	380125
646.192	821640
646.251	992547
646.310	310185
646.369	130283
646.427	107437
646.486	83528
646.545	68404
646.603	63409
646.662	59208
646.721	56990
646.779	56861
646.838	58275
646.896	68435
646.955	84464
647.014	121462
647.072	214705
647.131	507178
647.189	260982
647.248	69544
647.306	55726
647.365	51309
647.423	46697
647.481	48154
647.540	45377
647.598	46158
647.657	46804
647.715	45974
647.773	43260
647.832	44551
647.890	40987
647.948	41984
648.007	40785
648.065	38158
648.123	38516
648.181	39257
648.240	38946
648.298	37149
648.356	36365
648.414	38466
648.472	37003
648.531	35915
648.589	35755
648.647	35561
648.705	36636
648.763	37554
648.821	38415
648.879	39141
648.937	40875
648.995	45911
649.053	54813
649.111	72029
649.169	106050
649.227	175798
649.285	344457
649.343	773895
649.401	410909
649.459	98748
649.516	60159
649.574	49217
649.632	48467
649.690	52386
649.748	64185
649.806	87194
649.863	152154
649.921	384068
649.979	254692
650.037	54579
650.094	36437
650.152	34891
650.210	32262
650.268	32280
650.325	33233
650.383	36878
650.440	29008
650.498	27863
650.556	26855
650.613	26083
650.671	28086
650.728	26883
650.786	30175
650.843	40068
650.901	31470
650.958	26389
651.016	24979
651.073	23753
651.131	22619
651.188	21567
651.246	22721
651.303	22497
651.360	22690
651.418	22291
651.475	22920
651.532	21205
651.590	23395
651.647	21196
651.704	21875
651.762	21988
651.819	21494
651.876	21117
651.933	19956
651.990	21258
652.048	19619
652.105	19508
652.162	20966
652.219	18616
652.276	19888
652.333	20569
652.390	18313
652.448	18026
652.505	19343
652.562	19714
652.619	18432
652.676	18664
652.733	20466
652.790	18461
652.847	17355
652.904	17958
652.961	17291
653.017	17729
653.074	18845
653.131	17936
653.188	17267
653.245	17948
653.302	18133
653.359	17470
653.415	18339
653.472	16809
653.529	18241
653.586	17845
653.642	17162
653.699	19386
653.756	16725
653.813	17649
653.869	18341
653.926	18261
653.983	17445
654.039	17631
654.096	17548
654.152	18080
654.209	16551
654.266	16368
654.322	15558
654.379	17337
654.435	17335
654.492	16191
654.548	17202
654.605	16999
654.661	18650
654.717	17382
654.774	16388
654.830	16677
654.887	17018
654.943	18071
655.000	20381
655.056	18081
655.112	16410
655.168	16142
655.225	16837
655.281	17490
655.337	16860
655.394	16261
655.450	15081
655.506	15042
655.562	15577
655.618	17028
655.675	15284
655.731	14643
655.787	15122
655.843	16474
655.899	15024
655.955	17466
656.011	17386
656.067	15432
656.123	17003
656.179	16085
656.235	16874
656.291	15521
656.347	18220
656.403	15395
656.459	14919
656.515	16562
656.571	15739
656.627	15618
656.683	15476
656.739	16026
656.795	14857
656.850	15909
656.906	15521
656.962	16158
657.018	16667
657.074	20502
657.129	27510
657.185	39110
657.241	86075
657.297	49316
657.352	18862
657.408	15569
657.464	16669
657.519	14046
657.575	13030
657.630	13729
657.686	14805
657.742	13678
657.797	14847
657.853	13827
657.908	16059
657.964	13543
658.019	13976
658.075	13749
658.130	14456
658.186	12939
658.241	14617
658.297	13615
658.352	13901
658.407	13921
658.463	12296
658.518	13504
658.573	13943
658.629	12164
658.684	12848
658.739	13548
658.795	13066
658.850	12058
658.905	12656
658.960	13000
659.016	12425
659.071	12242
659.126	12402
659.181	12180
659.236	13764
659.291	13288
659.346	12608
659.401	12921
659.457	13949
659.512	12293
659.567	13983
659.622	12066
659.677	12590
659.732	12229
659.787	11855
659.842	12014
659.897	12119
659.952	12287
660.007	12525
660.061	12142
660.116	11765
660.171	12172
660.226	12950
660.281	13368
660.336	11873
660.391	13255
660.445	11285
660.500	11648
660.555	11277
660.610	11303
660.664	12164
660.719	11829
660.774	12437
660.828	11845
660.883	11558
660.938	12542
660.992	11500
661.047	12188
661.101	11639
661.156	10568
661.211	12024
661.265	10775
661.320	11289
661.374	12297
661.429	11365
661.483	12063
661.538	10516
661.592	12015
661.647	13320
661.701	15387
661.755	12491
661.810	11778
661.864	10673
661.919	10294
661.973	11151
662.027	11121
662.081	10676
662.136	11699
662.190	11512
662.244	11874
662.299	11448
662.353	11538
662.407	11103
662.461	10878
662.515	10428
662.569	10477
662.624	10811
662.678	9876
662.732	10604
662.786	11070
662.840	12050
662.894	11105
662.948	10275
663.002	10382
663.056	11729
663.110	10549
663.164	11406
663.218	11770
663.272	11839
663.326	11036
663.380	11712
663.434	11070
663.488	10874
663.542	10798
663.595	12194
663.649	11058
663.703	12197
663.757	11728
663.811	10822
663.864	10276
663.918	11402
663.972	9913
664.026	10997
664.079	11643
664.133	12170
664.187	11268
664.240	11357
664.294	12144
664.348	11675
664.401	11475
664.455	10631
664.508	11222
664.562	11399
664.615	11223
664.669	10643
664.722	10636
664.776	10123
664.829	11062
664.883	11638
664.936	10370
664.990	11599
665.043	11061
665.097	10953
665.150	12293
665.203	10890
665.257	11223
665.310	11300
665.363	12055
665.417	12597
665.470	11226
665.523	12218
665.576	12124
665.630	11090
665.683	11259
665.736	12231
665.789	11678
665.842	11030
665.895	11969
665.949	11619
666.002	11161
666.055	11641
666.108	12093
666.161	11852
666.214	12615
666.267	12574
666.320	12390
666.373	12582
666.426	12850
666.479	12720
666.532	13429
666.585	13857
666.638	12198
666.691	11702
666.744	13533
666.796	11987
666.849	11937
666.902	13492
666.955	12490
667.008	13320
667.060	12808
667.113	12752
667.166	12987
667.219	13849
667.271	14306
667.324	13404
667.377	12768
667.430	13232
667.482	13298
667.535	12756
667.587	12726
667.640	12577
667.693	12865
667.745	12560
667.798	13478
667.850	11830
667.903	13266
667.955	11752
668.008	12099
668.060	13010
668.113	13493
668.165	12132
668.218	12214
668.270	11979
668.322	11755
668.375	11078
668.427	12344
668.479	11886
668.532	13279
668.584	12129
668.636	11722
668.689	11689
668.741	11392
668.793	11388
668.845	11843
668.898	11833
668.950	11739
669.002	12764
669.054	11910
669.106	12041
669.158	11787
669.211	11445
669.263	11025
669.315	11768
669.367	11540
669.419	10901
669.471	11625
669.523	11311
669.575	11637
669.627	10542
669.679	10807
669.731	11058
669.783	11238
669.835	10919
669.886	11063
669.938	10859
669.990	10834
670.042	10362
670.094	11109
670.146	11194
670.197	10723
670.249	10863
670.301	10375
670.353	11224
670.404	10488
670.456	10098
670.508	10143
670.560	11433
670.611	11333
670.663	12916
670.715	16494
670.766	19864
670.818	12700
670.869	11816
670.921	12134
670.972	13421
671.024	11283
671.075	10738
671.127	11365
671.178	12502
671.230	13816
671.281	14557
671.333	16309
671.384	18439
671.436	24595
671.487	32252
671.538	45775
671.590	67886
671.641	107617
671.692	187378
671.744	322027
671.795	245592
671.846	107343
671.897	55898
671.949	36406
672.000	27065
672.051	20640
672.102	17462
672.153	15225
672.204	14481
672.256	13754
672.307	12464
672.358	12354
672.409	11921
672.460	10913
672.511	10040
672.562	9720
672.613	9922
672.664	9168
672.715	10416
672.766	8909
672.817	8482
672.868	8445
672.919	8910
672.970	7627
673.021	8508
673.071	9202
673.122	7771
673.173	8854
673.224	8157
673.275	8340
673.326	7602
673.376	7308
673.427	7088
673.478	8673
673.528	8978
673.579	8837
673.630	8579
673.680	8437
673.731	8734
673.782	8158
673.832	8377
673.883	8313
673.934	7645
673.984	7633
674.035	9326
674.085	8425
674.136	8580
674.186	8606
674.237	7725
674.287	7828
674.338	9144
674.388	8827
674.438	9813
674.489	9323
674.539	9721
674.589	9937
674.640	9709
674.690	8917
674.740	9431
674.791	8893
674.841	8072
674.891	7659
674.942	7783
674.992	7525
675.042	7120
675.092	6102
675.142	6642
675.193	6218
675.243	6576
675.293	6992
675.343	7961
675.393	7364
675.443	8451
675.493	7590
675.543	7150
675.593	7161
675.643	7127
675.693	6848
675.743	7197
675.793	5452
675.843	6567
675.893	6072
675.943	6150
675.993	6734
676.043	7169
676.093	6729
676.142	6648
676.192	7069
676.242	6384
676.292	6890
676.341	6245
676.391	6410
676.441	6116
676.491	5510
676.540	5460
676.590	6353
676.640	5561
676.689	5562
676.739	5200
676.789	5046
676.838	4971
676.888	5565
676.937	5180
676.987	5695
677.037	4869
677.086	4681
677.136	5746
677.185	5063
677.235	6395
677.284	6302
677.333	6316
677.383	5950
677.432	5043
677.482	4954
677.531	5329
677.580	4943
677.630	4877
677.679	5821
677.728	4936
677.778	5282
677.827	4874
677.876	5237
677.925	6202
677.975	6457
678.024	6771
678.073	5784
678.122	5919
678.171	6291
678.220	7300
678.269	7650
678.319	8643
678.368	9114
678.417	7014
678.466	7155
678.515	6322
678.564	5276
678.613	5370
678.662	4718
678.711	4912
678.760	5688
678.809	5976
678.857	5313
678.906	5680
678.955	5673
679.004	5827
679.053	6369
679.102	6473
679.151	5502
679.199	5027
679.248	5302
679.297	5333
679.346	4493
679.394	4641
679.443	4212
679.492	5033
679.540	5062
679.589	5161
679.638	4956
679.686	5844
679.735	5392
679.784	6991
679.832	8488
679.881	6613
679.929	5725
679.978	5207
680.026	5191
680.075	5193
680.123	3931
680.172	4743
680.220	4757
680.268	4821
680.317	4309
680.365	4202
680.414	4024
680.462	4464
680.510	5035
680.559	4087
680.607	5151
680.655	4644
680.703	4669
680.752	4955
680.800	4625
680.848	4854
680.896	4192
680.945	3778
680.993	3352
681.041	4122
681.089	3690
681.137	4633
681.185	4132
681.233	3945
681.258	3984
681.281	3986
681.329	4051
681.377	4188
681.380	4269
681.425	5122
681.473	4278
681.502	4628
681.521	4806
681.569	5489
681.617	5998
681.624	5814
681.665	4335
681.713	5410
681.745	5297
681.761	5175
681.809	5095
681.857	6229
681.867	6211
681.904	6017
681.952	5939
681.989	5450
682.000	5259
682.048	6088
682.096	5221
682.111	5191
682.143	4980
682.191	5367
682.233	6257
682.239	6357
682.286	6498
682.334	5333
682.354	5864
682.382	6517
682.430	7203
682.476	6284
682.477	6231
682.525	5871
682.572	6123
682.598	6320
682.620	6426
682.667	6213
682.715	5957
682.720	6071
682.763	6861
682.810	6786
682.841	7142
682.857	7261
682.905	6462
682.952	6723
682.963	6855
683.000	7215
683.047	6688
683.085	7996
683.095	8307
683.142	7170
683.190	7454
683.206	7306
683.237	6916
683.284	7175
683.328	6714
683.332	6658
683.379	7461
683.426	7394
683.449	7635
683.473	7832
683.521	7207
683.568	7668
683.571	7711
683.615	7826
683.662	7914
683.693	7748
683.709	7597
683.757	7332
683.804	7598
683.814	7762
683.851	8301
683.898	7943
683.936	7704
683.945	7642
683.992	7798
684.039	7368
684.057	7696
684.086	7992
684.133	7604
684.179	7888
684.180	7883
684.227	8068
684.274	8944
684.300	8987
684.321	8938
684.368	7987
684.415	8691
684.422	8684
684.462	8522
684.509	8021
684.543	8735
684.556	9013
684.603	8920
684.649	9528
684.665	9410
684.696	8976
684.743	9568
684.786	9880
684.790	9875
684.837	9043
684.883	8661
684.908	8892
684.930	9227
684.977	9911
685.023	9442
685.029	9526
685.070	9961
685.117	9639
685.150	10302
685.164	10492
685.210	10092
685.257	10167
685.272	10214
685.303	10386
685.350	10007
685.393	10281
685.396	10261
685.443	9260
685.490	9895
685.514	9823
685.536	9905
685.583	9935
685.629	9285
685.636	9349
685.675	9579
685.722	10143
685.757	9516
685.768	9299
685.815	9463
685.861	10279
685.878	10242
685.908	10302
685.954	10308
686.000	10960
686.000	10959
686.047	11017
686.093	11414
686.121	11372
686.139	11272
686.185	10980
686.232	10814
686.242	10834
686.278	11041
686.324	11245
686.363	11723
686.370	11776
686.416	11814
686.463	11225
686.484	11073
686.509	10889
686.555	11343
686.601	11327
686.606	11318
686.647	11292
686.693	11157
686.727	11486
686.739	11582
686.785	11125
686.831	11243
686.848	11369
686.877	11686
686.923	11915
686.969	11139
686.969	11133
687.015	12063
687.061	12699
687.090	12850
687.107	12832
687.153	13352
687.199	12751
687.211	12608
687.245	12241
687.291	12462
687.332	12551
687.336	12576
687.382	12399
687.428	12981
687.453	13113
687.474	13210
687.520	13695
687.565	13548
687.574	13549
687.611	14111
687.657	15689
687.695	16321
687.702	16552
687.748	18978
687.794	21364
687.816	21597
687.839	20223
687.885	17932
687.931	15542
687.937	15367
687.976	15349
688.022	14291
688.058	14285
688.067	14401
688.113	13989
688.158	13787
688.179	13890
688.204	14002
688.249	13970
688.295	14287
688.300	14281
688.340	14375
688.386	13938
688.421	14016
688.431	14060
688.477	13869
688.522	14305
688.542	14627
688.567	15307
688.613	15188
688.658	16165
688.663	16220
688.703	15979
688.749	15498
688.784	15191
688.794	15190
688.839	15766
688.884	15927
688.905	15673
688.930	15271
688.975	15143
689.020	14907
689.026	14851
689.065	14917
689.110	15175
689.146	15524
689.155	15669
689.201	16481
689.246	16802
689.267	16959
689.291	16655
689.336	15809
689.381	14893
689.388	14883
689.426	15467
689.471	15395
689.509	15953
689.516	16037
689.561	15346
689.606	15311
689.630	15331
689.651	15507
689.696	15552
689.741	15821
689.750	15769
689.785	15554
689.830	16217
689.871	16124
689.875	16134
689.920	16055
689.965	15495
689.992	15698
690.010	15814
690.054	15707
690.099	15423
690.112	15501
690.144	15730
690.189	15249
690.233	15197
690.233	15217
690.278	15763
690.323	15806
690.354	16209
690.367	16244
690.412	15917
690.457	15130
690.474	15266
690.501	15738
690.546	15542
690.590	15545
690.595	15497
690.635	15176
690.680	15400
690.716	15336
690.724	15356
690.769	15428
690.813	15601
690.836	15328
690.857	15397
690.902	16563
690.946	17321
690.957	17311
690.991	16849
691.035	17145
691.077	16909
691.080	16925
691.124	16639
691.168	16784
691.198	16630
691.213	16573
691.257	16661
691.301	15980
691.318	16102
691.346	16426
691.390	16433
691.434	16370
691.439	16321
691.478	16335
691.522	16683
691.559	17120
691.567	17241
691.611	17732
691.655	17840
691.680	17849
691.699	17818
691.743	17994
691.787	17745
691.800	17725
691.831	17576
691.875	17583
691.919	17038
691.921	17007
691.964	17375
692.008	17529
692.041	17575
692.052	17612
692.096	17488
692.139	17731
692.162	17663
692.183	17638
692.227	17849
692.271	17578
692.282	17558
692.315	17363
692.359	17640
692.402	17042
692.403	17072
692.447	17197
692.490	17162
692.523	17248
692.534	17354
692.578	17785
692.622	17789
692.643	17998
692.666	18048
692.709	17930
692.753	17742
692.763	17680
692.797	17846
692.840	17692
692.884	17864
692.884	17901
692.928	18106
692.971	18485
693.004	18613
693.015	18567
693.059	18331
693.102	17990
693.124	17954
693.146	18255
693.189	18364
693.233	18663
693.245	18719
693.276	18626
693.320	18599
693.363	17875
693.365	17834
693.407	18172
693.450	18351
693.485	18324
693.493	18286
693.537	18379
693.580	18114
693.605	17837
693.624	17762
693.667	17778
693.710	17811
693.725	17744
693.753	17723
693.797	17335
693.840	17488
693.845	17453
693.883	17965
693.926	18253
693.966	18756
693.970	18817
694.013	18794
694.056	19244
694.086	18997
694.099	18897
694.142	18736
694.185	18894
694.206	18878
694.229	19118
694.272	19443
694.315	19485
694.326	19519
694.358	19696
694.401	19716
694.444	19991
694.446	19958
694.487	19623
694.530	19065
694.566	18573
694.573	18713
694.616	19455
694.659	20148
694.686	20693
694.702	20779
694.745	20602
694.787	20500
694.806	20329
694.830	20270
694.873	20139
694.916	20259
694.926	20285
694.959	21184
695.002	21644
695.044	22523
695.046	22514
695.087	22935
695.130	23108
695.166	23149
695.172	23192
695.215	23117
695.258	23216
695.286	23246
695.301	23482
695.343	23955
695.386	24335
695.406	24490
695.428	25590
695.471	27654
695.514	29524
695.526	30154
695.556	32115
695.599	34581
695.641	36774
695.646	36915
695.684	34971
695.726	33145
695.766	31158
695.769	31157
695.811	30246
695.854	29129
695.886	28372
695.896	28636
695.938	29158
695.981	30142
696.005	30466
696.023	31537
696.065	34103
696.108	36698
696.125	37681
696.150	37851
696.192	38079
696.235	37841
696.245	37801
696.277	38273
696.319	38815
696.361	39182
696.365	39129
696.404	38416
696.446	37446
696.485	36453
696.488	36534
696.530	36566
696.572	36464
696.604	36544
696.614	36689
696.656	36779
696.698	36750
696.724	36704
696.740	37042
696.783	37741
696.825	38504
696.844	38684
696.867	38673
696.909	38609
696.951	38447
696.964	38332
696.992	38896
697.034	39530
697.076	40164
697.083	40201
697.118	41061
697.160	41839
697.202	42572
697.203	42494
697.244	42478
697.286	42408
697.323	42041
697.327	42145
697.369	42322
697.411	42473
697.442	42425
697.453	42519
697.494	42585
697.536	42587
697.562	42531
697.578	42653
697.620	42693
697.661	42693
697.682	42629
697.703	43637
697.744	45365
697.786	47153
697.801	47650
697.828	47289
697.869	46523
697.911	45832
697.921	45580
697.952	45594
697.994	45327
698.035	45051
698.040	44913
698.077	45217
698.118	45419
698.160	45642
698.160	45531
698.201	47054
698.243	48522
698.279	49698
698.284	49938
698.325	51004
698.367	52156
698.399	52890
698.408	53210
698.449	54065
698.491	54933
698.518	55354
698.532	55364
698.573	55064
698.614	54714
698.638	54381
698.656	54498
698.697	54457
698.738	54414
698.757	54259
698.779	54666
698.820	55197
698.862	55718
698.877	55777
698.903	55466
698.944	54750
698.985	54021
698.996	53689
699.026	53683
699.067	53488
699.116	53125
699.235	54209
699.354	52884
699.474	48276
699.593	49802
699.713	50357
699.832	50572
699.951	53895
700.070	51203
700.190	47895
700.309	46925
700.428	46563
700.547	44804
700.667	45123
700.786	45640
700.905	42950
701.024	44989
701.143	42740
701.262	46385
701.381	46802
701.500	48286
701.619	46103
701.738	46455
701.857	45523
701.976	42798
702.095	44555
702.214	46728
702.333	43919
702.452	46019
702.571	47001
702.690	46615
702.809	45975
702.928	43341
703.047	39960
703.165	43634
703.284	42322
703.403	40672
703.522	40520
703.640	39137
703.759	39194
703.878	37620
703.997	39257
704.115	40445
704.234	40022
704.353	40538
704.471	36219
704.590	36930
704.708	36496
704.827	36984
704.946	35661
705.064	36037
705.183	36101
705.301	36517
705.420	35174
705.538	33895
705.656	31157
705.775	32592
705.893	33603
706.012	33639
706.130	32900
706.249	33748
706.367	32032
706.485	31715
706.604	30848
706.722	32396
706.840	37956
706.958	52602
707.077	38034
707.195	30165
707.313	31130
707.431	29136
707.549	28413
707.668	27350
707.786	31225
707.904	28421
708.022	31045
708.140	28291
708.258	27650
708.376	30989
708.494	26620
708.612	29909
708.730	29660
708.848	27816
708.966	29513
709.084	29368
709.202	28270
709.320	25821
709.438	27475
709.556	26433
709.674	24242
709.791	24876
709.909	24894
710.027	24691
710.145	24406
710.263	24871
710.380	24571
710.498	23093
710.616	23953
710.733	22145
710.851	22995
710.969	24143
711.086	22681
711.204	23692
711.322	23455
711.439	23059
711.557	21354
711.674	22749
711.792	22356
711.909	21421
712.027	20961
712.144	21164
712.262	22365
712.379	22604
712.497	21159
712.614	20872
712.732	22210
712.849	21254
712.966	22792
713.084	23268
713.201	18944
713.318	22433
713.436	24488
713.553	21273
713.670	24898
713.787	24044
713.905	22760
714.022	24371
714.139	26122
714.256	32155
714.373	48607
714.490	91282
714.608	243504
714.725	822749
714.842	647808
714.959	97464
715.076	42743
715.193	33434
715.310	28058
715.427	22386
715.544	24048
715.661	22499
715.778	19532
715.895	20798
716.011	20682
716.128	19490
716.245	20719
716.362	18723
716.479	17129
716.596	18580
716.713	19650
716.829	18192
716.946	16542
717.063	16075
717.180	15681
717.296	16929
717.413	16454
717.530	15447
717.646	14950
717.763	16101
717.880	15554
717.996	14730
718.113	15140
718.229	15794
718.346	15192
718.462	14115
718.579	15583
718.695	14197
718.812	15629
718.928	16050
719.045	14883
719.161	14392
719.277	15865
719.394	15938
719.510	16910
719.626	18650
719.743	24687
719.859	40948
719.975	88807
720.092	342489
720.208	567203
720.324	80302
720.440	26567
720.557	19137
720.673	18951
720.789	15749
720.905	15066
721.021	14756
721.137	14283
721.253	12180
721.369	13724
721.486	13628
721.602	13132
721.718	13034
721.834	13093
721.950	12914
722.066	12738
722.181	12220
722.297	12047
722.413	12491
722.529	13187
722.645	12459
722.761	12919
722.877	12718
722.993	15306
723.108	20289
723.224	17119
723.340	13601
723.456	12007
723.571	11472
723.687	10960
723.803	12587
723.918	11234
724.034	11012
724.150	11318
724.265	10925
724.381	11187
724.497	11285
724.612	11780
724.728	12000
724.843	11195
724.959	10664
725.074	10937
725.190	11373
725.305	11030
725.421	9980
725.536	11181
725.651	12999
725.767	11523
725.882	10668
725.997	11046
726.113	11856
726.228	10565
726.343	10375
726.459	10796
726.574	10669
726.689	9989
726.804	10700
726.920	10635
727.035	11270
727.150	10817
727.265	9836
727.380	10398
727.495	11215
727.610	10811
727.725	9857
727.841	10692
727.956	10696
728.071	9826
728.186	9668
728.301	11071
728.416	11490
728.531	11387
728.645	9870
728.760	10497
728.875	10224
728.990	11156
729.105	9167
729.220	10342
729.335	11375
729.449	10328
729.564	10720
729.679	9671
729.794	10886
729.908	10654
730.023	10249
730.138	11487
730.253	11100
730.367	9905
730.482	10582
730.596	11403
730.711	14773
730.826	22293
730.940	22255
731.055	16083
731.169	15904
731.284	17621
731.398	17030
731.513	17818
731.627	21441
731.742	27812
731.856	34348
731.970	34149
732.085	45275
732.199	65532
732.313	120009
732.428	301522
732.542	686209
732.656	350937
732.771	92249
732.885	53694
732.999	48212
733.113	49669
733.227	46185
733.342	42437
733.456	42141
733.570	40330
733.684	37792
733.798	36376
733.912	38002
734.026	37858
734.140	36587
734.254	35552
734.368	34713
734.482	34028
734.596	34510
734.710	32996
734.824	32547
734.938	33219
735.052	33944
735.166	33332
735.280	33044
735.393	31529
735.507	33364
735.621	31200
735.735	29656
735.849	32567
735.962	29601
736.076	31463
736.190	29948
736.303	29691
736.417	29895
736.531	28798
736.644	29090
736.758	29258
736.872	28522
736.985	29193
737.099	27675
737.212	28217
737.326	26226
737.439	29117
737.553	25587
737.666	27811
737.780	25778
737.893	28131
738.007	25515
738.120	27280
738.233	24708
738.347	25801
738.460	23912
738.573	27141
738.687	24708
738.800	25962
738.913	27221
739.026	23998
739.140	23944
739.253	24549
739.366	23983
739.479	24623
739.592	25006
739.705	21985
739.818	26626
739.932	21492
740.045	24857
740.158	22281
740.271	24958
740.384	23080
740.497	20461
740.610	22150
740.723	20816
740.836	21414
740.949	22693
741.062	25173
741.174	21554
741.287	22508
741.400	23105
741.513	19290
741.626	22791
741.739	19558
741.851	20578
741.964	21973
742.077	20254
742.189	17662
742.302	21000
742.415	20348
742.527	20195
742.640	20277
742.753	16783
742.865	20283
742.978	18701
743.090	17478
743.203	20633
743.316	17971
743.428	18976
743.541	19381
743.653	16215
743.766	19129
743.878	18591
743.990	17192
744.103	19592
744.215	17119
744.327	16659
744.440	21870
744.552	16683
744.664	16450
744.777	19968
744.889	16738
745.001	16900
745.113	19561
745.226	16826
745.338	15880
745.450	19487
745.562	15581
745.674	15809
745.786	18764
745.898	17869
746.010	15668
746.122	17129
746.234	16479
746.347	16271
746.459	16865
746.570	12732
746.682	17574
746.794	19352
746.906	14302
747.018	16253
747.130	16503
747.242	13865
747.354	15095
747.466	15431
747.577	13705
747.689	16037
747.801	15676
747.913	12967
748.024	14809
748.136	14262
748.248	13545
748.359	14573
748.471	15697
748.583	11338
748.694	12478
748.806	14672
748.918	13500
749.029	14138
749.141	14027
749.252	14000
749.364	13260
749.475	12278
749.587	12669
749.698	12252
749.809	13602
749.921	13525
750.032	12520
750.144	11569
750.255	12083
750.366	13345
750.478	11544
750.589	12595
750.700	11304
750.811	12991
750.923	10933
751.034	10920
751.145	13867
751.256	12316
751.367	10650
751.479	12009
751.590	11139
751.701	10785
751.812	10414
751.923	10964
752.034	13991
752.145	11903
752.256	11286
752.367	11421
752.478	11936
752.589	12508
752.700	11390
752.811	9458
752.922	11741
753.032	13087
753.143	11599
753.254	10190
753.365	13242
753.476	13135
753.586	11522
753.697	10988
753.808	11360
753.919	10251
754.029	10209
754.140	9754
754.251	10169
754.361	11228
754.472	11512
754.582	10272
754.693	10706
754.804	12289
754.914	10567
755.025	9317
755.135	10477
755.246	11607
755.356	10245
755.466	8438
755.577	9061
755.687	10972
755.798	9933
755.908	9023
756.018	10638
756.129	9785
756.239	11101
756.349	10856
756.460	11945
756.570	11741
756.680	11198
756.790	10642
756.900	10996
757.011	9474
757.121	8402
757.231	9590
757.341	10003
757.451	8916
757.561	8190
757.671	9969
757.781	9662
757.891	9228
758.001	7918
758.111	10170
758.221	10907
758.331	10507
758.441	10098
758.551	10025
758.661	12622
758.771	11331
758.880	11600
758.990	9687
759.100	10582
759.210	10246
759.320	11133
759.429	10515
759.539	12996
759.649	12155
759.758	14559
759.868	15995
759.978	15744
760.087	16433
760.197	15484
760.307	15339
760.416	13779
760.526	12801
760.635	14331
760.745	15530
760.854	16690
760.964	18515
761.073	18399
761.182	16844
761.292	14251
761.401	12370
761.511	10605
761.620	9663
761.729	10322
761.839	8542
761.948	8944
762.057	8495
762.166	9614
762.276	7458
762.385	9585
762.494	7891
762.603	7947
762.712	8308
762.822	8186
762.931	7492
763.040	7266
763.149	7730
763.258	7381
763.367	7581
763.476	7537
763.585	6489
763.694	7118
763.803	7930
763.912	6821
764.021	7115
764.130	7364
764.238	7518
764.347	8135
764.456	8094
764.565	7242
764.674	6645
764.783	7634
764.891	7768
765.000	7335
765.109	6530
765.217	5679
765.326	6408
765.435	6788
765.543	6351
765.652	6355
765.761	6288
765.869	5501
765.978	6695
766.086	7629
766.195	7768
766.303	8628
766.412	17904
766.520	11394
766.629	6084
766.737	7050
766.846	6883
766.954	6142
767.062	7205
767.171	6310
767.279	7265
767.387	6458
767.496	6199
767.604	5711
767.712	6702
767.820	4978
767.928	6215
768.037	4997
768.145	6209
768.253	5726
768.361	5457
768.469	6087
768.577	5508
768.685	7649
768.793	7442
768.901	7152
769.009	7643
769.117	5978
769.225	6698
769.333	7230
769.441	7452
769.549	7101
769.657	7710
769.765	10967
769.873	13904
769.981	8886
770.088	7239
770.196	7829
770.304	9053
770.412	9171
770.519	9490
770.627	10101
770.735	9329
770.842	8972
770.950	10457
771.058	11430
771.165	14750
771.273	16038
771.380	16551
771.488	24710
771.595	27685
771.703	23407
771.810	21785
771.918	22727
772.025	28901
772.133	32121
772.240	29808
772.348	35506
772.455	32321
772.562	29849
772.670	28222
772.777	29626
772.884	28678
772.991	27582
773.099	29379
773.206	27446
773.313	28073
773.420	27717
773.528	27029
773.635	26939
773.742	27746
773.849	24514
773.956	27292
774.063	25680
774.170	26368
774.277	27566
774.384	25511
774.491	24726
774.598	26012
774.705	24533
774.812	24189
774.919	25553
775.026	23713
775.133	25653
775.239	24430
775.346	23506
775.453	23632
775.560	22612
775.667	26328
775.773	22210
775.880	22758
775.987	22750
776.093	24070
776.200	24323
776.307	18686
776.413	20736
776.520	26117
776.627	20968
776.733	19314
776.840	19836
776.946	27315
777.053	22092
777.159	21578
777.266	20451
777.372	22499
777.478	23372
777.585	20830
777.691	18297
777.798	22216
777.904	18308
778.010	20169
778.117	20086
778.223	19319
778.329	20150
778.435	18115
778.542	21857
778.648	18259
778.754	17062
778.860	19183
778.966	18624
779.072	17793
779.178	18215
779.284	15590
779.391	18412
779.497	18419
779.603	19648
779.708	15386
779.815	15460
779.920	18064
780.026	15808
780.132	17697
780.238	15930
780.344	15743
780.450	20674
780.556	13778
780.661	15953
780.767	18632
780.873	12294
780.979	14562
781.085	17791
781.190	14871
781.296	13937
781.402	16654
781.507	16056
781.613	12717
781.719	15597
781.824	17063
781.930	14350
782.035	15921
782.141	17295
782.246	12359
782.352	13270
782.457	15300
782.563	14626
782.668	15362
782.773	11885
782.879	12271
782.984	15368
783.090	14225
783.195	15872
783.300	15990
783.405	11689
783.511	11580
783.616	12795
783.721	14688
783.826	12429
783.932	12737
784.037	13033
784.142	13920
784.247	12843
784.352	12651
784.457	9848
784.562	14924
784.667	14011
784.772	10400
784.877	9193
784.982	13941
785.087	14323
785.192	10292
785.297	12072
785.402	13595
785.507	12167
785.611	11573
785.716	9280
785.821	12183
785.926	12083
786.031	11608
786.135	11995
786.240	12293
786.345	9161
786.450	10232
786.554	11386
786.659	10143
786.763	10958
786.868	11824
786.973	13102
787.077	9963
787.182	8967
787.286	12497
787.391	13679
787.495	7424
787.600	8099
787.704	9743
787.809	11695
787.913	10332
788.017	10057
788.122	12261
788.226	9626
788.330	7257
788.435	10972
788.539	12169
788.643	8903
788.747	7092
788.852	10565
788.956	9247
789.060	10440
789.164	10393
789.268	9513
789.372	11012
789.476	9395
789.580	7210
789.684	8658
789.788	10668
789.892	9214
789.996	7077
790.100	6705
790.204	10700
790.308	11408
790.412	6375
790.516	5794
790.620	8691
790.724	10949
790.828	8300
790.931	4954
791.035	8699
791.139	7838
791.242	8535
791.346	8802
791.450	9195
791.554	8378
791.657	6105
791.761	8116
791.864	8462
791.968	9518
792.072	9168
792.175	6572
792.279	7048
792.382	6951
792.486	6663
792.589	7397
792.693	8829
792.796	7032
792.899	8612
793.003	8402
793.106	6299
793.209	7343
793.313	7099
793.416	4800
793.519	6522
793.623	10057
793.726	7914
793.829	5589
793.932	4470
794.035	5089
794.138	8917
794.242	9201
794.345	5393
794.448	5242
794.551	5337
794.654	8361
794.757	7962
794.860	5553
794.963	7031
795.066	6177
795.169	7906
795.272	6019
795.375	8156
795.477	5029
795.580	5228
795.683	4941
795.786	8112
795.889	5462
795.991	6477
796.094	6507
796.197	5340
796.300	8863
796.402	6927
796.505	4133
796.608	4997
796.710	5595
796.813	7807
796.915	7464
797.018	6599
797.120	6278
797.223	5427
797.326	8383
797.428	4802
797.530	4848
797.633	5044
797.735	7525
797.838	6640
797.940	8835
798.042	6590
798.145	4550
798.247	5611
798.349	4281
798.452	7229
798.554	7068
798.656	6695
798.758	7535
798.860	6413
798.962	6026
799.065	4661
799.167	4559
799.269	5945
799.371	6839
799.473	8908
799.575	7534
799.677	4775
799.779	6213
799.881	5642
799.983	6799
800.085	5223
800.187	6749
800.289	3822
800.390	5018
800.492	7075
800.594	5579
800.696	4156
800.798	4477
800.899	4645
801.001	5582
801.103	5866
801.205	5531
801.306	5891
801.408	5282
801.509	5230
801.611	5950
801.713	5676
801.814	3813
801.916	3727
802.017	3647
802.119	4177
802.220	5590
802.322	4641
802.423	6533
802.525	3024
802.626	4579
802.727	6257
802.829	5837
802.930	1903
803.031	5524
803.133	4557
803.234	5102
803.335	5332
803.436	4028
803.538	4726
803.639	3672
803.740	4946
803.841	5169
803.942	6019
804.043	4855
804.144	3832
804.245	4093
804.346	3685
804.447	3309
804.548	4419
804.649	6170
804.750	4055
804.851	4588
804.952	5069
805.053	4585
805.154	2747
805.255	5619
805.355	5441
805.456	3719
805.557	3591
805.658	3379
805.758	4497
805.859	3692
805.960	4821
806.061	3985
806.161	4238
806.262	3715
806.362	3216
806.463	3708
806.564	5837
806.664	4399
806.765	3831
806.865	3561
806.966	3245
807.066	2907
807.166	5300
807.267	4284
807.367	3234
807.468	4444
807.568	1991
807.668	4350
807.769	4709
807.869	4262
807.969	4415
808.069	3187
808.170	4009
808.270	3932
808.370	4539
808.470	3894
808.570	3100
808.670	3958
808.770	3501
808.870	3279
808.970	3482
809.070	3338
809.170	4183
809.271	4762
809.370	4268
809.470	3215
809.570	3278
809.670	2372
809.770	3878
809.870	4068
809.970	4534
810.070	3951
810.169	3896
810.269	2628
810.369	4970
810.469	4067
810.568	4079
810.668	2783
810.768	2763
810.867	2715
810.967	3132
811.066	3769
811.166	3875
811.265	4553
811.365	3193
811.464	3054
811.564	3135
811.663	3980
811.763	2939
811.862	4354
811.962	4260
812.061	3294
812.160	2613
812.260	3885
812.359	4027
812.458	3328
812.557	3502
812.657	2603
812.756	4716
812.855	3217
812.954	3891
813.053	3750
813.153	3938
813.252	3960
813.351	4115
813.450	4363
813.549	3685
813.648	4283
813.747	3857
813.846	4411
813.945	3910
814.044	4571
814.143	4619
814.242	4747
814.341	3730
814.439	5951
814.538	5312
814.637	5193
814.736	5320
814.835	5970
814.933	5935
815.032	7347
815.131	11019
815.229	21644
815.328	26352
815.427	18667
815.525	17246
815.624	16959
815.722	16546
815.821	17520
815.919	17861
816.018	17048
816.116	17742
816.215	18740
816.313	19947
816.412	24411
816.510	22828
816.609	24382
816.707	26346
816.805	22503
816.904	22662
817.002	23156
817.100	23535
817.198	23859
817.296	22772
817.395	23629
817.493	21364
817.591	20676
817.689	21081
817.787	22321
817.885	20394
817.983	19128
818.081	19319
818.179	19000
818.277	23743
818.375	18159
818.473	18378
818.571	16801
818.669	20913
818.767	22533
818.865	17552
818.963	15481
819.061	19829
819.158	18086
819.256	21027
819.354	16359
819.452	17655
819.549	17326
819.647	19590
819.745	16008
819.842	17809
819.940	18465
820.038	15999
820.135	14893
820.233	17947
820.330	16370
820.428	14936
820.525	18466
820.623	15625
820.720	15008
820.818	17075
820.915	17575
821.012	15750
821.110	15504
821.207	15975
821.304	14366
821.402	17119
821.499	17362
821.596	13202
821.693	15759
821.791	16018
821.888	15373
821.985	18034
822.082	11567
822.179	15448
822.276	16812
822.373	12315
822.470	13775
822.567	15352
822.664	12769
822.761	15176
822.858	14870
822.955	13490
823.052	12228
823.149	14821
823.246	15209
823.343	10663
823.440	11576
823.536	15422
823.633	13715
823.730	12493
823.827	15116
823.923	12965
824.020	11863
824.117	15128
824.213	14877
824.310	11226
824.407	10152
824.503	14515
824.600	12315
824.696	11561
824.793	14646
824.889	14036
824.986	10240
825.082	9538
825.179	9846
825.275	15606
825.371	14529
825.468	9504
825.564	7309
825.660	13496
825.757	15948
825.853	10994
825.949	9704
826.045	10517
826.142	11818
826.238	12715
826.334	13196
826.430	11394
826.526	7936
826.622	7993
826.718	14165
826.814	14366
826.910	10503
827.006	6830
827.102	7523
827.198	11891
827.294	13324
827.390	12821
827.486	9647
827.582	7519
827.678	9211
827.774	13158
827.869	9152
827.965	8940
828.061	7916
828.157	12816
828.252	12436
828.348	9008
828.444	8391
828.539	9159
828.635	10241
828.731	9752
828.826	8581
828.922	11099
829.017	12122
829.113	11180
829.208	8177
829.304	8987
829.399	13868
829.495	10897
829.590	8068
829.685	9646
829.781	11408
829.876	10606
829.971	5343
830.066	5744
830.162	9200
830.257	14529
830.352	8902
830.447	6545
830.543	7691
830.638	9866
830.733	11007
830.828	7490
830.923	9310
831.018	9881
831.113	11834
831.208	5508
831.303	5168
831.398	6332
831.493	9468
831.588	13479
831.683	7561
831.778	5275
831.873	6509
831.967	10329
832.062	10053
832.157	7601
832.252	7972
832.346	6783
832.441	9802
832.536	7788
832.631	8244
832.725	6183
832.820	8076
832.914	8454
833.009	5416
833.104	4179
833.198	6380
833.293	7323
833.387	9491
833.482	8219
833.576	7056
833.670	7264
833.765	8459
833.859	8134
833.954	7590
834.048	7913
834.142	6140
834.237	5283
834.331	7035
834.425	8441
834.519	6235
834.613	5959
834.708	5307
834.802	6034
834.896	7364
834.990	7697
835.084	5547
835.178	5240
835.272	6694
835.366	8822
835.460	9238
835.554	5498
835.648	4323
835.742	3438
835.836	4890
835.930	5427
836.024	7540
836.117	7655
836.211	4630
836.305	4516
836.399	5762
836.493	5342
836.586	7032
836.680	7137
836.774	4492
836.867	5418
836.961	4527
837.055	5083
837.148	4915
837.242	6521
837.335	6031
837.429	4784
837.522	3312
837.616	3769
837.709	5213
837.803	5375
837.896	8212
837.989	6329
838.083	3374
838.176	2606
838.269	3207
838.363	5163
838.456	4649
838.549	6361
838.642	5208
838.735	4312
838.829	5558
838.922	4883
839.015	4544
839.108	4250
839.201	5147
839.294	5921
839.387	3930
839.480	2734
839.573	3411
839.666	3779
839.759	4961
839.852	4304
839.945	6159
840.038	4493
840.131	3217
840.223	4123
840.316	4836
840.409	6586
840.502	6303
840.594	6351
840.687	2407
840.780	3082
840.873	2183
840.965	3328
841.058	5908
841.150	5125
841.243	2726
841.336	3664
841.428	3136
841.521	4192
841.613	4616
841.706	4786
841.798	4165
841.890	4446
841.983	3488
842.075	3023
842.167	4417
842.260	4993
842.352	6567
842.444	4906
842.537	2604
842.629	3552
842.721	2417
842.813	3692
842.905	3218
842.997	4748
843.090	4398
843.182	2779
843.274	2806
843.366	3787
843.458	4567
843.550	4543
843.642	4108
843.734	4453
843.826	3151
843.918	2513
844.009	3898
844.101	3319
844.193	3879
844.285	4884
844.377	4836
844.469	3312
844.560	2381
844.652	2302
844.744	3319
844.835	3837
844.927	4230
845.019	3400
845.110	3054
845.202	3942
845.293	2500
845.385	2752
845.476	3498
845.568	4944
845.659	2585
845.751	3269
845.842	2678
845.934	3300
846.025	3391
846.116	3509
846.208	3922
846.299	1971
846.390	2615
846.482	3624
846.573	3635
846.664	4647
846.755	3425
846.846	4411
846.937	2118
847.029	2824
847.120	3233
847.211	2869
847.302	4610
847.393	3363
847.484	3884
847.575	1687
847.666	1971
847.757	2858
847.847	3328
847.938	4234
848.029	4742
848.120	3090
848.211	2754
848.302	2153
848.392	2218
848.483	3479
848.574	3022
848.664	4027
848.755	4021
848.846	2713
848.936	2571
849.027	4210
849.118	4152
849.208	3254
849.299	5932
849.389	8961
849.480	14919
849.570	27436
849.661	50360
849.751	71439
849.841	26879
849.932	7864
850.022	5174
850.112	4649
850.203	4138
850.293	2280
850.383	2342
850.474	2158
850.564	2159
850.654	1752
850.744	2384
850.834	2532
850.924	2946
851.014	4650
851.104	3095
851.194	2702
851.284	2740
851.374	2438
851.464	2143
851.554	2239
851.644	3585
851.734	2919
851.824	3065
851.914	3345
852.004	3715
852.094	2987
852.183	1800
852.273	3201
852.363	3519
852.452	3505
852.542	2675
852.632	2463
852.721	3180
852.811	2986
852.901	4746
852.990	4547
853.080	4305
853.169	3675
853.259	4774
853.348	4584
853.438	6233
853.527	8580
853.617	10901
853.706	18117
853.795	29268
853.885	54777
853.974	91196
854.063	153901
854.152	182761
854.242	88171
854.331	31112
854.420	15856
854.509	12348
854.598	9255
854.687	6877
854.777	6612
854.866	4689
854.955	5414
855.044	3645
855.133	3696
855.222	3871
855.311	3042
855.400	3192
855.488	2743
855.577	3211
855.666	2815
855.755	3452
855.844	3049
855.933	2615
856.021	2642
856.110	3060
856.199	1724
856.288	1871
856.376	2366
856.465	2669
856.554	3108
856.642	3517
856.731	3753
856.819	3396
856.908	2840
856.996	2789
857.085	2226
857.173	2547
857.262	1736
857.350	2500
857.438	1569
857.527	3037
857.615	2556
857.703	3449
857.792	2323
857.880	1562
857.968	2989
858.056	2431
858.145	2894
858.233	2193
858.321	2479
858.409	2899
858.497	2478
858.585	1893
858.673	2743
858.761	2486
858.849	1632
858.937	2420
859.025	3095
859.113	4115
859.201	2204
859.289	3960
859.377	3157
859.465	2957
859.552	2197
859.640	2362
859.728	2879
859.816	2326
859.903	3415
859.991	1772
860.079	3035
860.166	2342
860.254	2089
860.342	3489
860.429	2410
860.517	2616
860.604	2557
860.692	2114
860.779	1654
860.867	2107
860.954	2424
861.042	3545
861.129	3011
861.216	4211
861.304	3147
861.391	3215
861.478	2666
861.565	3361
861.653	2691
861.740	2965
861.827	2588
861.914	2733
862.001	2552
862.089	2489
862.176	3672
862.263	2194
862.350	2973
862.437	2811
862.524	1855
862.611	2488
862.698	3355
862.785	4016
862.871	5123
862.958	4285
863.045	3503
863.132	2899
863.219	3533
863.306	2758
863.392	3114
863.479	3320
863.566	3115
863.652	3713
863.739	3470
863.826	4778
863.912	3818
863.999	3921
864.086	4764
864.172	5434
864.259	5013
864.345	4799
864.432	4682
864.518	4749
864.604	4593
864.691	4421
864.777	5862
864.863	7414
864.950	11718
865.036	14846
865.122	26593
865.209	25899
865.295	21968
865.381	21699
865.467	20432
865.553	21597
865.639	24117
865.726	30379
865.812	44612
865.898	64273
865.984	88259
866.070	134854
866.156	127663
866.242	56999
866.328	31707
866.414	23544
866.499	20855
866.585	19391
866.671	18748
866.757	18801
866.843	18828
866.928	17190
867.014	17140
867.100	18131
867.186	17481
867.271	16516
867.357	18350
867.442	15811
867.528	16523
867.614	16243
867.699	17222
867.785	17268
867.870	16113
867.956	16396
868.041	15491
868.127	15970
868.212	15022
868.297	15833
868.383	16217
868.468	15140
868.553	17041
868.639	14500
868.724	15470
868.809	15390
868.894	14124
868.979	14579
869.065	14856
869.150	12068
869.235	14890
869.320	14508
869.405	12376
869.490	15611
869.575	13818
869.660	11231
869.745	15939
869.830	15462
869.915	12398
870.000	12215
870.085	12563
870.169	17386
870.254	16014
870.339	9912
870.424	11529
870.509	14173
870.593	15997
870.678	15531
870.763	12251
870.847	11381
870.932	14857
871.016	13970
871.101	9700
871.186	14158
871.270	15465
871.355	10753
871.439	12031
871.523	13701
871.608	10449
871.692	11270
871.777	13980
871.861	13858
871.945	11990
872.030	12980
872.114	11486
872.198	10201
872.282	11416
872.367	11091
872.451	11596
872.535	11918
872.619	12701
872.703	11788
872.787	13039
872.871	12237
872.955	9698
873.039	8907
873.123	12380
873.207	12707
873.291	8464
873.375	10528
873.459	13057
873.543	11279
873.627	10422
873.711	9581
873.794	11877
873.878	10854
873.962	8885
874.045	9271
874.129	10299
874.137	10345
874.213	10807
874.245	10111
874.296	8991
874.352	8902
874.380	8864
874.460	9752
874.464	9790
874.547	8700
874.568	9164
874.631	10562
874.676	10609
874.714	10615
874.784	10249
874.798	10184
874.881	9067
874.892	8898
874.965	7849
874.999	8732
875.048	9869
875.107	9817
875.131	9800
875.215	7652
875.215	7651
875.298	6817
875.323	7672
875.381	9686
875.430	11316
875.465	12418
875.538	10728
875.548	10493
875.631	6991
875.646	6986
875.714	7117
875.753	7423
875.798	7747
875.861	9576
875.881	10115
875.964	8145
875.968	8109
876.047	7672
876.076	7878
876.130	8254
876.183	8995
876.213	9387
876.291	9786
876.296	9803
876.379	8516
876.398	8322
876.462	7705
876.506	6924
876.545	6347
876.613	7299
876.628	7498
876.711	8900
876.721	9012
876.794	9860
876.828	9560
876.877	8807
876.935	6921
876.960	6309
877.043	6827
877.043	6834
877.125	8274
877.150	8777
877.208	9872
877.258	8180
877.291	6910
877.365	6984
877.374	7036
877.456	6527
877.472	6448
877.539	6102
877.579	7542
877.622	9027
877.687	9099
877.704	9106
877.787	7808
877.794	7827
877.869	8132
877.901	8213
877.952	7954
878.008	6288
878.034	5686
878.115	6246
878.117	6259
878.199	6026
878.222	6417
878.282	7648
878.329	8577
878.364	8977
878.437	8242
878.447	8094
878.529	6045
878.544	5983
878.611	6070
878.651	6484
878.694	7324
878.758	8134
878.776	8146
878.858	7895
878.865	7768
878.941	6273
878.972	5975
879.023	5549
879.078	5871
879.105	6300
879.185	7964
879.187	7986
879.269	7782
879.292	7843
879.351	7773
879.399	6571
879.433	5677
879.506	5921
879.516	6004
879.598	6246
879.613	6146
879.680	5841
879.720	6648
879.762	7576
879.827	6909
879.844	6475
879.926	5923
879.933	5907
880.007	6978
880.040	6832
880.089	6181
880.147	6286
880.171	6475
880.253	7365
880.254	7362
880.335	5864
880.360	6019
880.417	7434
880.467	7561
880.499	7014
880.574	6996
880.580	7086
880.662	7870
880.680	7506
880.744	5192
880.787	5172
880.825	5877
880.893	6314
880.907	6201
880.989	5276
881.000	5301
881.070	6604
881.106	6894
881.152	6403
881.213	5077
881.233	4834
881.315	6310
881.319	6301
881.396	6698
881.426	6593
881.478	6230
881.532	7919
881.559	8604
881.639	6442
881.641	6380
881.722	6139
881.745	5884
881.803	6399
881.852	7211
881.885	7176
881.958	5867
881.966	5767
882.047	6442
882.064	6274
882.129	5241
882.171	4776
882.210	4419
882.277	3983
882.291	4161
882.372	6509
882.383	6712
882.454	7478
882.489	7404
882.535	7131
882.596	7467
882.616	7618
882.697	7090
882.702	7072
882.778	5423
882.808	4895
882.859	4571
882.914	4521
882.940	4909
883.020	5972
883.021	5981
883.102	6677
883.127	7079
883.183	8576
883.233	8711
883.264	7281
883.339	4312
883.345	4247
883.426	3490
883.445	3621
883.507	4742
883.551	5135
883.587	5775
883.657	7468
883.668	7589
883.749	7377
883.763	7249
883.830	5232
883.869	4499
883.910	4405
883.975	4395
883.991	4588
884.072	5846
884.081	5958
884.152	7826
884.187	8645
884.233	8855
884.292	8162
884.314	7191
884.394	4258
884.398	4128
884.475	3672
884.504	3461
884.555	3743
884.610	4261
884.636	4609
884.716	5695
884.716	5710
884.797	8114
884.821	8482
884.877	7755
884.927	6994
884.958	6264
885.033	4942
885.038	4893
885.118	4139
885.139	4026
885.199	4336
885.244	4433
885.279	5064
885.350	6713
885.359	6951
885.439	8542
885.456	8669
885.520	6765
885.561	5803
885.600	4919
885.667	4144
885.680	4476
885.760	5601
885.773	5828
885.840	4821
885.878	4259
885.920	4439
885.984	4917
886.000	5130
886.080	5727
886.089	5815
886.160	6549
886.195	6726
886.240	6296
886.300	5886
886.320	5963
886.400	6221
886.406	6232
886.480	5055
886.511	4509
886.560	4802
886.616	5348
886.640	5352
886.720	5015
886.722	5010
886.800	4876
886.827	4780
886.879	5159
886.932	5527
886.959	6179
887.038	7829
887.039	7822
887.119	6465
887.143	6030
887.198	5816
887.248	5630
887.278	5606
887.354	5345
887.358	5376
887.437	6062
887.459	6298
887.517	6591
887.564	6456
887.596	5749
887.669	4350
887.676	4257
887.755	3191
887.774	2923
887.835	3748
887.880	4481
887.914	4963
887.985	5709
887.994	5889
888.073	7653
888.090	7944
888.153	8601
888.195	8993
888.232	7595
888.300	5166
888.311	5166
888.391	5121
888.405	5104
888.470	4829
888.510	4600
888.549	4784
888.615	5344
888.628	5643
888.708	7172
888.720	7409
888.787	6862
888.825	6470
888.866	5292
888.930	3551
888.945	3894
889.024	5778
889.035	6000
889.103	7046
889.140	7619
889.182	6406
889.245	4670
889.261	4903
889.340	5923
889.349	6041
889.419	5525
889.454	5229
889.498	4937
889.559	4583
889.577	5009
889.656	6851
889.664	7026
889.735	6860
889.768	6763
889.814	5959
889.873	4860
889.978	5431
890.083	5179
890.187	5906
890.292	6404
890.397	5109
890.501	3909
890.606	4305
890.710	4946
890.815	7050
890.919	5432
891.024	6388
891.128	4459
891.233	4233
891.337	6304
891.442	6065
891.546	5300
891.650	3939
891.755	4319
891.859	6047
891.963	6414
892.068	5867
892.172	4277
892.276	3671
892.380	4267
892.484	7086
892.589	6960
892.693	5706
892.797	3472
892.901	3663
893.005	3830
893.109	7151
893.213	8308
893.317	4652
893.421	3638
893.525	3373
893.629	3913
893.733	5716
893.837	4010
893.941	5013
894.045	3609
894.148	3561
894.252	4178
894.356	6852
894.460	8043
894.564	4997
894.667	3983
894.771	3567
894.875	2470
894.978	4745
895.082	5633
895.186	6641
895.289	4895
895.393	3927
895.496	6172
895.600	4398
895.703	2066
895.807	3917
895.910	5066
896.014	5950
896.117	4150
896.221	5400
896.324	5186
896.427	3759
896.531	3120
896.634	5365
896.737	3443
896.840	4865
896.944	6926
897.047	6186
897.150	4166
897.253	3660
897.356	3105
897.460	3235
897.563	2859
897.666	6182
897.769	5770
897.872	3983
897.975	3672
898.078	4993
898.181	3503
898.284	4314
898.387	6500
898.490	6372
898.593	3159
898.695	3787
898.798	3433
898.901	3895
899.004	4129
899.107	4523
899.209	4422
899.312	7135
899.415	4142
899.518	3212
899.620	1550
899.723	3023
899.826	3944
899.928	3567
900.031	4714
900.133	6202
900.236	4479
900.338	2471
900.441	3329
900.543	4170
900.646	3452
900.748	4457
900.851	4976
900.953	4327
901.055	2524
901.158	3800
901.260	3013
901.362	2820
901.465	3330
901.567	5398
901.669	4866
901.771	3162
901.873	4258
901.976	4233
902.078	4939
902.180	3219
902.282	2116
902.384	3634
902.486	6039
902.588	5135
902.690	2860
902.792	2139
902.894	3066
902.996	5048
903.098	4061
903.200	3395
903.302	3228
903.404	4158
903.505	3593
903.607	3646
903.709	5439
903.811	6759
903.913	3391
904.014	2924
904.116	2147
904.218	3587
904.319	4488
904.421	6469
904.523	5340
904.624	3641
904.726	3151
904.827	3353
904.929	2331
905.030	3942
905.132	5848
905.233	4824
905.335	2619
905.436	2347
905.537	3139
905.639	3893
905.740	3899
905.841	5876
905.943	4238
906.044	3778
906.145	2710
906.247	2845
906.348	3627
906.449	4796
906.550	5039
906.651	3154
906.752	3130
906.854	3383
906.955	3365
907.056	3917
907.157	5023
907.258	5277
907.359	2638
907.460	2899
907.561	2076
907.662	3211
907.762	3714
907.863	4812
907.964	5091
908.065	4189
908.166	3302
908.267	3609
908.367	2407
908.468	3055
908.569	3380
908.670	5228
908.770	4051
908.871	4169
908.971	4473
909.072	4886
909.173	2940
909.273	3597
909.374	3885
909.474	4052
909.575	3124
909.675	3604
909.776	3412
909.876	3725
909.977	3274
910.077	4490
910.177	5715
910.278	4287
910.378	2865
910.478	3464
910.579	4861
910.679	5131
910.779	4712
910.879	5119
910.980	4075
911.080	4229
911.180	2870
911.280	3129
911.380	3392
911.480	3022
911.580	3710
911.680	4368
911.780	4166
911.880	5219
911.980	2373
912.080	3701
912.180	5171
912.280	3474
912.380	3645
912.480	2473
912.580	2984
912.679	3653
912.779	4799
912.879	4274
912.979	4023
913.078	3466
913.178	1729
913.278	1985
913.377	2810
913.477	3180
913.577	3102
913.676	4996
913.776	4698
913.875	3656
913.975	3931
914.074	4143
914.174	4498
914.273	2703
914.373	4001
914.472	3125
914.572	2397
914.671	3174
914.770	4073
914.870	3500
914.969	3499
915.068	5022
915.167	5343
915.267	3173
915.366	3728
915.465	3820
915.564	3987
915.663	3821
915.763	4276
915.862	4832
915.961	5317
916.060	4260
916.159	3170
916.258	2805
916.357	2725
916.456	4768
916.555	4047
916.654	4219
916.752	5475
916.851	4877
916.950	3011
917.049	3061
917.148	4252
917.247	3863
917.345	3784
917.444	3150
917.543	3423
917.642	3649
917.740	3717
917.839	6647
917.937	6263
918.036	6125
918.135	3831
918.233	4138
918.332	3283
918.430	4394
918.529	4034
918.627	4160
918.726	4617
918.824	5304
918.923	2824
919.021	3566
919.119	3043
919.218	3556
919.316	5156
919.414	4724
919.512	4860
919.611	4730
919.709	4597
919.807	5873
919.905	6124
920.003	7470
920.102	5641
920.200	6150
920.298	6771
920.396	6649
920.494	6287
920.592	5421
920.690	5495
920.788	6355
920.886	5098
920.984	7394
921.082	6917
921.180	8147
921.277	7138
921.375	9164
921.473	11645
921.571	11545
921.669	10183
921.766	9896
921.864	10006
921.962	10499
922.060	9543
922.157	9971
922.255	10861
922.352	11102
922.450	10842
922.548	12338
922.645	13380
922.743	17022
922.840	25997
922.938	30304
923.035	24880
923.133	26591
923.230	29191
923.327	35805
923.425	31959
923.522	31969
923.619	29271
923.717	26617
923.814	25856
923.911	26063
924.008	27012
924.106	26726
924.203	25694
924.300	26591
924.397	24953
924.494	26221
924.591	25702
924.688	23957
924.786	24999
924.883	25616
924.979	25272
925.077	24952
925.173	24409
925.270	25344
925.367	24120
925.464	25999
925.561	25275
925.658	27002
925.755	21395
925.852	27308
925.948	24886
926.045	23840
926.142	24728
926.239	25082
926.335	19556
926.432	23751
926.529	24890
926.625	27433
926.722	20676
926.818	21500
926.915	24429
927.011	22920
927.108	21994
927.204	23123
927.301	20102
927.397	24688
927.494	26253
927.590	17310
927.687	19464
927.783	26364
927.879	23703
927.976	21305
928.072	19347
928.168	23277
928.264	23801
928.361	20392
928.457	24997
928.553	21123
928.649	19845
928.745	22427
928.841	18508
928.937	21692
929.033	21019
929.129	20344
929.225	23237
929.321	20634
929.417	17823
929.513	23548
929.609	20025
929.705	18638
929.801	21701
929.897	18139
929.993	18322
930.089	20615
930.184	17606
930.280	20218
930.376	25129
930.471	18661
930.567	15213
930.663	19664
930.758	16510
930.854	18624
930.950	19122
931.045	16937
931.141	16585
931.236	22090
931.332	18454
931.427	14271
931.523	21886
931.618	20065
931.714	13538
931.809	17213
931.905	20728
932.000	13856
932.095	12633
932.191	20076
932.286	22870
932.381	19002
932.476	14517
932.572	17155
932.667	13518
932.762	15491
932.857	18104
932.952	19877
933.047	17167
933.142	13541
933.237	17274
933.332	17970
933.427	19764
933.522	16694
933.617	13789
933.712	15577
933.807	19470
933.902	20737
933.997	20266
934.092	13382
934.187	15293
934.282	17582
934.376	17033
934.471	19383
934.566	14140
934.661	14303
934.755	17167
934.850	17708
934.945	14664
935.039	13639
935.134	11273
935.228	14597
935.323	22036
935.417	13865
935.512	10516
935.606	12770
935.701	16664
935.795	16999
935.890	15563
935.984	13868
936.079	11116
936.173	14840
936.267	13581
936.362	11830
936.456	14262
936.550	19338
936.644	15025
936.738	11580
936.833	11389
936.927	9818
937.021	12718
937.115	14606
937.209	15188
937.303	14151
937.397	11064
937.491	12690
937.585	15488
937.679	14920
937.773	11060
937.867	11059
937.961	10466
938.055	16690
938.149	14468
938.243	9613
938.337	8766
938.430	11548
938.524	16417
938.618	13407
938.712	10124
938.805	12044
938.899	14788
938.993	17127
939.086	10863
939.180	7775
939.274	10079
939.367	14641
939.461	15501
939.554	11896
939.648	10322
939.741	11482
939.835	13383
939.928	17665
940.022	14069
940.115	11824
940.208	13670
940.302	16345
940.395	16617
940.488	11190
940.582	10751
940.675	9163
940.768	9425
940.861	14211
940.954	14946
941.048	9101
941.141	7838
941.234	9981
941.327	10859
941.420	12482
941.513	12983
941.606	10133
941.699	9458
941.792	13269
941.885	11248
941.978	11603
942.071	12284
942.164	9039
942.257	8632
942.349	10750
942.442	12602
942.535	9608
942.628	9397
942.721	10118
942.813	10626
942.906	11478
942.999	10330
943.091	9006
943.184	10630
943.277	10355
943.369	7627
943.462	6612
943.554	8833
943.647	10682
943.739	11431
943.832	14326
943.924	5978
944.017	7847
944.109	7934
944.201	8301
944.294	8866
944.386	9364
944.478	8694
944.571	7736
944.663	8224
944.755	9636
944.847	10549
944.940	9929
945.032	6959
945.124	6258
945.216	9871
945.308	10033
945.400	8902
945.492	8840
945.584	11261
945.676	12797
945.768	9248
945.860	10215
945.952	12991
946.044	10526
946.136	8591
946.228	9667
946.320	8202
946.412	9688
946.503	11754
946.595	11852
946.687	7641
946.779	6264
946.870	7388
946.962	7655
947.054	7726
947.145	10293
947.237	7375
947.329	7160
947.420	9525
947.512	9293
947.603	5621
947.695	7193
947.786	7017
947.878	7858
947.969	9519
948.061	10138
948.152	8739
948.243	6316
948.335	5397
948.426	6449
948.517	8218
948.609	10318
948.700	9212
948.791	8500
948.882	5915
948.973	6670
949.065	8705
949.156	8375
949.247	5809
949.338	7342
949.429	5209
949.520	5982
949.611	7852
949.702	8974
949.793	7097
949.884	8895
949.975	6637
950.066	4831
950.157	5582
950.247	7673
950.338	5244
950.429	5966
950.520	6981
950.611	5399
950.701	6752
950.792	10180
950.883	8050
950.973	6662
951.064	7168
951.155	8396
951.245	8916
951.336	8239
951.427	8909
951.517	10433
951.608	8261
951.698	6943
951.788	6302
951.879	5365
951.969	6312
952.060	6528
952.150	7310
952.240	9492
952.331	7384
952.421	8490
952.511	5161
952.602	4545
952.692	4397
952.782	4601
952.872	5446
952.962	7246
953.052	5285
953.143	5968
953.233	6025
953.323	6669
953.413	8230
953.503	8541
953.593	6749
953.683	7116
953.773	5246
953.863	5408
953.953	4598
954.042	6386
954.132	7150
954.222	7828
954.312	5703
954.402	5580
954.492	6366
954.581	6723
954.671	6078
954.761	5414
954.850	7252
954.940	4259
955.030	4121
955.119	5372
955.209	5330
955.298	6502
955.388	6697
955.477	8338
955.567	4075
955.656	5644
955.746	5502
955.835	5069
955.925	4743
956.014	6220
956.103	7415
956.193	9554
956.282	7062
956.371	6404
956.461	6399
956.550	6120
956.639	6175
956.728	6270
956.817	5504
956.906	5923
956.995	8242
957.085	5914
957.174	5478
957.263	5331
957.352	5008
957.441	6836
957.530	5826
957.619	5363
957.708	5503
957.796	5002
957.885	5956
957.974	4824
958.063	5595
958.152	4063
958.241	4333
958.329	4061
958.418	4934
958.507	6266
958.596	6804
958.684	4365
958.773	5207
958.861	4418
958.950	3999
959.039	3800
959.127	3958
959.216	5809
959.304	3531
959.393	4826
959.481	6040
959.570	4085
959.658	3126
959.746	4192
959.835	4406
959.923	4473
960.011	3782
960.100	4925
960.188	5452
960.276	4770
960.365	4132
960.453	3729
960.541	2462
960.629	4091
960.717	3042
960.805	2666
960.893	3595
960.981	4877
961.069	7353
961.158	7772
961.245	7884
961.333	7314
961.421	5400
961.509	5876
961.597	5771
961.685	5174
961.773	4700
961.861	6043
961.949	6587
962.036	4953
962.124	4142
962.212	3844
962.299	4446
962.387	4261
962.475	4067
962.562	3987
962.650	5366
962.738	4664
962.825	2297
962.913	3875
963.000	3866
963.088	5763
963.175	4120
963.263	4091
963.350	4339
963.438	3624
963.525	3458
963.612	3760
963.700	3033
963.787	5882
963.874	4228
963.962	3799
964.049	3906
964.136	4199
964.223	2766
964.310	4039
964.398	3894
964.485	4169
964.572	4500
964.659	4699
964.746	4343
964.833	3073
964.920	3423
965.007	4204
965.094	3910
965.181	4589
965.268	5307
965.355	4248
965.441	3968
965.528	4223
965.615	6212
965.702	4508
965.789	4021
965.875	5418
965.962	5239
966.049	4283
966.136	5362
966.222	5985
966.309	6056
966.395	6191
966.482	6218
966.569	5069
966.655	5175
966.742	4419
966.828	3831
966.915	4027
967.001	3662
967.087	2598
967.174	3374
967.260	4308
967.347	3952
967.433	3802
967.519	3969
967.605	4340
967.692	4811
967.778	5112
967.864	3848
967.950	3718
968.036	3475
968.123	5006
968.209	4104
968.295	3387
968.381	4902
968.467	4067
968.553	2595
968.639	5785
968.725	3795
968.811	5988
968.897	6174
968.983	4577
969.069	2762
969.154	3280
969.240	3453
969.326	3590
969.412	3818
969.497	3324
969.583	2050
969.669	4761
969.755	4049
969.840	5235
969.926	7950
970.012	10288
970.097	11329
970.183	9232
970.268	6059
970.354	4323
970.439	3573
970.525	5139
970.610	4823
970.696	5769
970.781	3372
970.866	2770
970.952	4661
971.037	3634
971.122	4747
971.208	5008
971.293	4771
971.378	2889
971.463	5075
971.549	3885
971.634	4200
971.719	3983
971.804	3410
971.889	3719
971.974	3617
972.059	4144
972.144	3816
972.229	3142
972.314	4116
972.399	3994
972.484	2781
972.569	4734
972.654	1970
972.739	4307
972.824	3107
972.908	3400
972.993	2726
973.078	3465
973.163	4066
973.247	4178
973.332	2396
973.417	4652
973.501	3150
973.586	4564
973.671	3248
973.755	3651
973.840	4657
973.924	5270
974.009	6430
974.093	6249
974.178	7359
974.262	5398
974.346	3998
974.431	4938
974.515	4401
974.600	4612
974.684	4344
974.768	3612
974.852	5196
974.937	3194
975.021	4477
975.105	4840
975.189	3880
975.273	4458
975.358	3467
975.442	2782
975.526	3891
975.610	3571
975.694	3294
975.778	4280
975.862	3240
975.946	2192
976.030	5234
976.114	3886
976.198	3302
976.281	4047
976.365	5208
976.449	3872
976.533	3679
976.617	2873
976.700	3315
976.784	3912
976.868	2396
976.951	3680
977.035	3537
977.119	4289
977.202	3652
977.286	5164
977.369	5468
977.453	9772
977.536	7329
977.620	6627
977.703	5970
977.787	5230
977.870	5075
977.953	6278
978.037	2897
978.120	4367
978.203	4323
978.287	4614
978.370	4619
978.453	3947
978.536	3664
978.620	5639
978.703	4800
978.786	3467
978.869	3478
978.952	3467
979.035	5659
979.118	5239
979.201	3202
979.284	4310
979.367	4300
979.450	5125
979.533	3565
979.616	4321
979.699	3467
979.782	4314
979.865	4358
979.948	4758
980.030	3708
980.113	4305
980.196	3853
980.279	4422
980.361	3439
980.444	4626
980.526	5662
980.609	7651
980.692	9110
980.774	8749
980.857	5877
980.939	7015
981.022	5498
981.104	5453
981.187	5466
981.269	5713
981.352	5366
981.434	4521
981.516	4653
981.599	5441
981.681	4784
981.763	5547
981.846	5487
981.928	5565
982.010	4616
982.092	3858
982.174	5305
982.256	4539
982.339	5231
982.421	5152
982.503	5623
982.585	3875
982.667	4927
982.749	4103
982.831	5014
982.913	4460
982.995	5790
983.077	5103
983.158	7238
983.240	4429
983.322	6855
983.404	11867
983.486	10014
983.568	9932
983.649	7085
983.731	7995
983.813	5546
983.894	5855
983.976	6473
984.058	7117
984.139	6826
984.221	5579
984.302	6911
984.384	6608
984.465	6040
984.547	6880
984.628	6078
984.710	7425
984.791	5840
984.872	6415
984.954	5469
985.035	6759
985.116	5603
985.198	5393
985.279	7172
985.360	6027
985.441	6311
985.522	6807
985.604	6887
985.685	4592
985.766	6521
985.847	7307
985.928	6496
986.009	6166
986.090	6229
986.171	6520
986.252	6174
986.333	7183
986.414	6127
986.495	6937
986.576	7227
986.656	7463
986.737	7565
986.818	7849
986.899	6745
986.980	7320
987.060	7892
987.141	7650
987.222	8747
987.302	9099
987.383	10145
987.464	9463
987.544	9521
987.625	8374
987.705	9449
987.786	10309
987.866	8813
987.947	9148
988.027	8701
988.108	8584
988.188	8764
988.268	7345
988.349	9173
988.429	9004
988.509	8769
988.589	7914
988.670	6723
988.750	9271
988.830	7500
988.910	8947
988.990	7612
989.070	8075
989.151	7754
989.231	7224
989.311	7819
989.391	6959
989.471	7181
989.551	7244
989.631	6834
989.711	8761
989.791	7673
989.870	6699
989.950	7935
990.030	6986
990.110	6920
990.190	5702
990.269	5939
990.349	6907
990.429	7960
990.509	6632
990.588	5905
990.668	6888
990.747	7650
990.827	5821
990.907	6494
990.986	6914
991.066	6819
991.145	5331
991.225	6426
991.304	6737
991.383	6192
991.463	6728
991.542	6940
991.622	5267
991.701	4807
991.780	4987
991.859	4952
991.939	5883
992.018	6342
992.097	6957
992.176	5363
992.256	5203
992.335	5171
992.414	7324
992.493	4811
992.572	4266
992.651	6329
992.730	6232
992.809	4641
992.888	4811
992.967	5425
993.046	5308
993.125	4322
993.203	4062
993.282	5762
993.361	4583
993.440	5000
993.519	4373
993.597	4546
993.676	4476
993.755	5748
993.834	5279
993.912	3307
993.991	4867
994.069	4051
994.148	4265
994.226	3045
994.305	4323
994.384	4510
994.462	6633
994.540	3876
994.619	2784
994.697	4856
994.776	5481
994.854	5016
994.932	3863
995.011	4065
995.089	4371
995.167	3517
995.245	5691
995.324	3720
995.402	4578
995.480	4266
995.558	3841
995.636	3426
995.714	4179
995.792	5125
995.870	3326
995.948	3243
996.026	3610
996.104	3030
996.182	3994
996.260	2466
996.338	2764
996.416	2246
996.494	4115
996.572	4491
996.649	2733
996.727	2427
996.805	4069
996.883	3253
996.960	2620
997.038	4132
997.116	4011
997.193	2900
997.271	2951
997.348	1711
997.426	3535
997.504	3063
997.581	3824
997.658	2289
997.736	1021
997.813	1437
997.891	4177
997.968	2869
998.046	2324
998.123	2949
998.200	4533
998.277	2558
998.355	3049
998.432	2215
998.509	2436
998.586	2639
998.663	2689
998.741	2020
998.818	2640
998.895	2103
998.972	3985
999.049	2951
999.126	2283
999.203	2085
999.280	2381
999.357	2243
999.434	2586
999.511	2746
999.587	3836
999.664	1035
999.741	2443
999.818	2547
999.895	2878
999.971	1569
1000.048	1988
1000.125	2395
1000.202	1670
1000.278	2391
1000.355	3190
1000.431	1417
1000.508	699
1000.584	1899
1000.661	1883
1000.738	1296
1000.814	2426
1000.890	2491
1000.967	2318
1001.043	1839
1001.120	1425
1001.196	2080
1001.272	1081
1001.349	1766
1001.425	3023
1001.501	3042
1001.577	1209
1001.654	2159
1001.730	1609
1001.806	2130
1001.882	609
1001.958	2586
1002.034	2989
1002.110	1320
1002.186	540
1002.262	482
1002.338	1064
1002.414	1230
1002.490	2705
1002.566	547
1002.642	1346
1002.718	1902
1002.794	590
1002.870	1501
1002.945	2064
1003.021	1214
1003.097	793
1003.173	1750
1003.248	1939
1003.324	787
1003.400	2055
1003.475	608
1003.551	1462
1003.626	1028
1003.702	301
1003.777	928
1003.853	564
1003.928	92
1004.004	884
1004.079	1535
1004.155	1001
1004.230	148
1004.305	2370
1004.381	208
1004.456	377
1004.531	-248
1004.607	866
1004.682	899
1004.757	988
1004.832	231
1004.907	1151
1004.982	969
1005.057	1927
1005.133	320
1005.208	547
1005.283	126
1005.358	1529
1005.433	-161
1005.508	374
1005.583	372
1005.657	1634
1005.732	2278
1005.807	585
1005.882	469
1005.957	-21
1006.032	-136
1006.106	779
1006.181	501
1006.256	1498
1006.331	291
1006.405	-126
1006.480	-154
1006.554	-238
1006.629	464
1006.704	-92
1006.778	-112
1006.853	846
1006.927	-784
1007.002	313
1007.076	-169
1007.150	352
1007.225	526
1007.299	1001
1007.373	-283
1007.448	493
1007.522	370
1007.596	573
1007.671	-214
1007.745	264
1007.819	227
1007.893	372
1007.967	743
1008.041	-257
1008.115	273
1008.190	-609
1008.264	631
1008.338	-982
1008.412	-773
1008.486	658
1008.560	-259
1008.633	495
1008.707	0
1008.781	1800
1008.855	-62
1008.929	836
1009.003	-296
1009.076	-287
1009.150	-108
1009.224	456
1009.298	808
1009.371	488
1009.445	291
1009.519	296
1009.592	-834
1009.666	614
1009.739	242
1009.813	-614
1009.886	799
1009.960	-125
1010.033	229
1010.107	1119
1010.180	-756
1010.253	-818
1010.327	-829
1010.400	-567
1010.473	-432
1010.547	524
1010.620	-777
1010.693	-421
1010.766	123
1010.840	302
1010.913	-618
1010.986	-728
1011.059	-792
1011.132	-298
1011.205	-611
1011.278	-477
1011.351	-307
1011.424	236
1011.497	-100
1011.570	841
1011.643	-204
1011.716	-102
1011.789	-1002
1011.862	-189
1011.934	-999
1012.007	-921
1012.080	297
1012.153	-691
1012.225	385
1012.298	-685
1012.371	-1046
1012.443	-573
1012.516	-452
1012.588	365
1012.661	-131
1012.733	-1016
1012.806	-934
1012.879	-445
1012.951	-258
1013.023	-1431
1013.096	-446
1013.168	-134
1013.241	47
1013.313	-190
1013.385	-1068
1013.458	-829
1013.530	-600
1013.602	-717
1013.674	-563
1013.746	-772
1013.819	-1081
1013.891	-50
1013.963	-270
1014.035	-126
1014.107	-968
1014.179	-617
1014.251	-1643
1014.323	-650
1014.395	-998
1014.467	-672
1014.539	-935
1014.611	-1245
1014.683	30
1014.754	-586
1014.826	-1535
1014.898	-340
1014.970	-715
1015.042	-376
1015.113	-309
1015.185	255
1015.257	-1691
1015.328	-462
1015.400	-1375
1015.471	-515
1015.543	-1367
1015.615	-733
1015.686	-1143
1015.757	-595
1015.829	-516
1015.901	-950
1015.972	-1526
1016.043	-1441
1016.115	-1254
1016.186	-375
1016.257	-1881
1016.328	-91
1016.400	-147
1016.471	-854
1016.542	-1086
1016.613	-629
1016.685	-878
1016.756	-264
1016.827	-1108
1016.898	-939
1016.969	-729
1017.040	-914
1017.111	-2124
1017.182	-728
1017.253	-1489
1017.324	-544
1017.395	-66
1017.466	-643
1017.537	-942
1017.608	-311
1017.678	-865
1017.749	-1181
1017.820	-1105
1017.891	-1233
1017.961	-1285
1018.032	-907
1018.103	-1698
1018.173	-946
1018.244	-1565
1018.315	-994
1018.385	-1524
1018.456	-1231
1018.526	-1978
1018.597	-990
1018.667	-1182
1018.738	-1369
1018.808	-1194
1018.878	-1282
1018.949	-1013
1019.019	-148
1019.089	-519
1019.160	-881
1019.230	-2311
1019.300	-787
1019.371	-1627
1019.441	2
1019.511	-1455
1019.581	-1162
1019.651	-1390
1019.721	-955
1019.791	-1759
1019.861	-1208
1019.931	-617
1020.001	-1244
1020.071	-1973
1020.141	-1422
1020.211	-1398
1020.281	-1699
1020.351	-1317
1020.421	-1596
1020.491	-1401
1020.560	-1186
1020.630	-1798
1020.700	-1264
1020.770	-2146
1020.839	-1454
1020.909	-1987
1020.979	-1647
1021.048	-1611
1021.118	-1129
1021.187	-1823
1021.257	-740
1021.326	-1456
1021.396	-1478
1021.465	-1747
1021.535	-1373
1021.604	-1126
1021.674	-1335
1021.743	-1023
1021.812	-794
1021.882	-784
1021.951	-748
1022.020	-1555
1022.089	-753
1022.159	-1783
1022.228	-895
1022.297	-1039
1022.366	-1016
1022.435	-2006
1022.504	-1385
1022.573	-1974
1022.642	-480
1022.711	-1407
1022.781	-1385
1022.849	-1646
1022.918	-1223
1022.987	-1450
1023.056	-1539
1023.125	-1783
1023.194	-202
1023.263	-1915
1023.331	-1010
1023.400	-2044
1023.469	-2473
1023.538	-1584
1023.606	-1593
1023.675	-1508
1023.744	-1318
1023.812	-2073
1023.881	-1531
1023.949	-1046
1024.018	-1136
1024.086	-2169
1024.155	-1290
1024.223	-1991
1024.292	-1719
1024.360	-2235
1024.429	-1938
1024.497	-2218
1024.565	-879
1024.634	-2165
1024.702	-1264
1024.770	-1493
1024.838	-1977
1024.907	-1349
1024.975	-1760
1025.043	-2079
1025.111	-1515
1025.179	-1606
1025.247	-1400
1025.315	-1657
1025.383	-1767
1025.451	-1763
1025.519	-1485
1025.587	-1827
1025.655	-628
1025.723	-1498
1025.791	-1740
1025.859	-1694
1025.927	-1557
1025.995	-1596
1026.062	-1814
1026.130	-1724
1026.198	-2528
1026.266	-1551
1026.333	-686
1026.401	-2262
1026.469	-2205
1026.536	-1917
1026.604	-850
1026.671	-1415
1026.739	-1351
1026.806	-1255
1026.874	-1033
1026.941	-1762
1027.009	-2110
1027.076	-1289
1027.144	-1053
1027.211	-2832
1027.278	-2095
1027.345	-1163
1027.413	-981
1027.480	-2551
1027.547	-2070
1027.614	-1710
1027.682	-1530
1027.749	-1834
1027.816	-1560
1027.883	-1727
1027.950	-752
1028.017	-1192
1028.084	-2156
1028.151	-2357
1028.218	-2314
1028.285	-2602
1028.352	-2074
1028.419	-2324
1028.486	-1969
1028.553	-2687
1028.619	-1567
1028.686	-1147
1028.753	-1646
1028.820	-1855
1028.886	-2237
1028.953	-1615
1029.020	-2147
1029.086	-2784
1029.153	-1843
1029.220	-2203
1029.286	-1486
1029.353	-1744
1029.419	-1986
1029.486	-2137
1029.552	-2089
1029.619	-2518
1029.685	-852
1029.751	-1825
1029.818	-1261
1029.884	-1927
1029.951	-475
1030.017	-2110
1030.083	-1211
1030.149	-1919
1030.216	-1727
1030.282	-1677
1030.348	-1532
1030.414	-2526
1030.480	-1276
1030.546	-1650
1030.612	-1646
1030.678	-2273
1030.744	-2014
1030.810	-2348
1030.876	-1527
1030.942	-2300
1031.008	-1231
1031.074	-2321
1031.140	-2213
1031.206	-2031
1031.272	-2053
1031.337	-1242
1031.403	-1580
1031.469	-2682
1031.534	-1574
1031.600	-1889
1031.666	-2155
1031.731	-2495
1031.797	-1615
1031.863	-2908
1031.928	-2025
1031.994	-2171
1032.059	-1332
1032.125	-2326
1032.190	-2370
1032.256	-2021
1032.321	-1768
1032.386	-2389
1032.452	-1487
1032.517	-1479
1032.582	-2071
1032.647	-1951
1032.713	-2818
1032.778	-1728
1032.843	-2105
1032.908	-2202
1032.974	-772
1033.039	-1606
1033.104	-1717
1033.169	-1212
1033.234	-1442
1033.299	-772
1033.364	-2078
1033.429	-2145
1033.494	-1436
1033.559	-2266
1033.624	-1917
1033.688	-1982
1033.753	-882
1033.818	-1476
1033.883	-928
1033.948	-1052
1034.013	-364
1034.077	887
1034.142	1707
1034.207	1986
1034.271	3406
1034.336	3901
1034.400	2104
1034.465	-48
1034.530	39
1034.594	-1285
1034.658	-958
1034.723	-2052
1034.787	-1100
1034.852	-864
1034.916	-994
1034.981	-1505
1035.045	-806
1035.109	-2733
1035.173	-1730
1035.238	-2536
1035.302	-1716
1035.366	-1891
1035.430	-1272
1035.495	-2194
1035.559	-999
1035.623	-1249
1035.687	-2251
1035.751	-1187
1035.815	-1428
1035.879	-1741
1035.943	-2292
1036.007	-1448
1036.071	-1190
1036.135	-2130
1036.198	-2015
1036.262	-2101
1036.326	-1366
1036.390	-1538
1036.454	-1884
1036.517	-1942
1036.581	-663
1036.645	-1535
1036.709	-1093
1036.772	-1452
1036.836	-2050
1036.900	-1829
1036.963	-1758
1037.026	-1020
1037.090	-1717
1037.154	-2449
1037.217	-1029
1037.280	-1563
1037.344	-1587
1037.407	-2183
1037.471	-1447
1037.534	-1269
1037.597	-1241
1037.661	-2060
1037.724	-1192
1037.787	-1948
1037.850	-1343
1037.913	-1677
1037.977	-737
1038.040	-3048
1038.103	-1481
1038.166	-2222
1038.229	-869
1038.292	-1885
1038.355	-1862
1038.418	-1809
1038.481	-1286
1038.544	-2230
1038.607	-1359
1038.670	-1895
1038.732	-1574
1038.795	-2267
1038.858	-1512
1038.921	-2215
1038.984	-1474
1039.046	-1942
1039.109	-1685
1039.172	-1330
1039.234	-1845
1039.297	-1968
1039.360	-1465
1039.422	-2100
1039.485	-1384
1039.547	-2178
1039.610	-1953
1039.672	-1257
1039.734	-960
1039.797	-2007
1039.859	-1457
1039.922	-2257
1039.984	-1764
1040.046	-2672
1040.109	-1292
1040.171	-1625
1040.233	-1213
1040.295	-1850
1040.358	-1867
1040.420	-1975
1040.482	-1868
1040.544	-2457
1040.606	-1329
1040.668	-2144
1040.730	-2009
1040.792	-2260
1040.854	-1924
1040.916	-1742
1040.978	-1933
1041.040	-1970
1041.102	-1904
1041.164	-1711
1041.225	-1970
1041.287	-2308
1041.349	-2039
1041.411	-1872
1041.472	-1333
1041.534	-1746
1041.596	-2123
1041.657	-1873
1041.719	-1706
1041.781	-2247
1041.842	-2202
1041.904	-2385
1041.965	-1488
1042.027	-1075
1042.088	-1364
1042.150	-2042
1042.211	-1522
1042.272	-2550
1042.334	-1373
1042.395	-1799
1042.456	-1730
1042.518	-2605
1042.579	-1370
1042.640	-625
1042.701	-1466
1042.763	-1787
1042.824	-1413
1042.885	-1704
1042.946	-1659
1043.007	-1921
1043.068	-1518
1043.129	-2335
1043.190	-1673
1043.251	-1338
1043.312	-1933
1043.373	-1320
1043.434	-2277
1043.495	-1405
1043.556	-1785
1043.616	-1547
1043.677	-1725
1043.738	-2062
1043.799	-1360
1043.859	-1585
1043.920	-1825
1043.981	-2012
1044.041	-1719
1044.102	-1720
1044.162	-1214
1044.223	-1887
1044.284	-2410
1044.344	-2149
1044.405	-1184
1044.465	-1389
1044.525	-1452
1044.586	-1531
1044.646	-1608
1044.707	-824
1044.767	-1465
1044.827	-1853
1044.887	-1357
1044.948	-1189
1045.008	-968
1045.068	-1480
1045.128	-1185
1045.188	-2517
1045.249	-1795
1045.309	-1521
1045.369	-916
1045.429	-1840
1045.489	-1766
1045.549	-1431
1045.609	-1682
1045.669	-1950
1045.729	-1481
1045.789	-1774
1045.848	-779
1045.908	-1308
1045.968	-1457
1046.028	-1491
1046.088	-704
1046.147	-1590
1046.207	-757
1046.267	-2001
1046.326	-1001
1046.386	-1240
1046.446	-624
1046.505	-1782
1046.565	-167
1046.624	-939
1046.684	-621
1046.743	-918
1046.803	-597
1046.862	212
1046.922	0
